GYR_X,GYR_Y,GYR_Z,DATE,UNIX_TIMESTAMP
-0.8178570866584778,-0.0200872514396905,-0.2371891885995865,2023-10-20T12:10:10.463665Z,1697803810463
-0.8621554374694824,-0.0719682276248931,-0.2636618018150329,2023-10-20T12:10:10.475767Z,1697803810475
-0.9592660069465636,-0.137285053730011,-0.3174051642417907,2023-10-20T12:10:10.484218Z,1697803810484
-1.129675030708313,-0.2230882048606872,-0.410923957824707,2023-10-20T12:10:10.493746Z,1697803810493
-1.3966625928878784,-0.3373593986034393,-0.5592503547668457,2023-10-20T12:10:10.504332Z,1697803810504
-1.7868341207504272,-0.489144504070282,-0.7804761528968811,2023-10-20T12:10:10.513692Z,1697803810513
-2.334644079208374,-0.689085841178894,-1.097216248512268,2023-10-20T12:10:10.526610Z,1697803810526
-3.093569755554199,-0.954609990119934,-1.543259620666504,2023-10-20T12:10:10.534129Z,1697803810534
-4.144492149353027,-1.310460329055786,-2.165565252304077,2023-10-20T12:10:10.545051Z,1697803810545
-5.280685424804688,-1.7644853591918943,-2.9573488235473637,2023-10-20T12:10:10.553657Z,1697803810553
-6.798669815063477,-2.312561511993408,-3.95585823059082,2023-10-20T12:10:10.564994Z,1697803810564
-8.408576011657715,-2.887775182723999,-5.043895244598389,2023-10-20T12:10:10.575524Z,1697803810575
-9.850468635559082,-3.389956474304199,-6.04918909072876,2023-10-20T12:10:10.585242Z,1697803810585
-10.86746883392334,-3.7222607135772714,-6.790821075439453,2023-10-20T12:10:10.594686Z,1697803810594
-11.32748031616211,-3.8359997272491455,-7.163033962249756,2023-10-20T12:10:10.605181Z,1697803810605
-11.252585411071776,-3.7422149181365967,-7.160506248474121,2023-10-20T12:10:10.614611Z,1697803810614
-10.759716033935549,-3.48879623413086,-6.844165325164795,2023-10-20T12:10:10.626385Z,1697803810626
-9.99786376953125,-3.1376020908355717,-6.30340576171875,2023-10-20T12:10:10.635606Z,1697803810635
-9.106708526611328,-2.74782943725586,-5.629219055175781,2023-10-20T12:10:10.646028Z,1697803810646
-8.189878463745117,-2.3649744987487797,-4.89556884765625,2023-10-20T12:10:10.658990Z,1697803810658
-7.317213535308838,-2.019367456436157,-4.15766191482544,2023-10-20T12:10:10.666737Z,1697803810666
-6.53075122833252,-1.727237582206726,-3.457667827606201,2023-10-20T12:10:10.676959Z,1697803810676
-5.847784519195557,-1.4928419589996338,-2.824054718017578,2023-10-20T12:10:10.686516Z,1697803810686
-5.26285982131958,-1.3105933666229248,-2.2707905769348145,2023-10-20T12:10:10.695214Z,1697803810695
-4.974188804626465,-1.172377109527588,-1.811577320098877,2023-10-20T12:10:10.708213Z,1697803810708
-4.475865364074707,-1.0574407577514648,-1.4134241342544556,2023-10-20T12:10:10.716343Z,1697803810716
-4.037803649902344,-0.9586008787155152,-1.0930923223495483,2023-10-20T12:10:10.726472Z,1697803810726
-3.644838333129883,-0.8696050047874451,-0.8428663611412048,2023-10-20T12:10:10.736909Z,1697803810736
-3.289520025253296,-0.7908523678779602,-0.6537003517150879,2023-10-20T12:10:10.747684Z,1697803810747
-2.968656301498413,-0.72553551197052,-0.5133556127548218,2023-10-20T12:10:10.759129Z,1697803810759
-2.681448459625244,-0.6752508878707886,-0.4107909202575683,2023-10-20T12:10:10.768201Z,1697803810768
-2.427896738052368,-0.6407966017723083,-0.3408181369304657,2023-10-20T12:10:10.776964Z,1697803810776
-2.2078683376312256,-0.6253653168678284,-0.3052996098995209,2023-10-20T12:10:10.787969Z,1697803810787
-2.0184361934661865,-0.6330809593200684,-0.3099555969238281,2023-10-20T12:10:10.797587Z,1697803810797
-1.852550029754639,-0.6667370796203613,-0.3581117987632751,2023-10-20T12:10:10.809967Z,1697803810809
-1.7062190771102903,-0.7265997529029846,-0.4514975547790527,2023-10-20T12:10:10.817821Z,1697803810817
-1.5791771411895752,-0.8110726475715637,-0.5885165333747864,2023-10-20T12:10:10.828326Z,1697803810828
-1.4706262350082395,-0.918692409992218,-0.7582604885101318,2023-10-20T12:10:10.837892Z,1697803810837
-1.3760432004928589,-1.047729730606079,-0.9415732622146606,2023-10-20T12:10:10.848947Z,1697803810848
-1.288244605064392,-1.1952579021453855,-1.1161061525344849,2023-10-20T12:10:10.859041Z,1697803810859
-1.200579047203064,-1.3548917770385742,-1.262437105178833,2023-10-20T12:10:10.868862Z,1697803810868
-1.105463981628418,-1.5166540145874023,-1.3655339479446411,2023-10-20T12:10:10.878355Z,1697803810878
-0.9994404911994934,-1.6716318130493164,-1.417814016342163,2023-10-20T12:10:10.888859Z,1697803810888
-0.8838390707969666,-1.8176966905593872,-1.4227360486984253,2023-10-20T12:10:10.898450Z,1697803810898
-0.7609210014343262,-1.959238648414612,-1.3914744853973389,2023-10-20T12:10:10.909814Z,1697803810909
-0.6344112753868103,-2.104239225387573,-1.3399925231933594,2023-10-20T12:10:10.919223Z,1697803810919
-0.5088326930999756,-2.2606804370880127,-1.2826573848724363,2023-10-20T12:10:10.929942Z,1697803810929
-0.3880431056022644,-2.434015989303589,-1.2294461727142334,2023-10-20T12:10:10.942698Z,1697803810942
-0.2712444067001343,-2.627039909362793,-1.1858129501342771,2023-10-20T12:10:10.949979Z,1697803810949
-0.1598998457193374,-2.8426785469055176,-1.1596064567565918,2023-10-20T12:10:10.959036Z,1697803810958
-0.0591975264251232,-3.0829274654388428,-1.1585421562194824,2023-10-20T12:10:10.970473Z,1697803810970
0.0286010522395372,-3.343529462814331,-1.00236713886261,2023-10-20T12:10:10.979311Z,1697803810979
0.1057573780417442,-3.6141088008880615,-0.7127648591995239,2023-10-20T12:10:10.993162Z,1697803810993
0.1740008294582367,-3.885885238647461,-0.6743196845054626,2023-10-20T12:10:10.999993Z,1697803810999
0.2325332164764404,-4.156996726989746,-0.8513801693916321,2023-10-20T12:10:11.010888Z,1697803811010
0.2812215089797973,-4.435557842254639,-1.0265783071517944,2023-10-20T12:10:11.020198Z,1697803811020
0.3209969401359558,-4.730747222900391,-1.1915332078933716,2023-10-20T12:10:11.030988Z,1697803811030
0.3575796782970428,-5.034450531005859,-1.3321439027786257,2023-10-20T12:10:11.042341Z,1697803811042
0.4022771418094635,-5.057597160339356,-1.4301856756210327,2023-10-20T12:10:11.051343Z,1697803811051
0.4630709886550903,-5.254478931427002,-1.495103359222412,2023-10-20T12:10:11.060297Z,1697803811060
0.5354382991790771,-5.390699863433838,-1.5299568176269531,2023-10-20T12:10:11.071100Z,1697803811071
0.5992918014526367,-5.4749064445495605,-1.5483146905899048,2023-10-20T12:10:11.081441Z,1697803811081
0.6240350604057312,-5.528383731842041,-1.5625486373901367,2023-10-20T12:10:11.093024Z,1697803811093
0.5726861953735352,-5.576406955718994,-1.577580809593201,2023-10-20T12:10:11.101714Z,1697803811101
0.4143826961517334,-5.639994621276856,-1.5809065103530884,2023-10-20T12:10:11.112570Z,1697803811112
0.1376841366291046,-5.722605228424072,-1.5401999950408936,2023-10-20T12:10:11.121226Z,1697803811121
-0.2466342002153396,-5.810536861419678,-1.4190113544464111,2023-10-20T12:10:11.132239Z,1697803811132
-0.7211456298828125,-5.877849102020264,-1.1921982765197754,2023-10-20T12:10:11.142239Z,1697803811142
-1.2769372463226318,-5.908578395843506,-0.918160319328308,2023-10-20T12:10:11.152456Z,1697803811152
-1.900174140930176,-5.296116828918457,-0.6732555031776428,2023-10-20T12:10:11.162106Z,1697803811162
-2.5988380908966064,-4.280979156494141,-0.4429837465286255,2023-10-20T12:10:11.175889Z,1697803811175
-3.310272455215454,-3.2216758728027344,-0.1495236456394195,2023-10-20T12:10:11.182131Z,1697803811182
-4.035542011260986,-2.3885204792022705,0.2443727105855941,2023-10-20T12:10:11.193165Z,1697803811193
-4.754026889801025,-1.7297650575637815,0.7260676622390747,2023-10-20T12:10:11.202382Z,1697803811202
-5.133955478668213,-1.1932625770568848,1.2733454704284668,2023-10-20T12:10:11.213830Z,1697803811213
-5.563902378082275,-1.4595848321914673,1.841774821281433,2023-10-20T12:10:11.225585Z,1697803811225
-5.806811809539795,-2.34222674369812,2.4072773456573486,2023-10-20T12:10:11.233641Z,1697803811233
-5.853371620178223,-2.968257188796997,2.8183343410491943,2023-10-20T12:10:11.242660Z,1697803811242
-5.737504005432129,-3.347919464111328,2.9717159271240234,2023-10-20T12:10:11.254163Z,1697803811254
-5.504172801971436,-3.503828525543213,2.963068962097168,2023-10-20T12:10:11.262735Z,1697803811262
-5.180515289306641,-3.478021144866944,2.862233638763428,2023-10-20T12:10:11.275593Z,1697803811275
-4.996138095855713,-3.3934152126312256,2.7484946250915527,2023-10-20T12:10:11.283860Z,1697803811283
-4.4616312980651855,-3.1177806854248047,2.5635855197906494,2023-10-20T12:10:11.294403Z,1697803811294
-3.883091688156128,-2.767517566680908,2.384396553039551,2023-10-20T12:10:11.303494Z,1697803811303
-3.291249513626098,-2.379607677459717,2.222501277923584,2023-10-20T12:10:11.314721Z,1697803811314
-2.711113691329956,-1.9890369176864624,2.0620694160461426,2023-10-20T12:10:11.325693Z,1697803811325
-2.160377264022827,-1.6208150386810305,1.8731694221496584,2023-10-20T12:10:11.335053Z,1697803811335
-1.651677489280701,-1.285451054573059,1.640503168106079,2023-10-20T12:10:11.344457Z,1697803811344
-1.189138650894165,-0.9756284952163696,1.3672633171081543,2023-10-20T12:10:11.354761Z,1697803811354
-0.7634485363960266,-0.663278341293335,1.0632940530776978,2023-10-20T12:10:11.364126Z,1697803811364
-0.3626347482204437,-0.3158088326454162,0.7356456518173218,2023-10-20T12:10:11.375669Z,1697803811375
0.0228808429092168,0.0887297764420509,0.3868458569049835,2023-10-20T12:10:11.384726Z,1697803811384
0.4041395187377929,0.5607136487960815,0.0135688716545701,2023-10-20T12:10:11.395946Z,1697803811395
0.7924486994743347,1.101872205734253,-0.3913688361644745,2023-10-20T12:10:11.408491Z,1697803811408
1.188739538192749,1.7019622325897217,-0.8255727291107178,2023-10-20T12:10:11.416097Z,1697803811416
1.5809065103530884,2.3395659923553467,-1.2713500261306765,2023-10-20T12:10:11.425247Z,1697803811425
1.9516559839248655,2.9864819049835205,-1.7011640071868896,2023-10-20T12:10:11.436197Z,1697803811436
2.276111602783203,3.6029343605041504,-2.078298807144165,2023-10-20T12:10:11.445511Z,1697803811445
2.523677110671997,4.142629623413086,-2.3664379119873047,2023-10-20T12:10:11.459977Z,1697803811459
2.669874906539917,4.570980548858643,-2.542433977127075,2023-10-20T12:10:11.465855Z,1697803811465
