GYR_X,GYR_Y,GYR_Z,DATE,UNIX_TIMESTAMP
0.6278928518295288,-0.6660719513893127,0.5712229013442993,2023-10-20T12:10:09.560981Z,1697803809560
0.5825302600860596,-0.663677453994751,0.5132226347923279,2023-10-20T12:10:09.571893Z,1697803809571
0.5338419675827026,-0.6615489721298218,0.4592131674289703,2023-10-20T12:10:09.581472Z,1697803809581
0.4731811285018921,-0.6567599773406982,0.4054698050022125,2023-10-20T12:10:09.594068Z,1697803809594
0.3908367156982422,-0.6466498374938965,0.3474695384502411,2023-10-20T12:10:09.601760Z,1697803809601
0.2752352356910705,-0.6293562054634094,0.2810884714126587,2023-10-20T12:10:09.612054Z,1697803809612
0.1153354048728942,-0.6031496524810791,0.2030009627342224,2023-10-20T12:10:09.621928Z,1697803809621
-0.0973766073584556,-0.5672320127487183,0.1120097041130065,2023-10-20T12:10:09.632876Z,1697803809632
-0.367290735244751,-0.5214703679084778,0.0091789420694112,2023-10-20T12:10:09.643241Z,1697803809643
-0.6949390769004822,-0.467061847448349,-0.1024316772818565,2023-10-20T12:10:09.653313Z,1697803809653
-1.0743353366851809,-0.4073322117328644,-0.2189643383026123,2023-10-20T12:10:09.662575Z,1697803809662
-1.491910696029663,-0.3466713726520538,-0.3356300294399261,2023-10-20T12:10:09.672873Z,1697803809672
-1.926380634307861,-0.2885380685329437,-0.4456443190574646,2023-10-20T12:10:09.682194Z,1697803809682
-2.3561947345733643,-0.233198344707489,-0.5422227382659912,2023-10-20T12:10:09.693713Z,1697803809693
-2.7639260292053223,-0.1794549822807312,-0.6189799904823303,2023-10-20T12:10:09.703082Z,1697803809703
-3.1374690532684326,-0.1263767480850219,-0.6711270213127136,2023-10-20T12:10:09.714224Z,1697803809714
-3.4687089920043945,-0.0734315365552902,-0.697333574295044,2023-10-20T12:10:09.722936Z,1697803809722
-3.755118608474731,-0.0202202796936035,-0.6982647776603699,2023-10-20T12:10:09.734177Z,1697803809734
-3.9997575283050537,0.0329909808933734,-0.6756500005722046,2023-10-20T12:10:09.743143Z,1697803809743
-4.209409713745117,0.085138015449047,-0.6312185525894165,2023-10-20T12:10:09.754002Z,1697803809753
-4.390594005584717,0.1347575187683105,-0.5661678314208984,2023-10-20T12:10:09.763260Z,1697803809763
-4.5457048416137695,0.1807852536439895,-0.4830252230167389,2023-10-20T12:10:09.777163Z,1697803809777
-4.67726993560791,0.2221570163965225,-0.3847174048423767,2023-10-20T12:10:09.784145Z,1697803809784
-4.787283897399902,0.2568773627281189,-0.2740379869937897,2023-10-20T12:10:09.795293Z,1697803809795
-4.87601375579834,0.2825517952442169,-0.1555099040269851,2023-10-20T12:10:09.804363Z,1697803809804
-4.941197872161865,0.2969188392162323,-0.0348533764481544,2023-10-20T12:10:09.814983Z,1697803809814
-4.983367443084717,0.2975839674472809,0.0816792845726013,2023-10-20T12:10:09.826268Z,1697803809826
-5.006913661956787,0.2820196747779846,0.1891660392284393,2023-10-20T12:10:09.835721Z,1697803809835
-5.015427589416504,0.2508910894393921,0.2841481268405914,2023-10-20T12:10:09.844898Z,1697803809844
-5.010904312133789,0.2064596861600875,0.3650292456150055,2023-10-20T12:10:09.855822Z,1697803809855
-4.999863147735596,0.1531154066324234,0.4315433204174042,2023-10-20T12:10:09.864963Z,1697803809864
-4.9952073097229,0.0941839292645454,0.4844885170459747,2023-10-20T12:10:09.876151Z,1697803809876
-5.016491413116455,0.0328579545021057,0.5251951217651367,2023-10-20T12:10:09.885152Z,1697803809885
-5.088593006134033,-0.0287340804934501,0.5564567446708679,2023-10-20T12:10:09.896970Z,1697803809896
-5.238382339477539,-0.0901930853724479,0.582264244556427,2023-10-20T12:10:09.905300Z,1697803809905
-5.2025980949401855,-0.1521842032670974,0.6058102250099182,2023-10-20T12:10:09.915814Z,1697803809915
-5.50377368927002,-0.2160377204418182,0.6309525370597839,2023-10-20T12:10:09.925507Z,1697803809925
-5.8975372314453125,-0.2853453755378723,0.65915447473526,2023-10-20T12:10:09.936481Z,1697803809936
-6.385617256164551,-0.3636989593505859,0.6888197660446167,2023-10-20T12:10:09.945876Z,1697803809945
-6.944734573364258,-0.4500342309474945,0.7135630249977112,2023-10-20T12:10:09.959881Z,1697803809959
-7.505182266235352,-0.5358374118804932,0.7216777205467224,2023-10-20T12:10:09.965667Z,1697803809965
-7.96851921081543,-0.6076725721359253,0.6989299058914185,2023-10-20T12:10:09.976952Z,1697803809976
-8.236305236816406,-0.6521040201187134,0.6309525370597839,2023-10-20T12:10:09.986145Z,1697803809986
-8.230585098266602,-0.656360924243927,0.5064381957054138,2023-10-20T12:10:09.997313Z,1697803809997
-7.915174961090088,-0.6120625138282776,0.3228593170642853,2023-10-20T12:10:10.009458Z,1697803810009
-7.313089847564697,-0.5178785920143127,0.0880646333098411,2023-10-20T12:10:10.017724Z,1697803810017
-6.511329174041748,-0.3815247416496277,-0.1821155399084091,2023-10-20T12:10:10.026632Z,1697803810026
-5.6230998039245605,-0.214308351278305,-0.470919668674469,2023-10-20T12:10:10.037385Z,1697803810037
-4.982702255249023,-0.029000137001276,-0.7622513175010681,2023-10-20T12:10:10.047173Z,1697803810047
-4.170565605163574,0.1618952602148056,-1.0393489599227903,2023-10-20T12:10:10.058808Z,1697803810058
-3.5892326831817627,0.3470704555511474,-1.2875795364379885,2023-10-20T12:10:10.067401Z,1697803810067
-3.239501476287842,0.5173465013504028,-1.495901584625244,2023-10-20T12:10:10.078818Z,1697803810078
-3.0850558280944824,0.6644756197929382,-1.6560674905776978,2023-10-20T12:10:10.087590Z,1697803810087
-3.07295036315918,0.7836688160896301,-1.7634211778640747,2023-10-20T12:10:10.098755Z,1697803810098
-3.147313117980957,0.8710683584213257,-1.8161003589630127,2023-10-20T12:10:10.109772Z,1697803810109
-3.2649099826812744,0.9226832389831544,-1.81636643409729,2023-10-20T12:10:10.119074Z,1697803810119
-3.3935482501983643,0.9379814863204956,-1.772600173950195,2023-10-20T12:10:10.128148Z,1697803810128
-3.507420301437378,0.9220181107521056,-1.6971731185913086,2023-10-20T12:10:10.143374Z,1697803810143
-3.583512306213379,0.886366605758667,-1.6040534973144531,2023-10-20T12:10:10.149389Z,1697803810149
-3.603067398071289,0.8443296551704407,-1.5053465366363523,2023-10-20T12:10:10.160639Z,1697803810160
-3.56076455116272,0.80734783411026,-1.4102314710617063,2023-10-20T12:10:10.168847Z,1697803810168
-3.464984178543091,0.7830036878585815,-1.3256255388259888,2023-10-20T12:10:10.179119Z,1697803810179
-3.3306257724761963,0.77182936668396,-1.2525930404663086,2023-10-20T12:10:10.196Z,1697803810195
-3.169262647628784,0.767306387424469,-1.1867440938949585,2023-10-20T12:10:10.199761Z,1697803810199
-2.9914040565490723,0.759590744972229,-1.1216933727264404,2023-10-20T12:10:10.210578Z,1697803810210
-2.8086233139038086,0.7426961660385132,-1.0543811321258545,2023-10-20T12:10:10.220142Z,1697803810220
-2.6332921981811523,0.7164896130561829,-0.9848074316978456,2023-10-20T12:10:10.229661Z,1697803810229
-2.4755208492279053,0.6833656430244446,-0.9143024682998656,2023-10-20T12:10:10.241405Z,1697803810241
-2.3396990299224854,0.6457186341285706,-0.8452608585357666,2023-10-20T12:10:10.249845Z,1697803810249
-2.2246298789978027,0.6051450371742249,-0.7799440622329712,2023-10-20T12:10:10.260418Z,1697803810260
-2.1240603923797607,0.5639063119888306,-0.7190171480178833,2023-10-20T12:10:10.269909Z,1697803810269
-2.033867359161377,0.5233327746391296,-0.663278341293335,2023-10-20T12:10:10.280982Z,1697803810280
-1.9529863595962524,0.4832912683486938,-0.6132597923278809,2023-10-20T12:10:10.291083Z,1697803810291
-1.8803529739379885,0.4437819123268127,-0.5678972005844116,2023-10-20T12:10:10.301302Z,1697803810301
-1.8130407333374023,0.4053367674350738,-0.5253281593322754,2023-10-20T12:10:10.310720Z,1697803810310
-1.7487881183624268,0.3676898181438446,-0.4842224717140198,2023-10-20T12:10:10.321541Z,1697803810321
-1.6866639852523804,0.329776793718338,-0.4453782439231872,2023-10-20T12:10:10.331483Z,1697803810331
-1.6248058080673218,0.2915977239608764,-0.410923957824707,2023-10-20T12:10:10.343159Z,1697803810343
-1.5580257177352903,0.2546158730983734,-0.3812586963176727,2023-10-20T12:10:10.351986Z,1697803810351
-1.4802042245864868,0.2217579334974289,-0.3549191057682037,2023-10-20T12:10:10.362714Z,1697803810362
-1.3890799283981323,0.1950192749500274,-0.3301758766174316,2023-10-20T12:10:10.371531Z,1697803810371
-1.287313461303711,0.1747989952564239,-0.307295024394989,2023-10-20T12:10:10.382590Z,1697803810382
-1.1816890239715576,0.1597668081521988,-0.2869417369365692,2023-10-20T12:10:10.393285Z,1697803810393
-1.0807206630706787,0.1467300504446029,-0.2699141204357147,2023-10-20T12:10:10.402444Z,1697803810402
-0.9935872554779052,0.1311657577753067,-0.2567443251609802,2023-10-20T12:10:10.412393Z,1697803810412
-0.923215389251709,0.1114775910973548,-0.2462351024150848,2023-10-20T12:10:10.422993Z,1697803810422
-0.8684077858924866,0.0873994976282119,-0.237056165933609,2023-10-20T12:10:10.432328Z,1697803810432
-0.8292974829673767,0.0582663305103778,-0.2297396212816238,2023-10-20T12:10:10.443237Z,1697803810443
-0.8100084066390991,0.0228808429092168,-0.2278772294521331,2023-10-20T12:10:10.452866Z,1697803810452
-0.8178570866584778,-0.0200872514396905,-0.2371891885995865,2023-10-20T12:10:10.463665Z,1697803810463
-0.8621554374694824,-0.0719682276248931,-0.2636618018150329,2023-10-20T12:10:10.475767Z,1697803810475
-0.9592660069465636,-0.137285053730011,-0.3174051642417907,2023-10-20T12:10:10.484218Z,1697803810484
-1.129675030708313,-0.2230882048606872,-0.410923957824707,2023-10-20T12:10:10.493746Z,1697803810493
-1.3966625928878784,-0.3373593986034393,-0.5592503547668457,2023-10-20T12:10:10.504332Z,1697803810504
-1.7868341207504272,-0.489144504070282,-0.7804761528968811,2023-10-20T12:10:10.513692Z,1697803810513
-2.334644079208374,-0.689085841178894,-1.097216248512268,2023-10-20T12:10:10.526610Z,1697803810526
-3.093569755554199,-0.954609990119934,-1.543259620666504,2023-10-20T12:10:10.534129Z,1697803810534
-4.144492149353027,-1.310460329055786,-2.165565252304077,2023-10-20T12:10:10.545051Z,1697803810545
-5.280685424804688,-1.7644853591918943,-2.9573488235473637,2023-10-20T12:10:10.553657Z,1697803810553
-6.798669815063477,-2.312561511993408,-3.95585823059082,2023-10-20T12:10:10.564994Z,1697803810564
