ACC_X,ACC_Y,ACC_Z,DATE,UNIX_TIMESTAMP,norm
0.4757275581359863,0.3901858329772949,-0.2201800346374511,2023-10-21T15:10:47.341020Z,1697901047340,0.6534836964141973
0.4523019790649414,0.3706378936767578,-0.2019753456115722,2023-10-21T15:10:47.361175Z,1697901047361,0.618662726152239
0.4295954704284668,0.350191593170166,-0.1828525066375732,2023-10-21T15:10:47.381386Z,1697901047381,0.5836278431700792
0.4115986824035644,0.3322701454162597,-0.1649234294891357,2023-10-21T15:10:47.403862Z,1697901047403,0.5540908431708202
0.4017910957336426,0.3198647499084472,-0.1497445106506347,2023-10-21T15:10:47.421957Z,1697901047421,0.534951363504041
0.4018964767456054,0.3144383430480957,-0.1377902030944824,2023-10-21T15:10:47.442248Z,1697901047442,0.5285625693029933
0.410891056060791,0.3151178359985351,-0.1282796859741211,2023-10-21T15:10:47.462445Z,1697901047462,0.5334663891462805
0.4247221946716308,0.3186879158020019,-0.1195061206817627,2023-10-21T15:10:47.482657Z,1697901047482,0.5442725817137167
0.4387388229370117,0.321599006652832,-0.1100327968597412,2023-10-21T15:10:47.503298Z,1697901047503,0.5549999028982076
0.4497942924499511,0.3215780258178711,-0.0993220806121826,2023-10-21T15:10:47.523289Z,1697901047523,0.561775941017951
0.4560108184814453,0.3175125122070312,-0.0874689817428588,2023-10-21T15:10:47.543591Z,1697901047543,0.5625041197602648
0.4558897018432617,0.3087606430053711,-0.0747468471527099,2023-10-21T15:10:47.563696Z,1697901047563,0.5556578498276604
0.4474143981933594,0.2944598197937011,-0.0613298416137695,2023-10-21T15:10:47.586666Z,1697901047586,0.5391174071165157
0.4295787811279297,0.2744998931884765,-0.0476693511009216,2023-10-21T15:10:47.604338Z,1697901047604,0.5120161009091664
0.4030914306640625,0.2498531341552734,-0.0344495773315429,2023-10-21T15:10:47.624629Z,1697901047624,0.47549559777177297
0.3695440292358398,0.2219209671020507,-0.0223468542098999,2023-10-21T15:10:47.644924Z,1697901047644,0.43163768032511624
0.330209732055664,0.191807746887207,-0.0118348598480224,2023-10-21T15:10:47.665101Z,1697901047665,0.3820585594092123
0.2863836288452148,0.1605463027954101,-0.003274343907833,2023-10-21T15:10:47.687111Z,1697901047687,0.3283312649441963
0.2403087615966797,0.1296358108520507,0.0030594766139984,2023-10-21T15:10:47.705694Z,1697901047705,0.27306245577257615
0.1940679550170898,0.1003975868225097,0.0070558488368988,2023-10-21T15:10:47.725958Z,1697901047725,0.21861342961288477
0.1481199264526367,0.073216438293457,0.0087438821792602,2023-10-21T15:10:47.746156Z,1697901047746,0.16545880128986457
0.0995292663574218,0.0468254089355468,0.0080230832099914,2023-10-21T15:10:47.766381Z,1697901047766,0.11028628041520962
0.0431241989135742,0.0192186832427978,0.0043659210205078,2023-10-21T15:10:47.786944Z,1697901047786,0.04741429725179761
-0.0241823196411132,-0.0101435184478759,-0.0029240846633911,2023-10-21T15:10:47.807053Z,1697901047807,0.026386091427986202
-0.1024446487426757,-0.0401027202606201,-0.0142813920974731,2023-10-21T15:10:47.827275Z,1697901047827,0.11093733541307688
-0.1897602081298828,-0.0686359405517578,-0.0296252965927124,2023-10-21T15:10:47.847566Z,1697901047847,0.20395462025442584
-0.2852745056152344,-0.0943005084991455,-0.048750877380371,2023-10-21T15:10:47.870271Z,1697901047870,0.30438590227303525
-0.3896389007568359,-0.1163091659545898,-0.0716491937637329,2023-10-21T15:10:47.888002Z,1697901047887,0.41289211912440354
-0.502842903137207,-0.133699893951416,-0.0982500314712524,2023-10-21T15:10:47.908300Z,1697901047908,0.5295089381324706
-0.6210184097290039,-0.14471435546875,-0.1277185678482055,2023-10-21T15:10:47.928522Z,1697901047928,0.6503215685138187
-0.7367095947265625,-0.147455096244812,-0.1582599878311157,2023-10-21T15:10:47.948757Z,1697901047948,0.7678087366779878
-0.8402185440063477,-0.1408188343048095,-0.1872116327285766,2023-10-21T15:10:47.970064Z,1697901047970,0.8722644904018572
-0.9233684539794922,-0.1254948377609253,-0.2118729352951049,2023-10-21T15:10:47.989388Z,1697901047989,0.9556403072389121
-0.9819869995117188,-0.1039190888404846,-0.2307116985321045,2023-10-21T15:10:48.009644Z,1697901048009,1.0140638698203548
-1.016069412231445,-0.0794024467468261,-0.2436935901641845,2023-10-21T15:10:48.029860Z,1697901048029,1.0478971156124282
-1.0275678634643557,-0.0548921227455139,-0.251528263092041,2023-10-21T15:10:48.053360Z,1697901048053,1.0593277709464188
-1.0188512802124023,-0.0326007008552551,-0.2546384334564209,2023-10-21T15:10:48.070627Z,1697901048070,1.0506957069864924
-0.9933061599731444,-0.0139962434768676,-0.2533090114593506,2023-10-21T15:10:48.090672Z,1697901048090,1.0251919223045853
-0.9566287994384766,0.00025129481218755245,-0.2485454082489013,2023-10-21T15:10:48.110978Z,1697901048110,0.9883893681266491
-0.915968894958496,0.0102696418762207,-0.2420177459716797,2023-10-21T15:10:48.131237Z,1697901048131,0.9474582161979316
-0.8778266906738281,0.0165905654430389,-0.2354767322540283,2023-10-21T15:10:48.152871Z,1697901048152,0.9090127816230748
-0.84796142578125,0.019825741648674,-0.2304158210754394,2023-10-21T15:10:48.171695Z,1697901048171,0.8789329270466315
-0.8307056427001953,0.0204558819532394,-0.2280583381652832,2023-10-21T15:10:48.192002Z,1697901048191,0.8616849270627519
-0.829991340637207,0.0187271535396575,-0.2295148372650146,2023-10-21T15:10:48.212197Z,1697901048212,0.8613439454348258
-0.8474740982055664,0.0146040320396423,-0.2353060245513916,2023-10-21T15:10:48.232513Z,1697901048232,0.8796559270938457
-0.883275032043457,0.0076508745551109,-0.2453601360321045,2023-10-21T15:10:48.253223Z,1697901048253,0.9167523735810673
-0.9347314834594728,-0.0029819887131452,-0.2587013244628906,2023-10-21T15:10:48.273077Z,1697901048273,0.9698753598818178
-0.9980535507202148,-0.0184163153171539,-0.2737617492675781,2023-10-21T15:10:48.293381Z,1697901048293,1.0350823861592533
-1.0682830810546875,-0.0397768318653106,-0.2884352207183838,2023-10-21T15:10:48.313558Z,1697901048313,1.1072514683538695
-1.1424798965454102,-0.0680025815963745,-0.3010926246643066,2023-10-21T15:10:48.336539Z,1697901048336,1.1834447320181132
-1.2199678421020508,-0.1041563153266906,-0.31060791015625,2023-10-21T15:10:48.355891Z,1697901048355,1.2631893554163605
-1.2998065948486328,-0.1495016813278198,-0.3157902956008911,2023-10-21T15:10:48.374367Z,1697901048374,1.3459463018737192
-1.3783960342407229,-0.2050548791885376,-0.3145623207092285,2023-10-21T15:10:48.394610Z,1697901048394,1.4286261177437412
-1.449571132659912,-0.2707434892654419,-0.3041566610336303,2023-10-21T15:10:48.414817Z,1697901048414,1.5056791756784358
-1.5073928833007812,-0.3451802730560303,-0.2820641994476318,2023-10-21T15:10:48.436224Z,1697901048436,1.5719233245113808
-1.5443544387817385,-0.4253263473510742,-0.2461185455322265,2023-10-21T15:10:48.455598Z,1697901048455,1.6206503240337702
-1.5516738891601562,-0.5062904357910156,-0.1953824162483215,2023-10-21T15:10:48.475703Z,1697901048475,1.6438358045297268
-1.5173397064208984,-0.5796225070953369,-0.1309221982955932,2023-10-21T15:10:48.496106Z,1697901048496,1.6295467644162571
-1.430333137512207,-0.6335098743438721,-0.0573704242706298,2023-10-21T15:10:48.516272Z,1697901048516,1.565400591138797
-1.2836079597473145,-0.6535098552703857,0.0162193700671196,2023-10-21T15:10:48.536440Z,1697901048536,1.4404817226287732
-1.0760383605957031,-0.6242508888244629,0.0771183967590332,2023-10-21T15:10:48.556901Z,1697901048556,1.2463927843141198
-0.8135404586791992,-0.5327868461608887,0.1110832691192627,2023-10-21T15:10:48.577145Z,1697901048577,0.97879997651627
-0.5075569152832031,-0.3716182708740234,0.104831576347351,2023-10-21T15:10:48.597230Z,1697901048597,0.6377333462338866
-0.1723799705505371,-0.1397562026977539,0.0483448505401611,2023-10-21T15:10:48.619324Z,1697901048619,0.22712083791068188
0.1777987480163574,0.1581134796142578,-0.0633950233459472,2023-10-21T15:10:48.637772Z,1697901048637,0.24623402733364386
0.5303821563720703,0.5122818946838379,-0.2295999526977539,2023-10-21T15:10:48.658077Z,1697901048658,0.7723044151741986
0.875640869140625,0.9092841148376464,-0.4447839260101318,2023-10-21T15:10:48.678246Z,1697901048678,1.3384234285316503
1.206702709197998,1.333815574645996,-0.7008004188537598,2023-10-21T15:10:48.698518Z,1697901048698,1.930366970972002
1.5202016830444336,1.772374153137207,-0.9912350177764891,2023-10-21T15:10:48.719263Z,1697901048719,2.536704585935524
1.8117423057556152,2.2153024673461914,-1.3104848861694336,2023-10-21T15:10:48.739108Z,1697901048739,3.147593658840561
2.073009490966797,2.64797592163086,-1.6441893577575684,2023-10-21T15:10:48.759416Z,1697901048759,3.743327861053379
2.306936264038086,3.060667037963867,-1.9805927276611328,2023-10-21T15:10:48.779578Z,1697901048779,4.314207365956889
2.5182690620422363,3.4408345222473145,-2.302168369293213,2023-10-21T15:10:48.802620Z,1697901048802,4.845719810193544
2.7197985649108887,3.7870359420776367,-2.609025001525879,2023-10-21T15:10:48.820165Z,1697901048820,5.3428416520486826
2.910808086395264,4.099725723266602,-2.900735855102539,2023-10-21T15:10:48.840630Z,1697901048840,5.804724215922353
3.0807127952575684,4.372651100158691,-3.1695570945739746,2023-10-21T15:10:48.860735Z,1697901048860,6.217472247332266
3.2247605323791504,4.599286079406738,-3.408442497253418,2023-10-21T15:10:48.880913Z,1697901048880,6.570387598041533
3.3421263694763184,4.773931503295898,-3.610254287719727,2023-10-21T15:10:48.902899Z,1697901048902,6.855229149321609
3.430922031402588,4.889427185058594,-3.7609243392944336,2023-10-21T15:10:48.921479Z,1697901048921,7.058489645062245
3.4942283630371094,4.935925483703613,-3.8481812477111816,2023-10-21T15:10:48.941754Z,1697901048941,7.168088388752174
3.5370893478393555,4.914276123046875,-3.87615966796875,2023-10-21T15:10:48.962004Z,1697901048961,7.189278450563371
3.5509328842163086,4.825725555419922,-3.846448421478272,2023-10-21T15:10:48.982157Z,1697901048982,7.119825625921912
3.524801254272461,4.67572546005249,-3.769268035888672,2023-10-21T15:10:49.002507Z,1697901049002,6.963764354591261
3.4415268898010254,4.460418701171875,-3.634650230407715,2023-10-21T15:10:49.022823Z,1697901049022,6.70448541055838
3.299163818359375,4.174469470977783,-3.436905860900879,2023-10-21T15:10:49.043040Z,1697901049043,6.334271794073251
3.1053953170776367,3.822023391723633,-3.1804018020629883,2023-10-21T15:10:49.063300Z,1697901049063,5.8622775868066705
2.8620619773864746,3.41040563583374,-2.8686537742614746,2023-10-21T15:10:49.085704Z,1697901049085,5.296360999772628
2.569441795349121,2.948328018188477,-2.506617546081543,2023-10-21T15:10:49.103834Z,1697901049103,4.6451911440591935
2.230070114135742,2.4481639862060547,-2.1047964096069336,2023-10-21T15:10:49.124119Z,1697901049124,3.9238867903154344
1.844592571258545,1.9240522384643557,-1.6748719215393066,2023-10-21T15:10:49.144420Z,1697901049144,3.1479667602823693
1.410391330718994,1.3884897232055664,-1.2255773544311523,2023-10-21T15:10:49.164600Z,1697901049164,2.3279061984773413
0.9256839752197266,0.8539514541625977,-0.7652244567871094,2023-10-21T15:10:49.185520Z,1697901049185,1.4736663045988863
0.3892245292663574,0.3333096504211426,-0.3031129837036133,2023-10-21T15:10:49.205177Z,1697901049205,0.5953726044555533
-0.2002367973327636,-0.1569428443908691,0.144355297088623,2023-10-21T15:10:49.225476Z,1697901049225,0.2925137316590854
-0.8422679901123047,-0.5900750160217285,0.5458602905273438,2023-10-21T15:10:49.245707Z,1697901049245,1.164288344215238
-1.5265159606933594,-0.9254577159881592,0.8564207553863525,2023-10-21T15:10:49.269360Z,1697901049269,1.9799443104769692
-2.241090774536133,-1.1322457790374756,1.0399501323699951,2023-10-21T15:10:49.286298Z,1697901049286,2.717713127185339
-2.958078384399414,-1.1903963088989258,1.0757839679718018,2023-10-21T15:10:49.306494Z,1697901049306,3.3652016650174756
-3.654282093048096,-1.0972801446914673,0.9457277059555054,2023-10-21T15:10:49.326726Z,1697901049326,3.9309289265157115
-4.264738082885742,-0.8355324268341064,0.6222109198570251,2023-10-21T15:10:49.346989Z,1697901049346,4.390131180351741
-4.675213813781738,-0.4130154848098755,0.1178222894668579,2023-10-21T15:10:49.369374Z,1697901049369,4.694900221214881
-4.79736852645874,0.0942223593592643,-0.480396419763565,2023-10-21T15:10:49.387561Z,1697901049387,4.82228196518845
-4.63301944732666,0.5749882459640503,-1.0428752899169922,2023-10-21T15:10:49.407833Z,1697901049407,4.78362514758664
-4.275961875915527,0.9474891424179076,-1.4689019918441772,2023-10-21T15:10:49.428036Z,1697901049428,4.619443548840774
-3.854672431945801,1.190079927444458,-1.7420964241027832,2023-10-21T15:10:49.448220Z,1697901049448,4.394279206215835
-3.441873073577881,1.3271440267562866,-1.9047117233276367,2023-10-21T15:10:49.468869Z,1697901049468,4.151593461715281
-3.05833101272583,1.3843915462493896,-1.982389211654663,2023-10-21T15:10:49.488863Z,1697901049488,3.8986915142406655
-2.6964821815490723,1.374072551727295,-1.9873688220977783,2023-10-21T15:10:49.509111Z,1697901049509,3.620597515309913
-2.365772247314453,1.311274528503418,-1.920629978179932,2023-10-21T15:10:49.529391Z,1697901049529,3.3173993923476544
-2.079281806945801,1.217012882232666,-1.8090429306030276,2023-10-21T15:10:49.552227Z,1697901049552,3.0128341330018227
-1.8377695083618164,1.110896348953247,-1.6809182167053225,2023-10-21T15:10:49.569890Z,1697901049569,2.727081501391898
-1.6358542442321775,1.0038893222808838,-1.5492181777954102,2023-10-21T15:10:49.590184Z,1697901049590,2.466554244725571
-1.4683022499084473,0.902155876159668,-1.4213252067565918,2023-10-21T15:10:49.610451Z,1697901049610,2.2338222994090855
-1.3294577598571775,0.8086693286895752,-1.3022642135620115,2023-10-21T15:10:49.630684Z,1697901049630,2.0291121458243744
-1.2124686241149902,0.723048210144043,-1.1914429664611816,2023-10-21T15:10:49.652303Z,1697901049652,1.847272373253501
-1.1132192611694336,0.6445038318634033,-1.0871734619140625,2023-10-21T15:10:49.671281Z,1697901049671,1.6842174589450845
-1.0299010276794434,0.5729942321777344,-0.9899678230285645,2023-10-21T15:10:49.691596Z,1697901049691,1.5391734169858964
-0.9668865203857422,0.5116417407989502,-0.9055013656616212,2023-10-21T15:10:49.711692Z,1697901049711,1.4200632160036006
-0.9277758598327636,0.4622819423675537,-0.8392081260681152,2023-10-21T15:10:49.731959Z,1697901049731,1.3336952122528969
-0.9144687652587892,0.4253828525543213,-0.7933521270751953,2023-10-21T15:10:49.752495Z,1697901049752,1.2832035268872677
-0.9254484176635742,0.3986735343933105,-0.7647905349731445,2023-10-21T15:10:49.772564Z,1697901049772,1.2650296135530488
-0.9569535255432128,0.3784897327423095,-0.7472753524780273,2023-10-21T15:10:49.792832Z,1697901049792,1.2717841720441756
-1.0038824081420898,0.3606011867523193,-0.7331342697143555,2023-10-21T15:10:49.813133Z,1697901049813,1.2943334047663082
-1.0615434646606443,0.3416104316711426,-0.7161846160888672,2023-10-21T15:10:49.835509Z,1697901049835,1.32532736284762
-1.1263341903686523,0.3191746473312378,-0.6928224563598633,2023-10-21T15:10:49.853579Z,1697901049853,1.3603323564221144
-1.193108081817627,0.2911127805709839,-0.6598117351531982,2023-10-21T15:10:49.873891Z,1697901049873,1.394132372393734
-1.2542033195495603,0.2557078599929809,-0.6134045124053955,2023-10-21T15:10:49.894124Z,1697901049894,1.4193933817904842
-1.297919750213623,0.2120890617370605,-0.5508260726928711,2023-10-21T15:10:49.914345Z,1697901049914,1.425828464599214
-1.3137030601501465,0.1616547107696533,-0.4721965789794922,2023-10-21T15:10:49.935414Z,1697901049935,1.4053176099949134
-1.2922773361206057,0.1072161197662353,-0.3811361789703369,2023-10-21T15:10:49.954908Z,1697901049954,1.3515697528092308
-1.227503776550293,0.0531508922576904,-0.2843697071075439,2023-10-21T15:10:49.975211Z,1697901049975,1.2611330893737784
-1.1164016723632812,0.0048253014683723,-0.1902012825012207,2023-10-21T15:10:49.995481Z,1697901049995,1.132498346777999
-0.960895538330078,-0.0322412848472595,-0.1074384450912475,2023-10-21T15:10:50.018716Z,1697901050018,0.9674206714324837
-0.7659950256347656,-0.053548514842987,-0.043168306350708,2023-10-21T15:10:50.035927Z,1697901050035,0.769076930750288
-0.5386991500854492,-0.056183636188507,-0.002237319946289,2023-10-21T15:10:50.056220Z,1697901050056,0.5416256833632337
-0.289712905883789,-0.0394848585128784,0.012893259525299,2023-10-21T15:10:50.076467Z,1697901050076,0.2926753457819738
-0.0315351486206054,-0.0052242279052734,0.0028167366981506,2023-10-21T15:10:50.096708Z,1697901050096,0.03208881676467078
0.2252740859985351,0.0433437824249267,-0.0293383598327636,2023-10-21T15:10:50.118633Z,1697901050118,0.23127437526680616
0.4748878479003906,0.1028761863708496,-0.0795209407806396,2023-10-21T15:10:50.137262Z,1697901050137,0.4923672997146666
0.7142915725708008,0.1703734397888183,-0.1439142227172851,2023-10-21T15:10:50.157558Z,1697901050157,0.7482986456833007
0.9402637481689452,0.2428500652313232,-0.2187938690185547,2023-10-21T15:10:50.177754Z,1697901050177,0.9954611129640776
1.1488056182861328,0.3172008991241455,-0.3001172542572021,2023-10-21T15:10:50.197980Z,1697901050197,1.22900005098203
1.337174415588379,0.3906645774841308,-0.3839890956878662,2023-10-21T15:10:50.218480Z,1697901050218,1.4450265933235147
1.5050048828125,0.4613795280456543,-0.4674844741821289,2023-10-21T15:10:50.238604Z,1697901050238,1.642087847768943
1.6535234451293943,0.5286951065063477,-0.5489768981933594,2023-10-21T15:10:50.258849Z,1697901050258,1.8207234644465757
1.783613204956055,0.5924654006958008,-0.6273303031921387,2023-10-21T15:10:50.279056Z,1697901050279,1.9813719048221075
1.894637107849121,0.6522760391235352,-0.7007730007171631,2023-10-21T15:10:50.301899Z,1697901050301,2.122780393773154
1.9847869873046875,0.7073447704315186,-0.7670040130615234,2023-10-21T15:10:50.319636Z,1697901050319,2.2423227165783515
2.051144599914551,0.7563626766204834,-0.8233106136322021,2023-10-21T15:10:50.339946Z,1697901050339,2.336047738138619
2.090115547180176,0.7974386215209961,-0.866680383682251,2023-10-21T15:10:50.360139Z,1697901050360,2.399088627607827
2.096134185791016,0.8273940086364746,-0.8929448127746582,2023-10-21T15:10:50.380380Z,1697901050380,2.423986346708758
2.064175605773926,0.8429760932922363,-0.8982582092285156,2023-10-21T15:10:50.401735Z,1697901050401,2.403808943277484
1.992781639099121,0.8422718048095703,-0.8809659481048584,2023-10-21T15:10:50.420987Z,1697901050420,2.335958359223906
1.8849735260009768,0.8251948356628418,-0.84230637550354,2023-10-21T15:10:50.441243Z,1697901050441,2.2234099353792343
1.746861457824707,0.7928848266601562,-0.7856748104095459,2023-10-21T15:10:50.461446Z,1697901050461,2.073035505941334
1.5860233306884766,0.747699499130249,-0.7157273292541504,2023-10-21T15:10:50.485127Z,1697901050485,1.8938822973799276
1.4092178344726562,0.692286491394043,-0.6371018886566162,2023-10-21T15:10:50.502194Z,1697901050502,1.6944185751142793
1.2227544784545898,0.6288771629333496,-0.5537104606628418,2023-10-21T15:10:50.522297Z,1697901050522,1.4822989829610325
1.0338029861450195,0.5595054626464844,-0.4690525531768799,2023-10-21T15:10:50.542552Z,1697901050542,1.265624460310153
0.8507852554321289,0.4869132041931152,-0.3870224952697754,2023-10-21T15:10:50.562776Z,1697901050562,1.0539005793352438
