ACC_X,ACC_Y,ACC_Z,DATE,UNIX_TIMESTAMP,norm
0.2812910079956054,0.2101950645446777,-0.0462483167648315,2023-10-21T15:34:34.231009Z,1697902474230,0.35418286680993644
0.2806520462036133,0.2061281204223632,-0.0445132255554199,2023-10-21T15:34:34.251083Z,1697902474251,0.35104956960019057
0.288093090057373,0.2080025672912597,-0.0440889596939086,2023-10-21T15:34:34.271364Z,1697902474271,0.3580593985715942
0.297971248626709,0.211801528930664,-0.0443024635314941,2023-10-21T15:34:34.291631Z,1697902474291,0.36825189876019143
0.3077044486999511,0.2157907485961914,-0.0449599027633667,2023-10-21T15:34:34.313737Z,1697902474313,0.3785090062150925
0.3161740303039551,0.2191572189331054,-0.0460731983184814,2023-10-21T15:34:34.332108Z,1697902474332,0.38745147264197294
0.3212966918945312,0.2204680442810058,-0.0474747419357299,2023-10-21T15:34:34.352421Z,1697902474352,0.3925449960110624
0.3180732727050781,0.2165088653564453,-0.0485367774963378,2023-10-21T15:34:34.372649Z,1697902474372,0.3878176302812746
0.2995805740356445,0.2028646469116211,-0.0480676889419555,2023-10-21T15:34:34.392865Z,1697902474392,0.3649836818630712
0.2596664428710937,0.175480842590332,-0.0445171594619751,2023-10-21T15:34:34.413523Z,1697902474413,0.3165469398937585
0.1977577209472656,0.1337499618530273,-0.0366990566253662,2023-10-21T15:34:34.433435Z,1697902474433,0.24154500459983572
0.1206316947937011,0.0817980766296386,-0.0244314670562744,2023-10-21T15:34:34.453757Z,1697902474453,0.14778304270663364
0.0400457382202148,0.0272307395935058,-0.0088629722595214,2023-10-21T15:34:34.473991Z,1697902474473,0.049231357950846155
-0.0336594581604003,-0.0229277610778808,0.0080980062484741,2023-10-21T15:34:34.496901Z,1697902474496,0.04152371680011858
-0.0958914756774902,-0.065347671508789,0.0248780250549316,2023-10-21T15:34:34.514722Z,1697902474514,0.11867775448609184
-0.1472744941711425,-0.1004252433776855,0.0408480167388916,2023-10-21T15:34:34.534788Z,1697902474534,0.18287582293002544
-0.1878995895385742,-0.1283931732177734,0.055253267288208,2023-10-21T15:34:34.555091Z,1697902474555,0.23418792928696386
-0.214937686920166,-0.1474123001098632,0.0664362907409668,2023-10-21T15:34:34.575355Z,1697902474575,0.26896538106174545
-0.2230629920959472,-0.1536893844604492,0.0718216896057128,2023-10-21T15:34:34.597222Z,1697902474597,0.28024253859192705
-0.2081966400146484,-0.1441502571105957,0.0691802501678466,2023-10-21T15:34:34.615843Z,1697902474615,0.2625091323206219
-0.1705894470214843,-0.1187543869018554,0.0579853057861328,2023-10-21T15:34:34.636130Z,1697902474636,0.21579077721404752
-0.5910253524780273,-0.0825732350349426,0.5271897315979004,2023-10-21T15:34:41.142417Z,1697902481142,0.7962777904212691
-0.6114792823791504,-0.0954446792602539,0.5278224945068359,2023-10-21T15:34:41.160956Z,1697902481160,0.8133960814298482
-0.6051163673400879,-0.1048494577407836,0.5008401870727539,2023-10-21T15:34:41.181260Z,1697902481181,0.7924645858323712
-0.5758390426635742,-0.1100330352783203,0.4552788734436035,2023-10-21T15:34:41.201478Z,1697902481201,0.7422780641460035
-0.5343112945556641,-0.1126422882080078,0.4050827026367187,2023-10-21T15:34:41.221694Z,1697902481221,0.6799035523939801
-0.490300178527832,-0.1150592565536499,0.3586306571960449,2023-10-21T15:34:41.242002Z,1697902481241,0.6182627644165299
-0.4492578506469726,-0.118499755859375,0.3182611465454101,2023-10-21T15:34:41.262337Z,1697902481262,0.5631740103263537
-0.4120364189147949,-0.1228313446044921,0.2831611633300781,2023-10-21T15:34:41.282579Z,1697902481282,0.5148220995139186
-0.3813662528991699,-0.1288871765136718,0.2545056343078613,2023-10-21T15:34:41.302839Z,1697902481302,0.47626173582859543
-0.3563499450683594,-0.1367385387420654,0.2309637069702148,2023-10-21T15:34:41.325519Z,1697902481325,0.44612436076161693
-0.3282980918884277,-0.1428515911102295,0.2063651084899902,2023-10-21T15:34:41.343312Z,1697902481343,0.4132466239697454
-0.2872309684753418,-0.1411499977111816,0.1748533248901367,2023-10-21T15:34:41.363633Z,1697902481363,0.3646897809512697
-0.2330770492553711,-0.1284866333007812,0.1374320983886718,2023-10-21T15:34:41.383896Z,1697902481383,0.29953515235122846
-0.1700301170349121,-0.1042757034301757,0.0973200798034668,2023-10-21T15:34:41.404084Z,1697902481404,0.22193436182285295
-0.0987682342529296,-0.0667438507080078,0.0550198554992675,2023-10-21T15:34:41.425397Z,1697902481425,0.1312900994132257
-0.0141797065734863,-0.0104351043701171,0.0076847076416015,2023-10-21T15:34:41.444713Z,1697902481444,0.01920963855105806
0.0866780281066894,0.0684113502502441,-0.0455298423767089,2023-10-21T15:34:41.465021Z,1697902481464,0.1194410312512981
0.1965336799621582,0.1635403633117675,-0.0997188091278076,2023-10-21T15:34:41.485196Z,1697902481485,0.27443538162103126
0.3011484146118164,0.2602419853210449,-0.1480269432067871,2023-10-21T15:34:41.505433Z,1697902481505,0.4246507205483052
0.3862242698669433,0.3431501388549804,-0.1863050460815429,2023-10-21T15:34:41.525696Z,1697902481525,0.5492092266394398
0.4476995468139648,0.4065713882446289,-0.2151656150817871,2023-10-21T15:34:41.545996Z,1697902481545,0.6418967361422848
0.4884138107299804,0.4507827758789062,-0.2358388900756836,2023-10-21T15:34:41.566323Z,1697902481566,0.7052468671415731
0.5163049697875977,0.4807109832763672,-0.2507393360137939,2023-10-21T15:34:41.586514Z,1697902481586,0.7486815650826072
0.5340385437011719,0.4983429908752441,-0.2603378295898437,2023-10-21T15:34:41.608663Z,1697902481608,0.7754474116460139
0.5403399467468262,0.5034279823303223,-0.2640104293823242,2023-10-21T15:34:41.627041Z,1697902481627,0.7842885299850951
0.5294084548950195,0.4921951293945312,-0.2597649097442627,2023-10-21T15:34:41.647369Z,1697902481647,0.7681192393427444
0.4988408088684082,0.4639534950256347,-0.2469410896301269,2023-10-21T15:34:41.667649Z,1697902481667,0.7246205212983577
0.4559464454650879,0.4255008697509765,-0.22835373878479,2023-10-21T15:34:41.687798Z,1697902481687,0.6641412359642171
0.4146623611450195,0.3887605667114258,-0.2095310688018798,2023-10-21T15:34:41.709195Z,1697902481709,0.6057911527691779
0.3864879608154297,0.363138198852539,-0.1950712203979492,2023-10-21T15:34:41.728356Z,1697902481728,0.5650620110648747
0.3691296577453613,0.3460187911987304,-0.1842634677886963,2023-10-21T15:34:41.748688Z,1697902481748,0.5384595933320847
0.3549857139587402,0.330873966217041,-0.1745903491973877,2023-10-21T15:34:41.768842Z,1697902481768,0.5157268934890422
0.3404188156127929,0.3151993751525879,-0.1651527881622314,2023-10-21T15:34:41.791888Z,1697902481791,0.4924541192411303
0.329596996307373,0.3030309677124023,-0.1581289768218994,2023-10-21T15:34:41.809395Z,1697902481809,0.4748333609576082
0.3244900703430176,0.2960953712463379,-0.1543447971343994,2023-10-21T15:34:41.829733Z,1697902481829,0.46560561747812074
0.3226075172424316,0.2920784950256347,-0.1526076793670654,2023-10-21T15:34:41.849933Z,1697902481849,0.46116652224502
0.3185553550720215,0.2862391471862793,-0.1504497528076172,2023-10-21T15:34:41.870180Z,1697902481870,0.4539223410968701
0.307931900024414,0.2748851776123047,-0.1458683013916015,2023-10-21T15:34:41.891785Z,1697902481891,0.43779159114179556
0.2873597145080566,0.2551345825195312,-0.1371004581451416,2023-10-21T15:34:41.910737Z,1697902481910,0.40800220139501087
0.255950927734375,0.2261633872985839,-0.1233670711517334,2023-10-21T15:34:41.931036Z,1697902481930,0.3631531211582979
0.2172727584838867,0.1910614967346191,-0.1059932708740234,2023-10-21T15:34:41.951312Z,1697902481951,0.3081339328672587
0.1771721839904785,0.1549892425537109,-0.0875754356384277,2023-10-21T15:34:41.971424Z,1697902481971,0.25115952105104317
0.1396365165710449,0.1214566230773925,-0.070016860961914,2023-10-21T15:34:41.991774Z,1697902481991,0.1978697270135568
0.1062812805175781,0.0918540954589843,-0.0541393756866455,2023-10-21T15:34:42.012083Z,1697902482012,0.15054553278255742
0.0790023803710937,0.0677785873413086,-0.0409419536590576,2023-10-21T15:34:42.032347Z,1697902482032,0.11185506951275292
0.0590653419494628,0.0502619743347168,-0.0311915874481201,2023-10-21T15:34:42.052536Z,1697902482052,0.0835936349919324
0.0467557907104492,0.0394668579101562,-0.0252096652984619,2023-10-21T15:34:42.075026Z,1697902482074,0.06617600821083318
0.0419197082519531,0.03513765335083,-0.0231263637542724,2023-10-21T15:34:42.093092Z,1697902482093,0.059386406891029225
0.0454401969909668,0.0378942489624023,-0.0257136821746826,2023-10-21T15:34:42.113411Z,1697902482113,0.06451340215786938
0.0585708618164062,0.048708438873291,-0.0340743064880371,2023-10-21T15:34:42.133660Z,1697902482133,0.08345128060150044
0.0820794105529785,0.0682191848754882,-0.0491633415222168,2023-10-21T15:34:42.153818Z,1697902482153,0.11750711030159222
0.114351749420166,0.0951995849609375,-0.0705728530883789,2023-10-21T15:34:42.174986Z,1697902482174,0.16468093746764106
0.1506667137145996,0.1259617805480957,-0.0958418846130371,2023-10-21T15:34:42.194462Z,1697902482194,0.21852344411202762
0.1844282150268554,0.1552705764770507,-0.1209216117858886,2023-10-21T15:34:42.214736Z,1697902482214,0.26971235532397253
0.2120094299316406,0.1801319122314453,-0.1431550979614257,2023-10-21T15:34:42.234933Z,1697902482234,0.3128719965999541
0.2351894378662109,0.2018275260925293,-0.1631937026977539,2023-10-21T15:34:42.258230Z,1697902482258,0.3502579143612001
0.2585840225219726,0.2239956855773925,-0.1837329864501953,2023-10-21T15:34:42.275459Z,1697902482275,0.38832663335243667
0.2841053009033203,0.2481040954589843,-0.2058925628662109,2023-10-21T15:34:42.295778Z,1697902482295,0.4297245764771938
0.3093962669372558,0.2720227241516113,-0.2278509140014648,2023-10-21T15:34:42.315981Z,1697902482315,0.4707849312168733
1.563612461090088,1.7816648483276367,-0.5699620246887207,2023-10-21T15:34:45.578547Z,1697902485578,2.4380464043635035
1.430437088012695,1.6742630004882812,-0.5234484672546387,2023-10-21T15:34:45.598668Z,1697902485598,2.2634719250385
1.29433012008667,1.5514516830444336,-0.4744751453399658,2023-10-21T15:34:45.618864Z,1697902485618,2.0754323520968736
1.1572742462158203,1.4179573059082031,-0.4259641170501709,2023-10-21T15:34:45.639234Z,1697902485639,1.879183873746041
1.0245442390441897,1.2794809341430664,-0.3808364868164062,2023-10-21T15:34:45.659546Z,1697902485659,1.6827949335212875
0.8958725929260254,1.1373157501220703,-0.3400688171386719,2023-10-21T15:34:45.679798Z,1697902485679,1.487185805009523
0.770176887512207,0.9926471710205078,-0.3034262657165527,2023-10-21T15:34:45.700013Z,1697902485699,1.2925124149963512
0.6480164527893066,0.8476996421813965,-0.2694416046142578,2023-10-21T15:34:45.722213Z,1697902485722,1.1005084210205796
0.5342564582824707,0.708704948425293,-0.2368321418762207,2023-10-21T15:34:45.740551Z,1697902485740,0.9185761430413403
0.4331231117248535,0.5811223983764648,-0.2051990032196045,2023-10-21T15:34:45.760882Z,1697902485760,0.7532632360120557
0.3469986915588379,0.469123363494873,-0.1752519607543945,2023-10-21T15:34:45.781083Z,1697902485781,0.6092602661166638
0.2771410942077636,0.3761510848999023,-0.148339033126831,2023-10-21T15:34:45.801415Z,1697902485801,0.490205358517278
0.2236528396606445,0.3037328720092773,-0.1258425712585449,2023-10-21T15:34:45.822372Z,1697902485822,0.39763123992995814
0.1833639144897461,0.2483940124511718,-0.1074740886688232,2023-10-21T15:34:45.841872Z,1697902485841,0.3269137352479854
0.1527881622314453,0.2057743072509765,-0.0923056602478027,2023-10-21T15:34:45.862205Z,1697902485862,0.27241076145494786
0.1311235427856445,0.1747512817382812,-0.0806050300598144,2023-10-21T15:34:45.882385Z,1697902485882,0.2328702746440053
0.1177077293395996,0.1544394493103027,-0.0726773738861084,2023-10-21T15:34:45.905686Z,1697902485905,0.20733705342879546
0.1130456924438476,0.1452999114990234,-0.0693027973175048,2023-10-21T15:34:45.922922Z,1697902485922,0.19670859304505273
0.1162714958190918,0.1459197998046875,-0.0702917575836181,2023-10-21T15:34:45.943249Z,1697902485943,0.19938049026733606
0.1252927780151367,0.1534008979797363,-0.0745794773101806,2023-10-21T15:34:45.963525Z,1697902485963,0.21164171176684318
0.1366043090820312,0.1633543968200683,-0.0802538394927978,2023-10-21T15:34:45.983781Z,1697902485983,0.2275655399518196
0.1466627120971679,0.1717405319213867,-0.0855541229248046,2023-10-21T15:34:46.005638Z,1697902486005,0.24150418086188524
0.1533446311950683,0.1763935089111328,-0.0894942283630371,2023-10-21T15:34:46.024262Z,1697902486024,0.2502767724193135
0.1572098731994629,0.1782150268554687,-0.0924558639526367,2023-10-21T15:34:46.044548Z,1697902486044,0.2549973074518927
0.1593255996704101,0.1785273551940918,-0.0949554443359375,2023-10-21T15:34:46.064769Z,1697902486064,0.25743581660671955
0.1593828201293945,0.1770319938659668,-0.0966494083404541,2023-10-21T15:34:46.084965Z,1697902486084,0.25706870353490807
0.1570205688476562,0.1733260154724121,-0.0970933437347412,2023-10-21T15:34:46.105530Z,1697902486105,0.2532281265546483
0.1524171829223632,0.1675243377685547,-0.0961663722991943,2023-10-21T15:34:46.125593Z,1697902486125,0.24605562898655492
0.1461381912231445,0.1601495742797851,-0.0940182209014892,2023-10-21T15:34:46.145868Z,1697902486145,0.23631268044150736
0.1395416259765625,0.1525816917419433,-0.0913496017456054,2023-10-21T15:34:46.166082Z,1697902486166,0.22604819790057382
0.1341161727905273,0.1463198661804199,-0.0889835357666015,2023-10-21T15:34:46.188765Z,1697902486188,0.21751947195724938
0.1308932304382324,0.142399787902832,-0.0875258445739746,2023-10-21T15:34:46.206626Z,1697902486206,0.21230052010702968
0.1296472549438476,0.1405348777770996,-0.0868330001831054,2023-10-21T15:34:46.226940Z,1697902486226,0.2099962678408798
0.1301393508911132,0.1404676437377929,-0.0868191719055175,2023-10-21T15:34:46.247162Z,1697902486247,0.21024979951944686
0.1328287124633789,0.1427030563354492,-0.0879077911376953,2023-10-21T15:34:46.267358Z,1697902486267,0.21385838511703495
0.1382813453674316,0.147860050201416,-0.090583324432373,2023-10-21T15:34:46.288641Z,1697902486288,0.2217874288308801
0.1463017463684082,0.1557426452636718,-0.0948016643524169,2023-10-21T15:34:46.307994Z,1697902486307,0.23376767977665402
0.1555991172790527,0.1650285720825195,-0.0997731685638427,2023-10-21T15:34:46.328287Z,1697902486328,0.24779063756906697
0.1652846336364746,0.1748452186584472,-0.1049354076385498,2023-10-21T15:34:46.348455Z,1697902486348,0.2624905719837047
0.1744976043701172,0.1843338012695312,-0.1097011566162109,2023-10-21T15:34:46.372032Z,1697902486371,0.27651891071736734
0.1824097633361816,0.1926522254943847,-0.1134893894195556,2023-10-21T15:34:46.389097Z,1697902486389,0.2885620267102458
0.188206672668457,0.1989326477050781,-0.1157712936401367,2023-10-21T15:34:46.409293Z,1697902486409,0.2973195963790399
0.1919531822204589,0.2031755447387695,-0.1165821552276611,2023-10-21T15:34:46.429587Z,1697902486429,0.30284934383614387
0.1943955421447754,0.2060661315917968,-0.1164145469665527,2023-10-21T15:34:46.449751Z,1697902486449,0.3062763852150482
0.1962485313415527,0.2082467079162597,-0.1156761646270752,2023-10-21T15:34:46.471858Z,1697902486471,0.3086440546560173
0.1982827186584472,0.2104496955871582,-0.1147801876068115,2023-10-21T15:34:46.490340Z,1697902486490,0.3110942017434065
0.2012872695922851,0.2134861946105957,-0.1141021251678466,2023-10-21T15:34:46.510633Z,1697902486510,0.31482092553870894
0.2063345909118652,0.2185006141662597,-0.1141979694366455,2023-10-21T15:34:46.530862Z,1697902486530,0.3214928584296275
0.2139258384704589,0.226043701171875,-0.1152882575988769,2023-10-21T15:34:46.551035Z,1697902486551,0.33189064696817505
0.223886489868164,0.2359695434570312,-0.1172692775726318,2023-10-21T15:34:46.571649Z,1697902486571,0.34577285788102885
0.2357740402221679,0.2478690147399902,-0.1199386119842529,2023-10-21T15:34:46.591652Z,1697902486591,0.36251029937860674
0.2490863800048828,0.2612457275390625,-0.1230854988098144,2023-10-21T15:34:46.611996Z,1697902486611,0.38137041688968454
0.263711929321289,0.2760062217712402,-0.1267023086547851,2023-10-21T15:34:46.632171Z,1697902486632,0.40221498124913746
0.2794499397277832,0.2919774055480957,-0.1306908130645752,2023-10-21T15:34:46.654998Z,1697902486654,0.42476247807914785
0.2956194877624511,0.30853271484375,-0.1347730159759521,2023-10-21T15:34:46.672664Z,1697902486672,0.4480480816932966
0.310793399810791,0.3242940902709961,-0.1383957862854004,2023-10-21T15:34:46.692990Z,1697902486692,0.470013391311564
0.323251724243164,0.3374948501586914,-0.1409292221069336,2023-10-21T15:34:46.713215Z,1697902486713,0.4881142251087152
0.3314442634582519,0.3464860916137695,-0.1418526172637939,2023-10-21T15:34:46.733432Z,1697902486733,0.5000300755812164
0.3344564437866211,0.3502316474914551,-0.140916109085083,2023-10-21T15:34:46.755030Z,1697902486754,0.5043616455428099
0.3319649696350097,0.3483014106750488,-0.1380918025970459,2023-10-21T15:34:46.774100Z,1697902486774,0.5005836190762771
0.324650764465332,0.3412551879882812,-0.1337397098541259,2023-10-21T15:34:46.794309Z,1697902486794,0.4896320375432018
0.3135409355163574,0.3300657272338867,-0.1283190250396728,2023-10-21T15:34:46.814546Z,1697902486814,0.472987393834169
0.2997522354125976,0.3158502578735351,-0.1222977638244628,2023-10-21T15:34:46.834693Z,1697902486834,0.4522936336829118
0.2842211723327636,0.2995748519897461,-0.116032600402832,2023-10-21T15:34:46.855076Z,1697902486855,0.42894094127645604
0.2674756050109863,0.2818279266357422,-0.1097261905670166,2023-10-21T15:34:46.875348Z,1697902486875,0.4037449893238846
0.2500948905944824,0.2632408142089844,-0.1035764217376709,2023-10-21T15:34:46.895603Z,1697902486895,0.3775860904573353
0.2326984405517578,0.2444829940795898,-0.0977609157562255,2023-10-21T15:34:46.915862Z,1697902486915,0.3513939317615438
0.2160382270812988,0.2263822555541992,-0.0924799442291259,2023-10-21T15:34:46.938090Z,1697902486938,0.3263035109753798
0.2006402015686035,0.2095284461975097,-0.0878083705902099,2023-10-21T15:34:46.956371Z,1697902486956,0.30309894456619313
0.1868267059326172,0.1943025588989257,-0.0838115215301513,2023-10-21T15:34:46.976716Z,1697902486976,0.2822801331753656
0.1742305755615234,0.180361270904541,-0.0802695751190185,2023-10-21T15:34:46.996905Z,1697902486996,0.26330530984503275
0.1627359390258789,0.1675820350646972,-0.0770902633666992,2023-10-21T15:34:47.017155Z,1697902487017,0.2459870586697744
0.1523876190185547,0.1560249328613281,-0.074254035949707,2023-10-21T15:34:47.038147Z,1697902487038,0.2303897305856893
0.1432151794433593,0.1457738876342773,-0.0717699527740478,2023-10-21T15:34:47.057715Z,1697902487057,0.21659072016176859
0.1353039741516113,0.1369547843933105,-0.0696847438812255,2023-10-21T15:34:47.078065Z,1697902487077,0.20474311201901288
0.1287927627563476,0.1297516822814941,-0.0680913925170898,2023-10-21T15:34:47.098205Z,1697902487098,0.19508847359136067
0.1240630149841308,0.1245827674865722,-0.0672450065612793,2023-10-21T15:34:47.121477Z,1697902487121,0.1882402415770668
0.1213679313659668,0.1217303276062011,-0.0673654079437255,2023-10-21T15:34:47.138735Z,1697902487138,0.1846254197303059
0.1207327842712402,0.1212539672851562,-0.0685751438140869,2023-10-21T15:34:47.159084Z,1697902487159,0.18434066325528467
0.1217870712280273,0.1228065490722656,-0.0707435607910156,2023-10-21T15:34:47.179332Z,1697902487179,0.18686409662300432
