ACC_X,ACC_Y,ACC_Z,DATE,UNIX_TIMESTAMP,norm
0.3368692398071289,0.5161266326904297,-0.1368179321289062,2023-10-21T15:01:38.582506Z,1697900498582,0.6313372571396564
0.3590855598449707,0.5455207824707031,-0.133296251296997,2023-10-21T15:01:38.602831Z,1697900498602,0.6665607654268713
0.3804025650024414,0.5704555511474609,-0.1273198127746582,2023-10-21T15:01:38.623064Z,1697900498623,0.6973779334194365
0.4010815620422363,0.5912876129150391,-0.1192933320999145,2023-10-21T15:01:38.643281Z,1697900498643,0.7243744609526939
0.4214596748352051,0.6089463233947754,-0.1096396446228027,2023-10-21T15:01:38.664998Z,1697900498664,0.7486419263982118
0.4411869049072265,0.6234922409057617,-0.0985273122787475,2023-10-21T15:01:38.683857Z,1697900498683,0.7701273211594174
0.4599132537841797,0.6348624229431152,-0.0861637592315673,2023-10-21T15:01:38.704167Z,1697900498704,0.7886663999920814
0.4770593643188476,0.64251708984375,-0.0727269053459167,2023-10-21T15:01:38.724341Z,1697900498724,0.8035565011788396
0.4924750328063965,0.646331787109375,-0.0585131049156188,2023-10-21T15:01:38.744542Z,1697900498744,0.814677985717379
0.5061640739440918,0.6465473175048828,-0.043879210948944,2023-10-21T15:01:38.764999Z,1697900498764,0.8222839465038471
0.5176248550415039,0.6430501937866211,-0.0291293263435363,2023-10-21T15:01:38.785203Z,1697900498785,0.8260130507074189
0.527134895324707,0.636566162109375,-0.0146062523126602,2023-10-21T15:01:38.805476Z,1697900498805,0.8266202388148199
0.5350079536437988,0.627293586730957,-0.000501241534948349,2023-10-21T15:01:38.825694Z,1697900498825,0.8244580072138242
0.5411791801452637,0.6146717071533203,0.0130366533994674,2023-10-21T15:01:38.848505Z,1697900498848,0.8190642019581461
0.5452513694763184,0.5979194641113281,0.0258565247058868,2023-10-21T15:01:38.866200Z,1697900498866,0.8096142917147922
0.5464897155761719,0.5763611793518066,0.0378078818321228,2023-10-21T15:01:38.886507Z,1697900498886,0.7951557421178335
0.5439257621765137,0.5493927001953125,0.0487419366836547,2023-10-21T15:01:38.906739Z,1697900498906,0.7746375605267739
0.5375175476074219,0.5175938606262207,0.0582910180091857,2023-10-21T15:01:38.926917Z,1697900498926,0.7484827060957386
0.529111385345459,0.4833650588989258,0.0661132931709289,2023-10-21T15:01:38.948214Z,1697900498948,0.7197024425416785
0.5229578018188477,0.4508957862854004,0.0724697113037109,2023-10-21T15:01:38.967704Z,1697900498967,0.6942936926327171
0.5231618881225586,0.4234585762023926,0.0779453516006469,2023-10-21T15:01:38.987983Z,1697900498987,0.6775625467655857
0.5298466682434082,0.4004769325256347,0.0829718112945556,2023-10-21T15:01:39.008167Z,1697900499008,0.6693307006280836
0.5385408401489258,0.378145694732666,0.0871973037719726,2023-10-21T15:01:39.031508Z,1697900499031,0.6637949779399233
0.5421419143676758,0.351926326751709,0.0895948410034179,2023-10-21T15:01:39.048598Z,1697900499048,0.6525314017805018
0.5347585678100586,0.3193659782409668,0.089178442955017,2023-10-21T15:01:39.069013Z,1697900499068,0.6292170917830793
0.5114316940307617,0.2795977592468261,0.0850439071655273,2023-10-21T15:01:39.089235Z,1697900499089,0.5890413829104028
0.4686203002929687,0.2332758903503418,0.0766539573669433,2023-10-21T15:01:39.109440Z,1697900499109,0.5290543034939136
0.4026708602905273,0.1814632415771484,0.0639047622680664,2023-10-21T15:01:39.131594Z,1697900499131,0.4462695916274578
0.3092679977416992,0.1252777576446533,0.0470341444015502,2023-10-21T15:01:39.150013Z,1697900499149,0.3369768860429718
0.1832265853881836,0.0660319328308105,0.0263936519622802,2023-10-21T15:01:39.170332Z,1697900499170,0.1965421649679579
0.0228586196899414,0.007214069366455,0.0030809640884399,2023-10-21T15:01:39.190536Z,1697900499190,0.024167160169694276
-0.166757583618164,-0.0450098514556884,-0.0206677913665771,2023-10-21T15:01:39.210728Z,1697900499210,0.1739572821764138
-0.3740177154541015,-0.0833916664123535,-0.0416059494018554,2023-10-21T15:01:39.231431Z,1697900499231,0.3854535984086337
-0.5849790573120117,-0.1021637916564941,-0.0564403533935546,2023-10-21T15:01:39.251365Z,1697900499251,0.5965093891218065
-0.7894058227539062,-0.0984666347503662,-0.0628743767738342,2023-10-21T15:01:39.271638Z,1697900499271,0.7980040215509767
-0.9794321060180664,-0.0713056921958923,-0.059584617614746,2023-10-21T15:01:39.291862Z,1697900499291,0.9838303099085816
-1.1486854553222656,-0.0210933536291122,-0.0461304187774658,2023-10-21T15:01:39.314755Z,1697900499314,1.149804861866929
-1.2890863418579102,0.0504210293292999,-0.0228196531534194,2023-10-21T15:01:39.332376Z,1697900499332,1.2902738521466197
-1.3917236328125,0.1393277645111084,0.0090281292796134,2023-10-21T15:01:39.352686Z,1697900499352,1.3987095492670287
-1.4484748840332031,0.2390635013580322,0.0469659864902496,2023-10-21T15:01:39.372958Z,1697900499372,1.468821517831069
-1.454692840576172,0.3404279947280884,0.0879918336868286,2023-10-21T15:01:39.393055Z,1697900499393,1.496584458964388
-1.411506175994873,0.4333157539367676,0.1290802955627441,2023-10-21T15:01:39.414685Z,1697900499414,1.4821517972812448
-1.324772834777832,0.5087800025939941,0.1671866178512573,2023-10-21T15:01:39.433667Z,1697900499433,1.4289267021066476
-1.202403545379639,0.5603373050689697,0.1986733675003051,2023-10-21T15:01:39.453853Z,1697900499453,1.3413512919244504
-1.0510234832763672,0.5825543403625488,0.2197668552398681,2023-10-21T15:01:39.474060Z,1697900499474,1.2216044337409937
-0.8762912750244141,0.5696759223937988,0.2266576290130615,2023-10-21T15:01:39.494404Z,1697900499494,1.0694815267357176
-0.6847529411315918,0.5163536071777344,0.215832233428955,2023-10-21T15:01:39.514660Z,1697900499514,0.884359197962431
-0.4849562644958496,0.4199428558349609,0.184230089187622,2023-10-21T15:01:39.534965Z,1697900499534,0.6674393653379087
-0.2866153717041015,0.2822880744934082,0.1299026012420654,2023-10-21T15:01:39.555232Z,1697900499555,0.42274059907670486
-0.0991625785827636,0.1100788116455078,0.0530967712402343,2023-10-21T15:01:39.575486Z,1697900499575,0.15738433492761508
0.0699043273925781,-0.0867190361022949,-0.0437815189361572,2023-10-21T15:01:39.597607Z,1697900499597,0.11968135866155999
0.2151894569396972,-0.295781135559082,-0.1558859348297119,2023-10-21T15:01:39.616087Z,1697900499616,0.39760961659441163
0.3349218368530273,-0.5051178932189941,-0.2766256332397461,2023-10-21T15:01:39.636424Z,1697900499636,0.6662120261720674
0.430516242980957,-0.7038202285766602,-0.3981838226318359,2023-10-21T15:01:39.656621Z,1697900499656,0.9161099858804301
0.5052204132080078,-0.8818788528442383,-0.512425422668457,2023-10-21T15:01:39.676831Z,1697900499676,1.1382169348647413
0.5625491142272949,-1.0313425064086914,-0.6134018898010254,2023-10-21T15:01:39.697877Z,1697900499697,1.3252889307070912
0.6030349731445312,-1.143721103668213,-0.6951756477355957,2023-10-21T15:01:39.717300Z,1697900499717,1.4679980664210923
0.6255626678466797,-1.2123947143554688,-0.7515778541564941,2023-10-21T15:01:39.737602Z,1697900499737,1.5575939347785783
0.629561185836792,-1.235980987548828,-0.7780981063842773,2023-10-21T15:01:39.757770Z,1697900499757,1.5904191118862983
0.6177234649658203,-1.219552993774414,-0.773871898651123,2023-10-21T15:01:39.780902Z,1697900499780,1.570913587475584
0.5895366668701172,-1.1669306755065918,-0.7413554191589355,2023-10-21T15:01:39.798344Z,1697900499798,1.502959926458094
0.5400254726409912,-1.075775146484375,-0.6815133094787598,2023-10-21T15:01:39.818618Z,1697900499818,1.383249821214988
0.4625439643859863,-0.9364233016967772,-0.590425968170166,2023-10-21T15:01:39.838883Z,1697900499838,1.1997659533593525
0.3591935634613037,-0.7467794418334961,-0.4685959815979004,2023-10-21T15:01:39.859113Z,1697900499859,0.9519883112448794
0.2390179634094238,-0.512394905090332,-0.3195137977600097,2023-10-21T15:01:39.880885Z,1697900499880,0.649436057325079
0.1093056201934814,-0.2407197952270507,-0.148470401763916,2023-10-21T15:01:39.899670Z,1697900499899,0.3032114750796438
-0.0286498069763183,0.0643148422241211,0.0389137268066406,2023-10-21T15:01:39.919952Z,1697900499919,0.08044556236409654
-0.1768176555633545,0.4010367393493652,0.2357339859008789,2023-10-21T15:01:39.940145Z,1697900499940,0.49765998607041684
-0.3392171859741211,0.7690610885620117,0.4355673789978027,2023-10-21T15:01:39.960412Z,1697900499960,0.9467006912680498
-0.5228700637817383,1.1696228981018066,0.634953498840332,2023-10-21T15:01:39.980730Z,1697900499980,1.4298869791185482
-0.7397322654724121,1.5994129180908203,0.8253083229064941,2023-10-21T15:01:40.001057Z,1697900500001,1.9458826621858447
-1.006802320480347,2.0412096977233887,0.9839398860931396,2023-10-21T15:01:40.021260Z,1697900500021,2.4795817474020896
-1.3403382301330566,2.459401130676269,1.0766236782073977,2023-10-21T15:01:40.041444Z,1697900500041,3.000713088118348
-1.748967170715332,2.818110942840576,1.072525143623352,2023-10-21T15:01:40.064040Z,1697900500064,3.4858206543226067
-2.2251219749450684,3.0929713249206543,0.959519386291504,2023-10-21T15:01:40.082032Z,1697900500081,3.929162362747828
-2.754133939743042,3.2648239135742188,0.7324855327606201,2023-10-21T15:01:40.102345Z,1697900500102,4.333689421312309
-3.311699151992798,3.300543546676636,0.3879671692848205,2023-10-21T15:01:40.122577Z,1697900500122,4.691636974581631
-3.854734897613525,3.163726091384888,-0.0635241568088531,2023-10-21T15:01:40.142785Z,1697900500142,4.987201543018623
-4.328080654144287,2.839338779449463,-0.5863569378852844,2023-10-21T15:01:40.163950Z,1697900500163,5.209408921544728
-4.684209823608398,2.3479137420654297,-1.131525993347168,2023-10-21T15:01:40.183381Z,1697900500183,5.360491739140114
-4.886670112609863,1.724036455154419,-1.655767560005188,2023-10-21T15:01:40.203645Z,1697900500203,5.439982784985761
-4.908503532409668,1.016965389251709,-2.1105165481567383,2023-10-21T15:01:40.223855Z,1697900500223,5.4389250436697045
-4.756997108459473,0.2955752313137054,-2.444835662841797,2023-10-21T15:01:40.247253Z,1697900500247,5.356641450158954
-4.47636604309082,-0.3791861534118652,-2.630338668823242,2023-10-21T15:01:40.264425Z,1697900500264,5.205796442753278
-4.122893333435059,-0.9774982929229736,-2.6739249229431152,2023-10-21T15:01:40.284687Z,1697900500284,5.010351968184164
-3.717712879180908,-1.474708080291748,-2.588376522064209,2023-10-21T15:01:40.305108Z,1697900500305,4.7640157424255625
-3.273200035095215,-1.8262176513671875,-2.3816027641296387,2023-10-21T15:01:40.325178Z,1697900500325,4.440826624179595
-2.8169522285461426,-1.996394395828247,-2.076789617538452,2023-10-21T15:01:40.347353Z,1697900500347,4.0291271458122315
-2.3693575859069824,-1.9911985397338867,-1.7215375900268557,2023-10-21T15:01:40.365727Z,1697900500365,3.5415277308541295
-1.943497657775879,-1.8579349517822263,-1.3636231422424316,2023-10-21T15:01:40.386043Z,1697900500386,3.0147261077738845
-1.545238971710205,-1.6430401802062988,-1.031750202178955,2023-10-21T15:01:40.406370Z,1697900500406,2.4802929248700996
-1.174975872039795,-1.371133804321289,-0.7361443042755127,2023-10-21T15:01:40.426557Z,1697900500426,1.9499960630589812
-0.8297305107116699,-1.0507378578186035,-0.4810614585876465,2023-10-21T15:01:40.447026Z,1697900500446,1.4226464399834382
-0.5087471008300781,-0.6910309791564941,-0.2698621749877929,2023-10-21T15:01:40.467223Z,1697900500467,0.8995404494774735
-0.2141637802124023,-0.308023452758789,-0.1031486988067627,2023-10-21T15:01:40.487412Z,1697900500487,0.38908125921180053
0.047621726989746,0.0718374252319336,0.0206592082977294,2023-10-21T15:01:40.507681Z,1697900500507,0.08862983376340342
0.2709488868713379,0.4274568557739258,0.1047809123992919,2023-10-21T15:01:40.530611Z,1697900500530,0.5168285039045117
0.4544401168823242,0.7518100738525391,0.1549581289291381,2023-10-21T15:01:40.548218Z,1697900500548,0.8920460911294887
0.6013693809509277,1.0459280014038086,0.1780325174331665,2023-10-21T15:01:40.568535Z,1697900500568,1.2195515953535785
0.721621036529541,1.314043045043945,0.181820273399353,2023-10-21T15:01:40.588759Z,1697900500588,1.510133986244051
0.8231096267700195,1.5537290573120115,0.171571135520935,2023-10-21T15:01:40.608865Z,1697900500608,1.7666409074175475
0.909266471862793,1.7589445114135742,0.150839626789093,2023-10-21T15:01:40.630267Z,1697900500630,1.9858005700713306
0.9815702438354492,1.9260892868041992,0.1220170259475708,2023-10-21T15:01:40.649515Z,1697900500649,2.1652224456037263
1.0408897399902344,2.053675651550293,0.0870766937732696,2023-10-21T15:01:40.669724Z,1697900500669,2.304043724234838
1.089338779449463,2.143059730529785,0.0476457923650741,2023-10-21T15:01:40.689951Z,1697900500689,2.4045028813792126
1.1265816688537598,2.1936845779418945,0.0051978584378957,2023-10-21T15:01:40.710162Z,1697900500710,2.466062712468961
1.1500654220581057,2.2034006118774414,-0.0385766476392746,2023-10-21T15:01:40.730461Z,1697900500730,2.485782148374764
1.1573982238769531,2.171737670898437,-0.0814869403839111,2023-10-21T15:01:40.750761Z,1697900500750,2.4622459830987693
1.1484956741333008,2.1025390625,-0.1213102340698242,2023-10-21T15:01:40.771024Z,1697900500770,2.398839093338976
1.1255359649658203,2.003572463989258,-0.1563504338264465,2023-10-21T15:01:40.791251Z,1697900500791,2.3033843111919565
1.0911173820495603,1.8827943801879885,-0.1855262517929077,2023-10-21T15:01:40.813454Z,1697900500813,2.18400361940691
1.045332431793213,1.745086669921875,-0.2081694602966308,2023-10-21T15:01:40.831785Z,1697900500831,2.0448427574505383
0.9874134063720704,1.593672752380371,-0.2234805822372436,2023-10-21T15:01:40.852101Z,1697900500852,1.8880470458651237
0.9181289672851562,1.4332284927368164,-0.231205940246582,2023-10-21T15:01:40.872322Z,1697900500872,1.7177196802057255
0.8401355743408203,1.2693967819213867,-0.2315138578414917,2023-10-21T15:01:40.892524Z,1697900500892,1.5397384971474875
0.7571291923522949,1.108217716217041,-0.2250318527221679,2023-10-21T15:01:40.913457Z,1697900500913,1.3608932563536804
0.6724553108215332,0.9546957015991212,-0.2127803564071655,2023-10-21T15:01:40.933129Z,1697900500933,1.1869774672573543
0.5886974334716797,0.8124761581420898,-0.1960756778717041,2023-10-21T15:01:40.953453Z,1697900500953,1.0223149451995315
0.5079765319824219,0.6838665008544922,-0.1764297485351562,2023-10-21T15:01:40.973606Z,1697900500973,0.8699660937094239
0.4320197105407715,0.5698270797729492,-0.1553113460540771,2023-10-21T15:01:40.996941Z,1697900500996,0.7317551129656891
0.3618059158325195,0.4697866439819336,-0.133878469467163,2023-10-21T15:01:41.014307Z,1697900501014,0.6078868777840877
0.2983546257019043,0.3831095695495605,-0.1132118701934814,2023-10-21T15:01:41.034473Z,1697900501034,0.4986034020249748
0.2428493499755859,0.3097696304321289,-0.0943281650543212,2023-10-21T15:01:41.054747Z,1697900501054,0.40476021722019273
0.1973156929016113,0.2511258125305176,-0.0784039497375488,2023-10-21T15:01:41.074917Z,1697900501074,0.3288538212014629
0.1622061729431152,0.2068867683410644,-0.0659167766571044,2023-10-21T15:01:41.096744Z,1697900501096,0.27103136147007717
0.135836124420166,0.174290657043457,-0.0564203262329101,2023-10-21T15:01:41.115547Z,1697900501115,0.22806126159950701
0.1146121025085449,0.1483683586120605,-0.0486457347869873,2023-10-21T15:01:41.135803Z,1697900501135,0.19368921341063908
0.0959401130676269,0.1255221366882324,-0.0416371822357177,2023-10-21T15:01:41.156023Z,1697900501155,0.16338288477909396
0.0798325538635253,0.1056303977966308,-0.0354938507080078,2023-10-21T15:01:41.176179Z,1697900501176,0.13707965214841145
0.0678582191467285,0.0907902717590332,-0.0309920310974121,2023-10-21T15:01:41.196519Z,1697900501196,0.11750794587340675
0.0618119239807128,0.0835981369018554,-0.029085636138916,2023-10-21T15:01:41.216822Z,1697900501216,0.10795988453710105
0.0627431869506836,0.0857625007629394,-0.0305011272430419,2023-10-21T15:01:41.237134Z,1697900501237,0.11055420755872589
0.0707201957702636,0.0976648330688476,-0.0355885028839111,2023-10-21T15:01:41.257317Z,1697900501257,0.12572313727261353
0.0846500396728515,0.1180396080017089,-0.0441527366638183,2023-10-21T15:01:41.279873Z,1697900501279,0.15181713483239273
0.1032695770263671,0.1452322006225586,-0.0558545589447021,2023-10-21T15:01:41.297923Z,1697900501297,0.186753124182122
0.1257038116455078,0.178112506866455,-0.0704977512359619,2023-10-21T15:01:41.318152Z,1697900501318,0.22911884753068626
0.1520133018493652,0.2168374061584472,-0.0883257389068603,2023-10-21T15:01:41.338417Z,1697900501338,0.2791557644078167
0.1818652153015136,0.2610077857971191,-0.1093180179595947,2023-10-21T15:01:41.358663Z,1697900501358,0.3363784324744899
0.213475227355957,0.3080410957336426,-0.1324546337127685,2023-10-21T15:01:41.379707Z,1697900501379,0.39749870357957695
0.2440872192382812,0.3538775444030761,-0.1559059619903564,2023-10-21T15:01:41.399226Z,1697900501399,0.45729045038396143
0.2711000442504883,0.3945965766906738,-0.177760362625122,2023-10-21T15:01:41.419510Z,1697900501419,0.5106862430585245
0.2928791046142578,0.4274868965148926,-0.1965346336364746,2023-10-21T15:01:41.439686Z,1697900501439,0.5542103200322123
0.3092684745788574,0.451784610748291,-0.2116780281066894,2023-10-21T15:01:41.463346Z,1697900501463,0.5869956656232264
0.3205060958862304,0.4673876762390136,-0.2230455875396728,2023-10-21T15:01:41.480422Z,1697900501480,0.6090359033105162
0.3268380165100097,0.4746026992797851,-0.2307157516479492,2023-10-21T15:01:41.500619Z,1697900501500,0.62072584065619
0.3284573554992676,0.4741430282592773,-0.2349233627319336,2023-10-21T15:01:41.520921Z,1697900501520,0.6228040076827779
0.3257875442504883,0.4671592712402344,-0.2360239028930664,2023-10-21T15:01:41.541124Z,1697900501541,0.6165083871540974
0.3196134567260742,0.4551515579223633,-0.2344603538513183,2023-10-21T15:01:41.563552Z,1697900501563,0.6035622253982019
0.3110837936401367,0.4399213790893554,-0.2308723926544189,2023-10-21T15:01:41.581702Z,1697900501581,0.5861791604410683
0.3018798828125,0.4239301681518554,-0.2264125347137451,2023-10-21T15:01:41.601950Z,1697900501601,0.5675481362771373
0.2938675880432129,0.4099745750427246,-0.2225649356842041,2023-10-21T15:01:41.622163Z,1697900501622,0.5513369768842935
0.28826904296875,0.4000172615051269,-0.2204513549804687,2023-10-21T15:01:41.642434Z,1697900501642,0.540103370243979
0.2844552993774414,0.393531322479248,-0.2197480201721191,2023-10-21T15:01:41.662931Z,1697900501662,0.5329830311424012
0.2807569503784179,0.388465404510498,-0.2191987037658691,2023-10-21T15:01:41.682899Z,1697900501682,0.5270463996840614
0.2758269309997558,0.3828821182250976,-0.2175731658935547,2023-10-21T15:01:41.703320Z,1697900501703,0.5196318839700138
0.2696042060852051,0.376138687133789,-0.2144689559936523,2023-10-21T15:01:41.723524Z,1697900501723,0.5100624206727754
0.2630734443664551,0.3689279556274414,-0.2103552818298339,2023-10-21T15:01:41.746435Z,1697900501746,0.4995646286197438
0.2573843002319336,0.3624081611633301,-0.2060394287109375,2023-10-21T15:01:41.763921Z,1697900501763,0.48993734238900166
0.2528409957885742,0.3568449020385742,-0.2017793655395507,2023-10-21T15:01:41.784222Z,1697900501784,0.48164485424410075
0.2486696243286132,0.3511323928833008,-0.1969542503356933,2023-10-21T15:01:41.804522Z,1697900501804,0.4732034616536329
