ACC_X,ACC_Y,ACC_Z,DATE,UNIX_TIMESTAMP
0.09527528285980225,0.5020923614501953,0.12967205047607422,2023-10-21T15:26:54.813278Z,1697902014813
0.11121535301208496,0.5730218887329102,0.14463424682617188,2023-10-21T15:26:54.833637Z,1697902014833
0.08800888061523438,0.4252910614013672,0.10402488708496094,2023-10-21T15:26:54.853845Z,1697902014853
0.06193804740905762,0.2951974868774414,0.0720362663269043,2023-10-21T15:26:54.878803Z,1697902014878
0.045639991760253906,0.2051992416381836,0.05026555061340332,2023-10-21T15:26:54.895909Z,1697902014895
0.04125809669494629,0.18346214294433594,0.04429030418395996,2023-10-21T15:26:54.914601Z,1697902014914
0.03717851638793945,0.16648483276367188,0.040610313415527344,2023-10-21T15:26:54.934806Z,1697902014934
0.02814960479736328,0.1290454864501953,0.03212881088256836,2023-10-21T15:26:54.961370Z,1697902014961
0.022248387336730957,0.10571861267089844,0.026804685592651367,2023-10-21T15:26:54.977815Z,1697902014977
0.032810211181640625,0.15838909149169922,0.04023551940917969,2023-10-21T15:26:54.995700Z,1697902014995
0.05167579650878906,0.24323749542236328,0.06034398078918457,2023-10-21T15:26:55.016072Z,1697902015015
0.045812368392944336,0.2138957977294922,0.05307507514953613,2023-10-21T15:26:55.036277Z,1697902015036
0.04291105270385742,0.19999027252197266,0.049875736236572266,2023-10-21T15:26:55.061254Z,1697902015061
0.04165303707122803,0.1945171356201172,0.048784732818603516,2023-10-21T15:26:55.077957Z,1697902015077
0.0406031608581543,0.19196319580078125,0.04833722114562988,2023-10-21T15:26:55.097083Z,1697902015096
0.039844632148742676,0.19077491760253906,0.048181772232055664,2023-10-21T15:26:55.117274Z,1697902015117
0.04008793830871582,0.19434452056884766,0.04912281036376953,2023-10-21T15:26:55.137401Z,1697902015137
0.04147195816040039,0.2035207748413086,0.051451921463012695,2023-10-21T15:26:55.161163Z,1697902015161
0.042859792709350586,0.2133626937866211,0.0540766716003418,2023-10-21T15:26:55.178107Z,1697902015178
0.04188215732574463,0.21257305145263672,0.05424904823303223,2023-10-21T15:26:55.198426Z,1697902015198
0.03983139991760254,0.2064990997314453,0.05313563346862793,2023-10-21T15:26:55.218575Z,1697902015218
0.036191701889038086,0.19134807586669922,0.04961395263671875,2023-10-21T15:26:55.241487Z,1697902015241
0.032254695892333984,0.1732044219970703,0.04505109786987305,2023-10-21T15:26:55.260941Z,1697902015260
0.028462886810302734,0.1546030044555664,0.04021501541137695,2023-10-21T15:26:55.279453Z,1697902015279
0.024697422981262207,0.13508987426757812,0.03512144088745117,2023-10-21T15:26:55.299671Z,1697902015299
0.020598530769348145,0.11316967010498047,0.029442548751831055,2023-10-21T15:26:55.319850Z,1697902015319
0.01604604721069336,0.08790874481201172,0.022900819778442383,2023-10-21T15:26:55.340898Z,1697902015340
0.011082768440246582,0.06005287170410156,0.015633583068847656,2023-10-21T15:26:55.360882Z,1697902015360
0.006785988807678223,0.03606891632080078,0.009343147277832031,2023-10-21T15:26:55.380701Z,1697902015380
0.003943085670471191,0.020384788513183594,0.005233049392700195,2023-10-21T15:26:55.400996Z,1697902015400
0.0019811391830444336,0.009939193725585938,0.002527952194213867,2023-10-21T15:26:55.428951Z,1697902015428
7.855892181396484E-4,0.0038585662841796875,9.760856628417969E-4,2023-10-21T15:26:55.444493Z,1697902015444
0.00215303897857666,0.010488510131835938,0.002630472183227539,2023-10-21T15:26:55.461732Z,1697902015461
0.00681304931640625,0.033150672912597656,0.008244514465332031,2023-10-21T15:26:55.482073Z,1697902015481
0.02667820453643799,0.13418102264404297,0.03414297103881836,2023-10-21T15:26:55.502293Z,1697902015502
0.025693058967590332,0.12933349609375,0.032892465591430664,2023-10-21T15:26:55.524537Z,1697902015524
0.025251269340515137,0.12728118896484375,0.032352447509765625,2023-10-21T15:26:55.543037Z,1697902015542
0.025174498558044434,0.12714862823486328,0.032295942306518555,2023-10-21T15:26:55.563353Z,1697902015563
0.02530491352081299,0.1281108856201172,0.03251218795776367,2023-10-21T15:26:55.583420Z,1697902015583
0.025557994842529297,0.12963104248046875,0.03286552429199219,2023-10-21T15:26:55.603619Z,1697902015603
0.02583599090576172,0.13118648529052734,0.03321695327758789,2023-10-21T15:26:55.624946Z,1697902015624
0.026021838188171387,0.1321725845336914,0.033417463302612305,2023-10-21T15:26:55.644151Z,1697902015644
0.02599501609802246,0.1319723129272461,0.03330636024475098,2023-10-21T15:26:55.664422Z,1697902015664
0.025698423385620117,0.13025474548339844,0.03280472755432129,2023-10-21T15:26:55.684748Z,1697902015684
0.025196433067321777,0.12734603881835938,0.03199338912963867,2023-10-21T15:26:55.707629Z,1697902015707
0.024557113647460938,0.12362480163574219,0.030965089797973633,2023-10-21T15:26:55.725187Z,1697902015725
0.023940086364746094,0.11994361877441406,0.02993464469909668,2023-10-21T15:26:55.745481Z,1697902015745
0.023413419723510742,0.11667251586914062,0.028997182846069336,2023-10-21T15:26:55.765668Z,1697902015765
0.023005366325378418,0.11403274536132812,0.02821063995361328,2023-10-21T15:26:55.786017Z,1697902015785
0.022734522819519043,0.1121826171875,0.027616024017333984,2023-10-21T15:26:55.807394Z,1697902015807
0.022623419761657715,0.11124992370605469,0.027239561080932617,2023-10-21T15:26:55.826588Z,1697902015826
0.022713661193847656,0.11143016815185547,0.027123689651489258,2023-10-21T15:26:55.846807Z,1697902015846
0.023055195808410645,0.11295413970947266,0.027326107025146484,2023-10-21T15:26:55.867002Z,1697902015866
0.02364063262939453,0.11581134796142578,0.027833938598632812,2023-10-21T15:26:55.890652Z,1697902015890
0.024396538734436035,0.11970996856689453,0.028575658798217773,2023-10-21T15:26:55.907536Z,1697902015907
0.025200963020324707,0.12409687042236328,0.02941107749938965,2023-10-21T15:26:55.927860Z,1697902015927
0.0258786678314209,0.12807846069335938,0.03012704849243164,2023-10-21T15:26:55.948077Z,1697902015948
0.02634274959564209,0.1311359405517578,0.030602455139160156,2023-10-21T15:26:55.968319Z,1697902015968
0.02665853500366211,0.13348388671875,0.030880451202392578,2023-10-21T15:26:55.990604Z,1697902015990
0.026840686798095703,0.13518524169921875,0.03097701072692871,2023-10-21T15:26:56.008837Z,1697902016008
0.026992201805114746,0.13675212860107422,0.030997514724731445,2023-10-21T15:26:56.029155Z,1697902016029
0.027272343635559082,0.1389780044555664,0.031103134155273438,2023-10-21T15:26:56.049372Z,1697902016049
0.02776515483856201,0.14229488372802734,0.03137826919555664,2023-10-21T15:26:56.069588Z,1697902016069
0.028511404991149902,0.14698028564453125,0.03186774253845215,2023-10-21T15:26:56.090453Z,1697902016090
0.02938377857208252,0.152435302734375,0.0324249267578125,2023-10-21T15:26:56.110215Z,1697902016110
0.030367374420166016,0.15855979919433594,0.033014655113220215,2023-10-21T15:26:56.130488Z,1697902016130
0.03153729438781738,0.16565895080566406,0.03367352485656738,2023-10-21T15:26:56.150802Z,1697902016150
0.032866835594177246,0.17355918884277344,0.03434336185455322,2023-10-21T15:26:56.173642Z,1697902016173
0.03425920009613037,0.18182086944580078,0.034920454025268555,2023-10-21T15:26:56.191188Z,1697902016191
0.03564095497131348,0.19006729125976562,0.035321831703186035,2023-10-21T15:26:56.211539Z,1697902016211
0.036956071853637695,0.19798946380615234,0.03550267219543457,2023-10-21T15:26:56.231760Z,1697902016231
0.03811144828796387,0.20496368408203125,0.035390377044677734,2023-10-21T15:26:56.251972Z,1697902016251
0.03905808925628662,0.21059894561767578,0.034957051277160645,2023-10-21T15:26:56.273519Z,1697902016273
0.039896368980407715,0.21520042419433594,0.03429388999938965,2023-10-21T15:26:56.292538Z,1697902016292
0.04088997840881348,0.22003936767578125,0.03362119197845459,2023-10-21T15:26:56.312865Z,1697902016312
0.04226374626159668,0.22628211975097656,0.03310680389404297,2023-10-21T15:26:56.333022Z,1697902016332
0.04412078857421875,0.23464393615722656,0.03283548355102539,2023-10-21T15:26:56.356810Z,1697902016356
0.04649460315704346,0.2455453872680664,0.032825589179992676,2023-10-21T15:26:56.373887Z,1697902016373
0.049286842346191406,0.2586402893066406,0.03300273418426514,2023-10-21T15:26:56.393870Z,1697902016393
0.05236995220184326,0.27341175079345703,0.033274173736572266,2023-10-21T15:26:56.414141Z,1697902016414
0.055715084075927734,0.28980064392089844,0.033602356910705566,2023-10-21T15:26:56.434367Z,1697902016434
0.05942058563232422,0.30838489532470703,0.0339890718460083,2023-10-21T15:26:56.456746Z,1697902016456
0.06340765953063965,0.3288002014160156,0.03433632850646973,2023-10-21T15:26:56.474923Z,1697902016474
0.06735610961914062,0.3495330810546875,0.034455835819244385,2023-10-21T15:26:56.495229Z,1697902016495
0.07091677188873291,0.3689708709716797,0.0341910719871521,2023-10-21T15:26:56.515442Z,1697902016515
0.0738217830657959,0.38591575622558594,0.03347522020339966,2023-10-21T15:26:56.535657Z,1697902016535
0.07593262195587158,0.39959144592285156,0.032300353050231934,2023-10-21T15:26:56.556770Z,1697902016556
0.0772179365158081,0.40952587127685547,0.030713260173797607,2023-10-21T15:26:56.576244Z,1697902016576
0.07780277729034424,0.4159574508666992,0.028813421726226807,2023-10-21T15:26:56.596497Z,1697902016596
0.07802700996398926,0.42042064666748047,0.026768922805786133,2023-10-21T15:26:56.616684Z,1697902016616
0.07811057567596436,0.4240598678588867,0.02468705177307129,2023-10-21T15:26:56.642597Z,1697902016642
0.07811176776885986,0.42745208740234375,0.02265143394470215,2023-10-21T15:26:56.677096Z,1697902016677
0.07817304134368896,0.43163490295410156,0.020735591650009155,2023-10-21T15:26:56.678844Z,1697902016678
0.07840049266815186,0.4373035430908203,0.018967121839523315,2023-10-21T15:26:56.758228Z,1697902016758
0.07888162136077881,0.4447479248046875,0.017333239316940308,2023-10-21T15:26:56.759627Z,1697902016759
0.07962322235107422,0.4535980224609375,0.015749752521514893,2023-10-21T15:26:56.760750Z,1697902016760
0.0806649923324585,0.46367359161376953,0.01412162184715271,2023-10-21T15:26:56.761823Z,1697902016761
0.08211410045623779,0.4753608703613281,0.012377887964248657,2023-10-21T15:26:56.778903Z,1697902016778
0.08389842510223389,0.48840808868408203,0.01047508418560028,2023-10-21T15:26:56.799139Z,1697902016799
0.08569097518920898,0.5012054443359375,0.008428752422332764,2023-10-21T15:26:56.825670Z,1697902016825
0.08707690238952637,0.5116138458251953,0.006334275007247925,2023-10-21T15:26:56.841439Z,1697902016841
0.08774852752685547,0.5175876617431641,0.004320107400417328,2023-10-21T15:26:56.859967Z,1697902016859
0.08761835098266602,0.5179376602172852,0.002502668648958206,2023-10-21T15:26:56.880188Z,1697902016880
0.08686041831970215,0.5129690170288086,9.59053635597229E-4,2023-10-21T15:26:56.900439Z,1697902016900
0.08574140071868896,0.5037736892700195,-2.698497846722603E-4,2023-10-21T15:26:56.924832Z,1697902016924
0.0844036340713501,0.4912385940551758,-0.001131262630224228,2023-10-21T15:26:56.941495Z,1697902016941
0.08277237415313721,0.4753885269165039,-0.0015455186367034912,2023-10-21T15:26:56.961366Z,1697902016961
0.08062052726745605,0.45547962188720703,-0.001475594937801361,2023-10-21T15:26:56.981525Z,1697902016981
0.0777660608291626,0.4308300018310547,-9.857192635536194E-4,2023-10-21T15:26:57.001747Z,1697902017001
0.07419967651367188,0.40148258209228516,-2.438877709209919E-4,2023-10-21T15:26:57.024664Z,1697902017024
0.06997108459472656,0.36778831481933594,5.535315722227097E-4,2023-10-21T15:26:57.042413Z,1697902017042
0.06509208679199219,0.3304634094238281,0.0012347809970378876,2023-10-21T15:26:57.062651Z,1697902017062
0.05944645404815674,0.29006290435791016,0.001704283058643341,2023-10-21T15:26:57.082948Z,1697902017082
0.05280876159667969,0.24684810638427734,0.001928761601448059,2023-10-21T15:26:57.108336Z,1697902017108
0.044838905334472656,0.20046520233154297,0.0019262433052062988,2023-10-21T15:26:57.124713Z,1697902017124
0.03542613983154297,0.1514148712158203,0.0017161369323730469,2023-10-21T15:26:57.143716Z,1697902017143
0.0247194766998291,0.10099506378173828,0.0013150423765182495,2023-10-21T15:26:57.163949Z,1697902017163
0.013170719146728516,0.05142498016357422,7.547587156295776E-4,2023-10-21T15:26:57.184215Z,1697902017184
0.0014884471893310547,0.00555419921875,9.119510650634766E-5,2023-10-21T15:26:57.208358Z,1697902017208
-0.009737491607666016,-0.034722328186035156,-6.379634141921997E-4,2023-10-21T15:26:57.225069Z,1697902017224
-0.019926071166992188,-0.06802845001220703,-0.0014059841632843018,2023-10-21T15:26:57.245059Z,1697902017244
-0.028692245483398438,-0.09407520294189453,-0.002195209264755249,2023-10-21T15:26:57.265194Z,1697902017265
-0.035891056060791016,-0.113433837890625,-0.002990737557411194,2023-10-21T15:26:57.285473Z,1697902017285
-0.041419267654418945,-0.1266002655029297,-0.0037431418895721436,2023-10-21T15:26:57.308377Z,1697902017308
-0.04467368125915527,-0.13236236572265625,-0.004314810037612915,2023-10-21T15:26:57.326060Z,1697902017325
-0.04489612579345703,-0.12913227081298828,-0.004508107900619507,2023-10-21T15:26:57.346305Z,1697902017346
-0.04173159599304199,-0.11666488647460938,-0.004219263792037964,2023-10-21T15:26:57.372863Z,1697902017372
-0.03594255447387695,-0.0978231430053711,-0.0035354793071746826,2023-10-21T15:26:57.393817Z,1697902017393
-0.02917313575744629,-0.07744312286376953,-0.00270041823387146,2023-10-21T15:26:57.426199Z,1697902017426
-0.02245950698852539,-0.05825042724609375,-0.0018778443336486816,2023-10-21T15:26:57.427855Z,1697902017427
-0.0157318115234375,-0.039905548095703125,-0.001121819019317627,2023-10-21T15:26:57.459352Z,1697902017459
-0.007994890213012695,-0.019845962524414062,-4.434734582901001E-4,2023-10-21T15:26:57.467904Z,1697902017467
0.0020074844360351562,0.004878997802734375,7.218122482299805E-5,2023-10-21T15:26:57.492943Z,1697902017492
0.014885425567626953,0.035477638244628906,2.1849945187568665E-4,2023-10-21T15:26:57.540612Z,1697902017540
0.02989649772644043,0.07003307342529297,-2.5529414415359497E-4,2023-10-21T15:26:57.544446Z,1697902017544
0.04580044746398926,0.10578441619873047,-0.0014815926551818848,2023-10-21T15:26:57.549056Z,1697902017548
0.06214094161987305,0.14197731018066406,-0.003495335578918457,2023-10-21T15:26:57.569236Z,1697902017569
0.07986712455749512,0.1810283660888672,-0.006413161754608154,2023-10-21T15:26:57.592556Z,1697902017592
0.10055351257324219,0.22671222686767578,-0.010544061660766602,2023-10-21T15:26:57.624258Z,1697902017624
0.12438011169433594,0.27973175048828125,-0.016176879405975342,2023-10-21T15:26:57.629874Z,1697902017629
0.1497650146484375,0.3370342254638672,-0.023337960243225098,2023-10-21T15:26:57.650262Z,1697902017650
0.17441105842590332,0.3939523696899414,-0.03173249959945679,2023-10-21T15:26:57.674355Z,1697902017674
0.19618821144104004,0.4459114074707031,-0.0408439040184021,2023-10-21T15:26:57.690902Z,1697902017690
0.21409821510314941,0.4904050827026367,-0.050216734409332275,2023-10-21T15:26:57.711032Z,1697902017710
0.2282545566558838,0.5270919799804688,-0.05958139896392822,2023-10-21T15:26:57.731261Z,1697902017731
0.2392435073852539,0.5564908981323242,-0.06877577304840088,2023-10-21T15:26:57.751430Z,1697902017751
0.24727153778076172,0.5785598754882812,-0.07756805419921875,2023-10-21T15:26:57.774042Z,1697902017773
0.25218629837036133,0.5927639007568359,-0.08561885356903076,2023-10-21T15:26:57.792081Z,1697902017792
0.2537374496459961,0.5984764099121094,-0.09251534938812256,2023-10-21T15:26:57.812348Z,1697902017812
0.2517814636230469,0.5952434539794922,-0.09783899784088135,2023-10-21T15:26:57.832569Z,1697902017832
0.24669361114501953,0.5837602615356445,-0.10139751434326172,2023-10-21T15:26:57.857327Z,1697902017857
0.2393960952758789,0.566218376159668,-0.10336196422576904,2023-10-21T15:26:57.873951Z,1697902017873
0.23159313201904297,0.5468053817749023,-0.10439348220825195,2023-10-21T15:26:57.893412Z,1697902017893
0.22496366500854492,0.5298557281494141,-0.1052854061126709,2023-10-21T15:26:57.913670Z,1697902017913
0.21983957290649414,0.516627311706543,-0.10626578330993652,2023-10-21T15:26:57.933870Z,1697902017933
0.2153000831604004,0.5053834915161133,-0.10697472095489502,2023-10-21T15:26:57.957314Z,1697902017957
0.2100052833557129,0.49312877655029297,-0.1067512035369873,2023-10-21T15:26:57.974484Z,1697902017974
0.2031385898590088,0.47771644592285156,-0.10511445999145508,2023-10-21T15:26:57.994761Z,1697902017994
0.19478273391723633,0.4590616226196289,-0.10203242301940918,2023-10-21T15:26:58.014977Z,1697902018014
0.1857311725616455,0.4388895034790039,-0.09791016578674316,2023-10-21T15:26:58.035141Z,1697902018035
0.17701029777526855,0.4193105697631836,-0.09327530860900879,2023-10-21T15:26:58.057121Z,1697902018057
0.1688835620880127,0.40068626403808594,-0.08826327323913574,2023-10-21T15:26:58.075782Z,1697902018075
0.16080260276794434,0.3813447952270508,-0.08263421058654785,2023-10-21T15:26:58.096052Z,1697902018095
0.15163636207580566,0.3584785461425781,-0.07593369483947754,2023-10-21T15:26:58.116296Z,1697902018116
0.14113831520080566,0.33154964447021484,-0.06828570365905762,2023-10-21T15:26:58.140298Z,1697902018140
0.12993073463439941,0.30229854583740234,-0.06022930145263672,2023-10-21T15:26:58.157008Z,1697902018156
0.1192924976348877,0.2741508483886719,-0.0525740385055542,2023-10-21T15:26:58.177101Z,1697902018177
0.11039972305297852,0.2502431869506836,-0.04596090316772461,2023-10-21T15:26:58.197324Z,1697902018197
0.10366487503051758,0.23163318634033203,-0.04054379463195801,2023-10-21T15:26:58.217573Z,1697902018217
0.09936046600341797,0.21887874603271484,-0.03632986545562744,2023-10-21T15:26:58.240197Z,1697902018240
0.09749507904052734,0.2119617462158203,-0.033196210861206055,2023-10-21T15:26:58.258174Z,1697902018258
0.09830379486083984,0.21133899688720703,-0.03107929229736328,2023-10-21T15:26:58.278462Z,1697902018278
0.10221385955810547,0.21798038482666016,-0.029933691024780273,2023-10-21T15:26:58.298614Z,1697902018298
0.10987091064453125,0.23331928253173828,-0.029735207557678223,2023-10-21T15:26:58.323494Z,1697902018323
0.12177610397338867,0.25862979888916016,-0.030373573303222656,2023-10-21T15:26:58.340149Z,1697902018340
0.13774585723876953,0.2939014434814453,-0.031571388244628906,2023-10-21T15:26:58.359486Z,1697902018359
0.15708017349243164,0.33804798126220703,-0.03296619653701782,2023-10-21T15:26:58.379756Z,1697902018379
0.17893552780151367,0.38951873779296875,-0.03417247533798218,2023-10-21T15:26:58.399914Z,1697902018399
0.2026519775390625,0.4471244812011719,-0.03488689661026001,2023-10-21T15:26:58.423533Z,1697902018423
0.22708630561828613,0.5086250305175781,-0.03476667404174805,2023-10-21T15:26:58.440480Z,1697902018440
0.2501857280731201,0.5698318481445312,-0.03343886137008667,2023-10-21T15:26:58.460823Z,1697902018460
0.2694227695465088,0.6255273818969727,-0.030687153339385986,2023-10-21T15:26:58.480968Z,1697902018480
0.2826850414276123,0.6711301803588867,-0.026561856269836426,2023-10-21T15:26:58.501193Z,1697902018501
0.28908562660217285,0.7040500640869141,-0.021384596824645996,2023-10-21T15:26:58.523419Z,1697902018523
0.28931355476379395,0.7245798110961914,-0.015665888786315918,2023-10-21T15:26:58.541899Z,1697902018541
0.28469109535217285,0.7345762252807617,-0.009875878691673279,2023-10-21T15:26:58.562115Z,1697902018562
0.27613329887390137,0.7353076934814453,-0.004343222826719284,2023-10-21T15:26:58.582458Z,1697902018582
0.26369714736938477,0.726719856262207,8.439132943749428E-4,2023-10-21T15:26:58.606977Z,1697902018606
0.24760079383850098,0.708308219909668,0.005583956837654114,2023-10-21T15:26:58.624227Z,1697902018624
0.22893261909484863,0.6813821792602539,0.009725645184516907,2023-10-21T15:26:58.643269Z,1697902018643
0.20963239669799805,0.6493024826049805,0.013046741485595703,2023-10-21T15:26:58.663589Z,1697902018663
0.19134902954101562,0.6151609420776367,0.01543620228767395,2023-10-21T15:26:58.683744Z,1697902018683
0.1746835708618164,0.580230712890625,0.017006754875183105,2023-10-21T15:26:58.706710Z,1697902018706
0.1591331958770752,0.5436697006225586,0.017931222915649414,2023-10-21T15:26:58.724188Z,1697902018724
0.14353728294372559,0.5027942657470703,0.01833164691925049,2023-10-21T15:26:58.744474Z,1697902018744
0.1270744800567627,0.4550895690917969,0.0182475745677948,2023-10-21T15:26:58.764699Z,1697902018764
0.10962080955505371,0.3996925354003906,0.01764678955078125,2023-10-21T15:26:58.789937Z,1697902018789
0.09122610092163086,0.3363838195800781,0.016368627548217773,2023-10-21T15:26:58.806782Z,1697902018806
0.07157182693481445,0.2649269104003906,0.014199972152709961,2023-10-21T15:26:58.825514Z,1697902018825
0.04978346824645996,0.1837930679321289,0.01083308458328247,2023-10-21T15:26:58.845739Z,1697902018845
0.025246143341064453,0.0924997329711914,0.006002306938171387,2023-10-21T15:26:58.865956Z,1697902018865
-0.002276897430419922,-0.008246421813964844,-5.907416343688965E-4,2023-10-21T15:26:58.889972Z,1697902018889
-0.03272724151611328,-0.11679744720458984,-0.009241938591003418,2023-10-21T15:26:58.906555Z,1697902018906
-0.0658562183380127,-0.23067283630371094,-0.020088136196136475,2023-10-21T15:26:58.926879Z,1697902018926
-0.10111403465270996,-0.3458900451660156,-0.03288644552230835,2023-10-21T15:26:58.947105Z,1697902018947
-0.1371440887451172,-0.45572566986083984,-0.04677891731262207,2023-10-21T15:26:58.967285Z,1697902018967
-0.17209768295288086,-0.5529088973999023,-0.06042248010635376,2023-10-21T15:26:58.989841Z,1697902018989
-0.20360136032104492,-0.6304492950439453,-0.07221931219100952,2023-10-21T15:26:59.007913Z,1697902019007
-0.22881531715393066,-0.6820783615112305,-0.08056771755218506,2023-10-21T15:26:59.028191Z,1697902019028
-0.24524307250976562,-0.7033891677856445,-0.08434104919433594,2023-10-21T15:26:59.048388Z,1697902019048
-0.25153255462646484,-0.6936264038085938,-0.08330762386322021,2023-10-21T15:26:59.073101Z,1697902019073
-0.24720382690429688,-0.654240608215332,-0.07777369022369385,2023-10-21T15:26:59.089838Z,1697902019089
-0.23188495635986328,-0.5876455307006836,-0.06836867332458496,2023-10-21T15:26:59.109223Z,1697902019109
-0.20443391799926758,-0.49610042572021484,-0.05585449934005737,2023-10-21T15:26:59.129442Z,1697902019129
-0.16459965705871582,-0.3837728500366211,-0.04141271114349365,2023-10-21T15:26:59.149651Z,1697902019149
-0.1145625114440918,-0.2582998275756836,-0.02655029296875,2023-10-21T15:26:59.173094Z,1697902019173
-0.05826258659362793,-0.1280221939086914,-0.012503504753112793,2023-10-21T15:26:59.190281Z,1697902019190
1.3208389282226562E-4,2.8514862060546875E-4,2.7358531951904297E-5,2023-10-21T15:26:59.210926Z,1697902019210
0.05716133117675781,0.12162590026855469,0.01062929630279541,2023-10-21T15:26:59.230828Z,1697902019230
0.1103963851928711,0.2326669692993164,0.019033730030059814,2023-10-21T15:26:59.250999Z,1697902019250
0.15820026397705078,0.33174991607666016,0.025024890899658203,2023-10-21T15:26:59.273146Z,1697902019273
0.19921445846557617,0.41850757598876953,0.028468668460845947,2023-10-21T15:26:59.291674Z,1697902019291
0.2327132225036621,0.4938545227050781,0.029434800148010254,2023-10-21T15:26:59.311899Z,1697902019311
0.2589092254638672,0.5590839385986328,0.028159260749816895,2023-10-21T15:26:59.332135Z,1697902019332
0.2790336608886719,0.6159372329711914,0.02498072385787964,2023-10-21T15:26:59.356333Z,1697902019356
0.29454469680786133,0.6658029556274414,0.020192950963974,2023-10-21T15:26:59.373408Z,1697902019373
0.30651021003723145,0.7096261978149414,0.014100953936576843,2023-10-21T15:26:59.392997Z,1697902019392
0.315518856048584,0.7478580474853516,0.007062070071697235,2023-10-21T15:26:59.413193Z,1697902019413
0.321857213973999,0.7806568145751953,-6.330730393528938E-4,2023-10-21T15:26:59.433570Z,1697902019433
0.3255887031555176,0.8080911636352539,-0.008697740733623505,2023-10-21T15:26:59.457462Z,1697902019457
0.3267405033111572,0.8296318054199219,-0.016810551285743713,2023-10-21T15:26:59.474177Z,1697902019474
0.3255436420440674,0.8444185256958008,-0.024501681327819824,2023-10-21T15:26:59.494334Z,1697902019494
0.3221268653869629,0.8508796691894531,-0.03132462501525879,2023-10-21T15:26:59.514645Z,1697902019514
0.315692663192749,0.84490966796875,-0.03684413433074951,2023-10-21T15:26:59.539531Z,1697902019539
0.30480074882507324,0.8222532272338867,-0.040810734033584595,2023-10-21T15:26:59.556801Z,1697902019556
0.28851866722106934,0.781463623046875,-0.04318869113922119,2023-10-21T15:26:59.575344Z,1697902019575
0.2663693428039551,0.723668098449707,-0.043978333473205566,2023-10-21T15:26:59.595706Z,1697902019595
0.2385387420654297,0.6514863967895508,-0.04320758581161499,2023-10-21T15:26:59.615797Z,1697902019615
0.20522141456604004,0.5657167434692383,-0.040606558322906494,2023-10-21T15:26:59.639784Z,1697902019639
0.16752099990844727,0.4678382873535156,-0.03598684072494507,2023-10-21T15:26:59.656301Z,1697902019656
0.12804889678955078,0.3627767562866211,-0.02960735559463501,2023-10-21T15:26:59.676602Z,1697902019676
0.08955693244934082,0.25715160369873047,-0.022088050842285156,2023-10-21T15:26:59.696935Z,1697902019696
0.05446743965148926,0.15814876556396484,-0.014215648174285889,2023-10-21T15:26:59.717117Z,1697902019717
0.02501535415649414,0.07331657409667969,-0.006858348846435547,2023-10-21T15:26:59.739373Z,1697902019739
0.0028612613677978516,0.008458137512207031,-8.181333541870117E-4,2023-10-21T15:26:59.757712Z,1697902019757
-0.01153564453125,-0.034374237060546875,0.0033954977989196777,2023-10-21T15:26:59.777933Z,1697902019777
-0.01869368553161621,-0.05601692199707031,0.005588054656982422,2023-10-21T15:26:59.798168Z,1697902019798
-0.01917862892150879,-0.05752277374267578,0.005723416805267334,2023-10-21T15:26:59.822770Z,1697902019822
-0.012490510940551758,-0.037299156188964844,0.00365293025970459,2023-10-21T15:26:59.839289Z,1697902019839
0.0022377967834472656,0.006628990173339844,-6.316304206848145E-4,2023-10-21T15:26:59.859085Z,1697902019858
0.024455547332763672,0.07196331024169922,-0.0065743327140808105,2023-10-21T15:26:59.879247Z,1697902019879
0.051995038986206055,0.15272998809814453,-0.013199388980865479,2023-10-21T15:26:59.899481Z,1697902019899
0.0813148021697998,0.2404165267944336,-0.01930546760559082,2023-10-21T15:26:59.922603Z,1697902019922
0.10867714881896973,0.32651329040527344,-0.023777008056640625,2023-10-21T15:26:59.940093Z,1697902019939
0.13105440139770508,0.40371036529541016,-0.0258103609085083,2023-10-21T15:26:59.960386Z,1697902019960
0.14699769020080566,0.4679136276245117,-0.02514106035232544,2023-10-21T15:26:59.980597Z,1697902019980
0.15602731704711914,0.5169658660888672,-0.02198287844657898,2023-10-21T15:27:00.000811Z,1697902020000
0.15837788581848145,0.5503377914428711,-0.016891777515411377,2023-10-21T15:27:00.022658Z,1697902020022
0.1547563076019287,0.5686397552490234,-0.010534271597862244,2023-10-21T15:27:00.041368Z,1697902020041
0.14611506462097168,0.5726785659790039,-0.003568410873413086,2023-10-21T15:27:00.061586Z,1697902020061
0.13371610641479492,0.5638151168823242,0.0033918172121047974,2023-10-21T15:27:00.081799Z,1697902020081
0.11906242370605469,0.5441341400146484,0.009803727269172668,2023-10-21T15:27:00.105944Z,1697902020105
0.10383081436157227,0.5167961120605469,0.015321195125579834,2023-10-21T15:27:00.122812Z,1697902020122
0.08964300155639648,0.48601627349853516,0.019756853580474854,2023-10-21T15:27:00.142675Z,1697902020142
0.07755959033966064,0.45610618591308594,0.023141980171203613,2023-10-21T15:27:00.162823Z,1697902020162
0.06751644611358643,0.4281349182128906,0.025552749633789062,2023-10-21T15:27:00.183077Z,1697902020183
0.05894958972930908,0.401153564453125,0.02711397409439087,2023-10-21T15:27:00.205654Z,1697902020205
0.05105912685394287,0.3722267150878906,0.02784937620162964,2023-10-21T15:27:00.223701Z,1697902020223
0.04326522350311279,0.33793067932128906,0.02758610248565674,2023-10-21T15:27:00.243962Z,1697902020243
0.035292625427246094,0.29518604278564453,0.026048481464385986,2023-10-21T15:27:00.264209Z,1697902020264
0.02717137336730957,0.24232006072998047,0.022969186305999756,2023-10-21T15:27:00.289336Z,1697902020289
0.018952369689941406,0.17864322662353516,0.018108248710632324,2023-10-21T15:27:00.306483Z,1697902020306
0.010542452335357666,0.10398578643798828,0.011223912239074707,2023-10-21T15:27:00.325099Z,1697902020325
0.0017697811126708984,0.01813793182373047,0.00207674503326416,2023-10-21T15:27:00.345527Z,1697902020345
-0.00754392147064209,-0.0798635482788086,-0.009667634963989258,2023-10-21T15:27:00.365557Z,1697902020365
-0.017402291297912598,-0.18840312957763672,-0.02401447296142578,2023-10-21T15:27:00.389024Z,1697902020388
-0.027997970581054688,-0.30358314514160156,-0.04046070575714111,2023-10-21T15:27:00.406597Z,1697902020406
-0.039778947830200195,-0.41877269744873047,-0.05769062042236328,2023-10-21T15:27:00.426354Z,1697902020426
-0.05318450927734375,-0.5256710052490234,-0.07372415065765381,2023-10-21T15:27:00.446583Z,1697902020446
-0.06816625595092773,-0.6155109405517578,-0.08634376525878906,2023-10-21T15:27:00.466807Z,1697902020466
-0.08391356468200684,-0.6813335418701172,-0.09382081031799316,2023-10-21T15:27:00.488735Z,1697902020488
-0.09872245788574219,-0.7170028686523438,-0.09501683712005615,2023-10-21T15:27:00.507384Z,1697902020507
-0.11031615734100342,-0.7183952331542969,-0.08980894088745117,2023-10-21T15:27:00.527639Z,1697902020527
-0.11601543426513672,-0.6828269958496094,-0.07890594005584717,2023-10-21T15:27:00.547819Z,1697902020547
-0.11343669891357422,-0.6107034683227539,-0.063956618309021,2023-10-21T15:27:00.572154Z,1697902020572
-0.10123884677886963,-0.5059385299682617,-0.047191083431243896,2023-10-21T15:27:00.588746Z,1697902020588
-0.07956039905548096,-0.37505149841308594,-0.030760526657104492,2023-10-21T15:27:00.608688Z,1697902020608
-0.050156354904174805,-0.22654056549072266,-0.016232311725616455,2023-10-21T15:27:00.628916Z,1697902020628
-0.015821218490600586,-0.06946372985839844,-0.0043526291847229,2023-10-21T15:27:00.649149Z,1697902020649
0.020212173461914062,0.08736324310302734,0.004819512367248535,2023-10-21T15:27:00.672453Z,1697902020672
0.05516624450683594,0.23729705810546875,0.011656403541564941,2023-10-21T15:27:00.689787Z,1697902020689
0.08683228492736816,0.37511730194091797,0.01661050319671631,2023-10-21T15:27:00.710126Z,1697902020710
0.11388373374938965,0.4976978302001953,0.02008196711540222,2023-10-21T15:27:00.730351Z,1697902020730
0.1356184482574463,0.6028842926025391,0.022338151931762695,2023-10-21T15:27:00.755651Z,1697902020755
0.15233564376831055,0.6916732788085938,0.02353230118751526,2023-10-21T15:27:00.772355Z,1697902020772
0.16462922096252441,0.7660636901855469,0.02371308207511902,2023-10-21T15:27:00.791114Z,1697902020791
0.17303228378295898,0.8280086517333984,0.022898435592651367,2023-10-21T15:27:00.811339Z,1697902020811
0.1776515245437622,0.8776187896728516,0.02112409472465515,2023-10-21T15:27:00.831675Z,1697902020831
0.17841196060180664,0.9136781692504883,0.018465429544448853,2023-10-21T15:27:00.856136Z,1697902020856
0.1754307746887207,0.9354591369628906,0.01503993570804596,2023-10-21T15:27:00.872112Z,1697902020872
0.16902506351470947,0.9429960250854492,0.011015675961971283,2023-10-21T15:27:00.892524Z,1697902020892
0.15961408615112305,0.9369325637817383,0.006705529987812042,2023-10-21T15:27:00.912654Z,1697902020912
0.14766812324523926,0.9183149337768555,0.0024338532239198685,2023-10-21T15:27:00.932951Z,1697902020932
0.13365912437438965,0.8879976272583008,-0.001480070874094963,2023-10-21T15:27:00.955416Z,1697902020955
0.11817216873168945,0.8466510772705078,-0.004842747002840042,2023-10-21T15:27:00.973445Z,1697902020973
0.10190904140472412,0.7942447662353516,-0.007550127804279327,2023-10-21T15:27:00.993704Z,1697902020993
0.085540771484375,0.7296895980834961,-0.009529128670692444,2023-10-21T15:27:01.013998Z,1697902021013
0.06966197490692139,0.6520547866821289,-0.01073022186756134,2023-10-21T15:27:01.038344Z,1697902021038
0.054706037044525146,0.5611858367919922,-0.011067822575569153,2023-10-21T15:27:01.054917Z,1697902021054
0.04115724563598633,0.4602928161621094,-0.010526254773139954,2023-10-21T15:27:01.074783Z,1697902021074
0.029401659965515137,0.35524940490722656,-0.00921371579170227,2023-10-21T15:27:01.095137Z,1697902021095
0.01961982250213623,0.25275230407714844,-0.007315605878829956,2023-10-21T15:27:01.115282Z,1697902021115
0.011758267879486084,0.1587533950805664,-0.005067735910415649,2023-10-21T15:27:01.138369Z,1697902021138
0.005554556846618652,0.0770120620727539,-0.0026828646659851074,2023-10-21T15:27:01.155922Z,1697902021155
7.205009460449219E-4,0.010038375854492188,-3.7732720375061035E-4,2023-10-21T15:27:01.176469Z,1697902021176
-0.002835094928741455,-0.03892993927001953,0.0015560388565063477,2023-10-21T15:27:01.196473Z,1697902021196
-0.004898965358734131,-0.06537818908691406,0.002748847007751465,2023-10-21T15:27:01.216623Z,1697902021216
-0.005012035369873047,-0.06442737579345703,0.0028137564659118652,2023-10-21T15:27:01.238330Z,1697902021238
-0.002781689167022705,-0.03429698944091797,0.0015305578708648682,2023-10-21T15:27:01.257377Z,1697902021257
0.001722872257232666,0.020374298095703125,-9.08970832824707E-4,2023-10-21T15:27:01.277616Z,1697902021277
0.007935702800750732,0.09023475646972656,-0.003920197486877441,2023-10-21T15:27:01.297697Z,1697902021297
0.01506870985031128,0.1652078628540039,-0.006785005331039429,2023-10-21T15:27:01.321554Z,1697902021321
0.022479712963104248,0.23860549926757812,-0.009008854627609253,2023-10-21T15:27:01.338291Z,1697902021338
0.029883146286010742,0.3085775375366211,-0.010435342788696289,2023-10-21T15:27:01.358572Z,1697902021358
0.037198424339294434,0.37581920623779297,-0.01109418272972107,2023-10-21T15:27:01.378749Z,1697902021378
0.044328510761260986,0.4403963088989258,-0.010995924472808838,2023-10-21T15:27:01.398965Z,1697902021398
0.051091790199279785,0.5002841949462891,-0.010100826621055603,2023-10-21T15:27:01.421558Z,1697902021421
0.05724465847015381,0.5515413284301758,-0.008394196629524231,2023-10-21T15:27:01.439611Z,1697902021439
0.06274914741516113,0.5915298461914062,-0.0060610175132751465,2023-10-21T15:27:01.459863Z,1697902021459
0.06774258613586426,0.6196498870849609,-0.00340435653924942,2023-10-21T15:27:01.480056Z,1697902021479
0.07239210605621338,0.637263298034668,-7.453588768839836E-4,2023-10-21T15:27:01.504868Z,1697902021504
0.07678258419036865,0.6463127136230469,0.0017184186726808548,2023-10-21T15:27:01.521505Z,1697902021521
0.08088183403015137,0.648097038269043,0.0039365217089653015,2023-10-21T15:27:01.540959Z,1697902021540
0.0845479965209961,0.642857551574707,0.005914442241191864,2023-10-21T15:27:01.561153Z,1697902021561
0.0874091386795044,0.6290826797485352,0.007683873176574707,2023-10-21T15:27:01.581353Z,1697902021581
0.08881819248199463,0.604151725769043,0.009220123291015625,2023-10-21T15:27:01.604622Z,1697902021604
0.08797562122344971,0.5656986236572266,0.01044619083404541,2023-10-21T15:27:01.621986Z,1697902021621
0.08415758609771729,0.5127267837524414,0.011216074228286743,2023-10-21T15:27:01.642290Z,1697902021642
0.07698547840118408,0.4462909698486328,0.011388391256332397,2023-10-21T15:27:01.662470Z,1697902021662
0.06635689735412598,0.36800479888916016,0.010831177234649658,2023-10-21T15:27:01.682605Z,1697902021682
0.05224311351776123,0.27868080139160156,0.009396672248840332,2023-10-21T15:27:01.704700Z,1697902021704
0.03471565246582031,0.1788625717163086,0.006865739822387695,2023-10-21T15:27:01.723305Z,1697902021723
0.014020919799804688,0.06993865966796875,0.003025561571121216,2023-10-21T15:27:01.743527Z,1697902021743
-0.00900888442993164,-0.04355621337890625,-0.0020844638347625732,2023-10-21T15:27:01.763704Z,1697902021763
-0.0329897403717041,-0.1545886993408203,-0.008005023002624512,2023-10-21T15:27:01.788033Z,1697902021787
-0.05613589286804199,-0.25510501861572266,-0.013916015625,2023-10-21T15:27:01.804743Z,1697902021804
-0.0764610767364502,-0.3373279571533203,-0.01887434720993042,2023-10-21T15:27:01.824637Z,1697902021824
-0.0919809341430664,-0.39452266693115234,-0.022089481353759766,2023-10-21T15:27:01.844853Z,1697902021844
-0.10128068923950195,-0.4229774475097656,-0.023188889026641846,2023-10-21T15:27:01.865104Z,1697902021865
-0.10359716415405273,-0.42194271087646484,-0.02220490574836731,2023-10-21T15:27:01.887799Z,1697902021887
-0.09853267669677734,-0.3924398422241211,-0.01943337917327881,2023-10-21T15:27:01.905703Z,1697902021905
-0.08576226234436035,-0.33570194244384766,-0.015333712100982666,2023-10-21T15:27:01.925962Z,1697902021925
-0.06536626815795898,-0.2534322738647461,-0.01049494743347168,2023-10-21T15:27:01.946106Z,1697902021946
-0.0386815071105957,-0.15010547637939453,-0.005602836608886719,2023-10-21T15:27:01.971090Z,1697902021970
-0.008378982543945312,-0.032927513122558594,-0.0011181831359863281,2023-10-21T15:27:01.988108Z,1697902021987
0.02249312400817871,0.090545654296875,0.002879500389099121,2023-10-21T15:27:02.007034Z,1697902022006
0.05130577087402344,0.21381759643554688,0.006572127342224121,2023-10-21T15:27:02.027288Z,1697902022027
0.07600831985473633,0.3310689926147461,0.010122120380401611,2023-10-21T15:27:02.047546Z,1697902022047
0.09525704383850098,0.4376668930053711,0.01353675127029419,2023-10-21T15:27:02.071400Z,1697902022071
0.10860466957092285,0.5315523147583008,0.016730129718780518,2023-10-21T15:27:02.088460Z,1697902022088
0.11638855934143066,0.6132497787475586,0.019556641578674316,2023-10-21T15:27:02.108254Z,1697902022108
0.11922764778137207,0.6835908889770508,0.02187412977218628,2023-10-21T15:27:02.128476Z,1697902022128
0.11781787872314453,0.7424402236938477,0.023539334535598755,2023-10-21T15:27:02.148718Z,1697902022148
0.1129845380783081,0.7889251708984375,0.02435988187789917,2023-10-21T15:27:02.170904Z,1697902022170
0.10578703880310059,0.8237266540527344,0.02418401837348938,2023-10-21T15:27:02.189254Z,1697902022189
0.09724879264831543,0.8492488861083984,0.0229356586933136,2023-10-21T15:27:02.209561Z,1697902022209
0.0879209041595459,0.8676443099975586,0.020718812942504883,2023-10-21T15:27:02.229830Z,1697902022229
0.07796293497085571,0.8794221878051758,0.017781615257263184,2023-10-21T15:27:02.254638Z,1697902022254
0.06744450330734253,0.8834390640258789,0.014461249113082886,2023-10-21T15:27:02.270966Z,1697902022270
0.0566638708114624,0.8781042098999023,0.011031091213226318,2023-10-21T15:27:02.290629Z,1697902022290
0.04619830846786499,0.8630475997924805,0.007674172520637512,2023-10-21T15:27:02.310895Z,1697902022310
0.0366024374961853,0.8379135131835938,0.004464339464902878,2023-10-21T15:27:02.331520Z,1697902022331
0.028192847967147827,0.8007564544677734,0.0014691948890686035,2023-10-21T15:27:02.354280Z,1697902022354
0.021066904067993164,0.7485675811767578,-0.0011984370648860931,2023-10-21T15:27:02.371715Z,1697902022371
0.015259474515914917,0.6792802810668945,-0.003365851938724518,2023-10-21T15:27:02.391948Z,1697902022391
0.010810554027557373,0.5930509567260742,-0.00490434467792511,2023-10-21T15:27:02.412124Z,1697902022412
0.00770840048789978,0.49242496490478516,-0.005738556385040283,2023-10-21T15:27:02.432358Z,1697902022432
0.005739614367485046,0.38233184814453125,-0.005859076976776123,2023-10-21T15:27:02.453993Z,1697902022453
0.004471138119697571,0.2692842483520508,-0.005247920751571655,2023-10-21T15:27:02.472990Z,1697902022472
0.003299131989479065,0.1604633331298828,-0.0038914084434509277,2023-10-21T15:27:02.493312Z,1697902022493
0.001641303300857544,0.061229705810546875,-0.0018048584461212158,2023-10-21T15:27:02.513701Z,1697902022513
-8.493363857269287E-4,-0.02419757843017578,8.479952812194824E-4,2023-10-21T15:27:02.537557Z,1697902022537
-0.004094243049621582,-0.0908803939819336,0.003674417734146118,2023-10-21T15:27:02.554172Z,1697902022554
-0.007520139217376709,-0.13318729400634766,0.0060606300830841064,2023-10-21T15:27:02.574453Z,1697902022574
-0.01020050048828125,-0.1474905014038086,0.007371097803115845,2023-10-21T15:27:02.594548Z,1697902022594
-0.011150240898132324,-0.13439083099365234,0.007195532321929932,2023-10-21T15:27:02.614755Z,1697902022614
-0.009519040584564209,-0.0974111557006836,0.005459129810333252,2023-10-21T15:27:02.637550Z,1697902022637
-0.00468134880065918,-0.04135894775390625,0.0023730993270874023,2023-10-21T15:27:02.655441Z,1697902022655
0.003683805465698242,0.02854156494140625,-0.0016446709632873535,2023-10-21T15:27:02.675869Z,1697902022675
0.015403985977172852,0.1062459945678711,-0.006025910377502441,2023-10-21T15:27:02.695881Z,1697902022695
0.029889345169067383,0.18608474731445312,-0.010190069675445557,2023-10-21T15:27:02.720441Z,1697902022720
0.04634296894073486,0.2636432647705078,-0.013684868812561035,2023-10-21T15:27:02.737158Z,1697902022737
0.06383848190307617,0.3354816436767578,-0.016198724508285522,2023-10-21T15:27:02.756809Z,1697902022756
0.08146750926971436,0.39928150177001953,-0.017606765031814575,2023-10-21T15:27:02.776945Z,1697902022776
0.09843087196350098,0.45377445220947266,-0.017960786819458008,2023-10-21T15:27:02.797163Z,1697902022797
0.11413216590881348,0.49866771697998047,-0.017459630966186523,2023-10-21T15:27:02.820409Z,1697902022820
0.1281726360321045,0.5343751907348633,-0.016338706016540527,2023-10-21T15:27:02.837819Z,1697902022837
0.1401805877685547,0.5612936019897461,-0.014795392751693726,2023-10-21T15:27:02.858092Z,1697902022857
0.15001511573791504,0.5804891586303711,-0.013013273477554321,2023-10-21T15:27:02.878246Z,1697902022878
0.15770554542541504,0.5933351516723633,-0.011110559105873108,2023-10-21T15:27:02.898458Z,1697902022898
0.16328144073486328,0.6006793975830078,-0.009125083684921265,2023-10-21T15:27:02.920353Z,1697902022920
0.16649770736694336,0.6019506454467773,-0.006996877491474152,2023-10-21T15:27:02.939122Z,1697902022939
0.16691207885742188,0.5955953598022461,-0.004657141864299774,2023-10-21T15:27:02.959319Z,1697902022959
0.16388916969299316,0.5793247222900391,-0.0020888298749923706,2023-10-21T15:27:02.979607Z,1697902022979
0.15689826011657715,0.5513429641723633,6.383825093507767E-4,2023-10-21T15:27:03.003692Z,1697902023003
0.14581871032714844,0.5113468170166016,0.003352738916873932,2023-10-21T15:27:03.020444Z,1697902023020
0.13084149360656738,0.4598407745361328,0.00581774115562439,2023-10-21T15:27:03.040440Z,1697902023040
0.11240482330322266,0.39766502380371094,0.00774894654750824,2023-10-21T15:27:03.060691Z,1697902023060
0.09088993072509766,0.3249969482421875,0.008790045976638794,2023-10-21T15:27:03.080921Z,1697902023080
0.06669330596923828,0.24185466766357422,0.00851622223854065,2023-10-21T15:27:03.103631Z,1697902023103
0.040706634521484375,0.15009784698486328,0.006558358669281006,2023-10-21T15:27:03.121499Z,1697902023121
0.014488935470581055,0.05443000793457031,0.002835869789123535,2023-10-21T15:27:03.141766Z,1697902023141
-0.01007986068725586,-0.038654327392578125,-0.00231856107711792,2023-10-21T15:27:03.161959Z,1697902023161
-0.031132221221923828,-0.12215518951416016,-0.008183479309082031,2023-10-21T15:27:03.186884Z,1697902023186
-0.047455787658691406,-0.19110774993896484,-0.01396256685256958,2023-10-21T15:27:03.203664Z,1697902023203
-0.05861973762512207,-0.24311351776123047,-0.01902294158935547,2023-10-21T15:27:03.222814Z,1697902023222
-0.06464934349060059,-0.2769756317138672,-0.022891104221343994,2023-10-21T15:27:03.243048Z,1697902023242
-0.06551432609558105,-0.29062652587890625,-0.025063812732696533,2023-10-21T15:27:03.263219Z,1697902023263
-0.06120109558105469,-0.28162384033203125,-0.025056779384613037,2023-10-21T15:27:03.286859Z,1697902023286
-0.0520784854888916,-0.24919700622558594,-0.02265346050262451,2023-10-21T15:27:03.304057Z,1697902023303
-0.039168477058410645,-0.1956958770751953,-0.01807194948196411,2023-10-21T15:27:03.324247Z,1697902023324
-0.02417600154876709,-0.12688446044921875,-0.011894285678863525,2023-10-21T15:27:03.344309Z,1697902023344
-0.00891733169555664,-0.04950523376464844,-0.004723668098449707,2023-10-21T15:27:03.364504Z,1697902023364
0.0049353837966918945,0.02916240692138672,0.00284653902053833,2023-10-21T15:27:03.386742Z,1697902023386
0.016436219215393066,0.10378551483154297,0.010419249534606934,2023-10-21T15:27:03.405181Z,1697902023405
0.025362014770507812,0.1714944839477539,0.017721176147460938,2023-10-21T15:27:03.425398Z,1697902023425
0.03205525875091553,0.23221302032470703,0.02463376522064209,2023-10-21T15:27:03.445622Z,1697902023445
0.03693866729736328,0.28663063049316406,0.031013131141662598,2023-10-21T15:27:03.470137Z,1697902023470
0.04040729999542236,0.3357400894165039,0.03672385215759277,2023-10-21T15:27:03.487171Z,1697902023487
0.04290616512298584,0.38109302520751953,0.04170835018157959,2023-10-21T15:27:03.506488Z,1697902023506
0.044948577880859375,0.42499828338623047,0.04599308967590332,2023-10-21T15:27:03.526738Z,1697902023526
0.047003209590911865,0.46993350982666016,0.04965329170227051,2023-10-21T15:27:03.546929Z,1697902023546
0.049317896366119385,0.5174350738525391,0.052683234214782715,2023-10-21T15:27:03.569848Z,1697902023569
0.05196613073348999,0.5682821273803711,0.055015742778778076,2023-10-21T15:27:03.587593Z,1697902023587
0.05480450391769409,0.6219120025634766,0.05652898550033569,2023-10-21T15:27:03.607812Z,1697902023607
0.057511866092681885,0.67596435546875,0.05706208944320679,2023-10-21T15:27:03.628090Z,1697902023628
0.05961775779724121,0.7257223129272461,0.05645751953125,2023-10-21T15:27:03.648290Z,1697902023648
0.06069684028625488,0.7654619216918945,0.05465048551559448,2023-10-21T15:27:03.669891Z,1697902023669
0.060546040534973145,0.7899360656738281,0.051692306995391846,2023-10-21T15:27:03.688860Z,1697902023688
0.05930858850479126,0.796107292175293,0.04767203330993652,2023-10-21T15:27:03.709126Z,1697902023709
0.05726093053817749,0.7825527191162109,0.0426754355430603,2023-10-21T15:27:03.729284Z,1697902023729
0.05467355251312256,0.7493572235107422,0.03679180145263672,2023-10-21T15:27:03.753181Z,1697902023753
0.051596224308013916,0.6965847015380859,0.03020063042640686,2023-10-21T15:27:03.770218Z,1697902023770
0.047817111015319824,0.6244277954101562,0.023237884044647217,2023-10-21T15:27:03.790256Z,1697902023790
0.04304778575897217,0.5343418121337891,0.01636946201324463,2023-10-21T15:27:03.810406Z,1697902023810
0.03705960512161255,0.4303865432739258,0.010144934058189392,2023-10-21T15:27:03.830578Z,1697902023830
0.02982097864151001,0.31969451904296875,0.005094751715660095,2023-10-21T15:27:03.853097Z,1697902023853
0.021557092666625977,0.2112579345703125,0.0016319677233695984,2023-10-21T15:27:03.871357Z,1697902023871
0.01289522647857666,0.1148691177368164,-1.1801254004240036E-4,2023-10-21T15:27:03.891553Z,1697902023891
0.004636526107788086,0.03750038146972656,-3.770366311073303E-4,2023-10-21T15:27:03.911799Z,1697902023911
-0.0024203062057495117,-0.017816543579101562,3.37064266204834E-4,2023-10-21T15:27:03.936518Z,1697902023936
-0.0077326297760009766,-0.05206775665283203,0.0014213323593139648,2023-10-21T15:27:03.953196Z,1697902023953
-0.010752320289611816,-0.06661701202392578,0.0023278892040252686,2023-10-21T15:27:03.972557Z,1697902023972
-0.010609149932861328,-0.06082439422607422,0.0025430917739868164,2023-10-21T15:27:03.992737Z,1697902023992
-0.006175994873046875,-0.032958984375,0.001576840877532959,2023-10-21T15:27:04.013129Z,1697902024012
0.0033060312271118164,0.016521453857421875,-8.744001388549805E-4,2023-10-21T15:27:04.036455Z,1697902024036
0.01769113540649414,0.08330631256103516,-0.004742860794067383,2023-10-21T15:27:04.053599Z,1697902024053
0.03576946258544922,0.15962505340576172,-0.009526312351226807,2023-10-21T15:27:04.073905Z,1697902024073
0.055448293685913086,0.2357492446899414,-0.01440882682800293,2023-10-21T15:27:04.094101Z,1697902024094
0.07455015182495117,0.3034553527832031,-0.018619000911712646,2023-10-21T15:27:04.114300Z,1697902024114
0.09149646759033203,0.3582420349121094,-0.02168828248977661,2023-10-21T15:27:04.136274Z,1697902024136
0.10575175285339355,0.40021324157714844,-0.023542284965515137,2023-10-21T15:27:04.154974Z,1697902024154
0.11748313903808594,0.4319324493408203,-0.024332106113433838,2023-10-21T15:27:04.175151Z,1697902024175
0.12691688537597656,0.45560359954833984,-0.024238407611846924,2023-10-21T15:27:04.195405Z,1697902024195
0.13402009010314941,0.47194862365722656,-0.02338084578514099,2023-10-21T15:27:04.219731Z,1697902024219
0.13881874084472656,0.4814157485961914,-0.021921277046203613,2023-10-21T15:27:04.236208Z,1697902024236
0.1414783000946045,0.4848041534423828,-0.020041584968566895,2023-10-21T15:27:04.256242Z,1697902024256
0.14229917526245117,0.4833860397338867,-0.017905324697494507,2023-10-21T15:27:04.276472Z,1697902024276
0.14165902137756348,0.47861576080322266,-0.015603125095367432,2023-10-21T15:27:04.296729Z,1697902024296
0.14014768600463867,0.4725055694580078,-0.013211548328399658,2023-10-21T15:27:04.319460Z,1697902024319
0.1383347511291504,0.46681785583496094,-0.010736584663391113,2023-10-21T15:27:04.337307Z,1697902024337
0.13650846481323242,0.46222877502441406,-0.008152425289154053,2023-10-21T15:27:04.357562Z,1697902024357
0.13433241844177246,0.4572486877441406,-0.005400732159614563,2023-10-21T15:27:04.377747Z,1697902024377
0.1308286190032959,0.44835948944091797,-0.0024422071874141693,2023-10-21T15:27:04.402795Z,1697902024402
0.1249237060546875,0.4317970275878906,6.442712619900703E-4,2023-10-21T15:27:04.419463Z,1697902024419
0.11602950096130371,0.4054536819458008,0.0036601051688194275,2023-10-21T15:27:04.438622Z,1697902024438
0.10421037673950195,0.36920166015625,0.006369039416313171,2023-10-21T15:27:04.458856Z,1697902024458
0.08977150917053223,0.32340431213378906,0.00848233699798584,2023-10-21T15:27:04.479062Z,1697902024478
0.0727376937866211,0.26715850830078125,0.009620219469070435,2023-10-21T15:27:04.502757Z,1697902024502
0.05289268493652344,0.19846248626708984,0.00923427939414978,2023-10-21T15:27:04.519935Z,1697902024519
0.03041219711303711,0.1166982650756836,0.006707489490509033,2023-10-21T15:27:04.539970Z,1697902024539
0.006420612335205078,0.025201797485351562,0.0017231106758117676,2023-10-21T15:27:04.560310Z,1697902024560
-0.01727294921875,-0.06932353973388672,-0.0054587721824646,2023-10-21T15:27:04.580333Z,1697902024580
-0.038561344146728516,-0.1582193374633789,-0.013971984386444092,2023-10-21T15:27:04.602570Z,1697902024602
-0.05565953254699707,-0.23348426818847656,-0.022644340991973877,2023-10-21T15:27:04.620901Z,1697902024620
-0.06742310523986816,-0.2892332077026367,-0.03030294179916382,2023-10-21T15:27:04.641193Z,1697902024641
-0.07356548309326172,-0.3227806091308594,-0.03603363037109375,2023-10-21T15:27:04.661373Z,1697902024661
-0.07418131828308105,-0.3329429626464844,-0.0390777587890625,2023-10-21T15:27:04.685645Z,1697902024685
-0.06952524185180664,-0.3194160461425781,-0.03892695903778076,2023-10-21T15:27:04.702384Z,1697902024702
-0.05980050563812256,-0.28179359436035156,-0.035286784172058105,2023-10-21T15:27:04.722256Z,1697902024722
-0.04551386833190918,-0.2208852767944336,-0.028222203254699707,2023-10-21T15:27:04.742602Z,1697902024742
-0.0278012752532959,-0.1397705078125,-0.01816737651824951,2023-10-21T15:27:04.762706Z,1697902024762
-0.008202195167541504,-0.04298591613769531,-0.005683779716491699,2023-10-21T15:27:04.785831Z,1697902024785
0.011618375778198242,0.06381893157958984,0.008587479591369629,2023-10-21T15:27:04.803858Z,1697902024803
0.030112862586975098,0.17401790618896484,0.023801803588867188,2023-10-21T15:27:04.823560Z,1697902024823
0.04606521129608154,0.28048038482666016,0.038909077644348145,2023-10-21T15:27:04.843847Z,1697902024843
0.05885624885559082,0.3775291442871094,0.0528796911239624,2023-10-21T15:27:04.864191Z,1697902024864
0.06844878196716309,0.46205997467041016,0.06496047973632812,2023-10-21T15:27:04.885952Z,1697902024885
0.07537853717803955,0.5344467163085938,0.07483088970184326,2023-10-21T15:27:04.904664Z,1697902024904
0.08031046390533447,0.5965070724487305,0.08239638805389404,2023-10-21T15:27:04.924939Z,1697902024924
0.08376801013946533,0.6496334075927734,0.08761060237884521,2023-10-21T15:27:04.945146Z,1697902024945
0.08597242832183838,0.6936407089233398,0.090362548828125,2023-10-21T15:27:04.969473Z,1697902024969
0.08695733547210693,0.7276124954223633,0.09061336517333984,2023-10-21T15:27:04.986154Z,1697902024986
0.08675932884216309,0.751042366027832,0.08851265907287598,2023-10-21T15:27:05.005921Z,1697902025005
0.08553993701934814,0.7650594711303711,0.08445024490356445,2023-10-21T15:27:05.026569Z,1697902025026
0.08343350887298584,0.7713327407836914,0.07895064353942871,2023-10-21T15:27:05.046445Z,1697902025046
0.08048510551452637,0.7705326080322266,0.07245314121246338,2023-10-21T15:27:05.069476Z,1697902025069
0.07674586772918701,0.7624015808105469,0.06529581546783447,2023-10-21T15:27:05.087039Z,1697902025086
0.07233572006225586,0.7459211349487305,0.057673633098602295,2023-10-21T15:27:05.107327Z,1697902025107
0.06751668453216553,0.720128059387207,0.04967391490936279,2023-10-21T15:27:05.127436Z,1697902025127
0.06256026029586792,0.6840801239013672,0.0413782000541687,2023-10-21T15:27:05.152095Z,1697902025152
0.057641029357910156,0.6372671127319336,0.03295403718948364,2023-10-21T15:27:05.168701Z,1697902025168
0.05269354581832886,0.5786304473876953,0.024677306413650513,2023-10-21T15:27:05.188286Z,1697902025188
0.04749560356140137,0.5078716278076172,0.016912877559661865,2023-10-21T15:27:05.208517Z,1697902025208
0.041694581508636475,0.42570018768310547,0.010068371891975403,2023-10-21T15:27:05.228784Z,1697902025228
0.034972429275512695,0.33501338958740234,0.004551902413368225,2023-10-21T15:27:05.254775Z,1697902025254
0.02716243267059326,0.24086856842041016,7.351133972406387E-4,2023-10-21T15:27:05.269431Z,1697902025269
0.018322110176086426,0.14911365509033203,-0.0011798664927482605,2023-10-21T15:27:05.289670Z,1697902025289
0.008748054504394531,0.06509685516357422,-0.0012418031692504883,2023-10-21T15:27:05.309869Z,1697902025309
-0.0010263919830322266,-0.006987571716308594,2.0954012870788574E-4,2023-10-21T15:27:05.330284Z,1697902025329
-0.01031649112701416,-0.06453895568847656,0.002604871988296509,2023-10-21T15:27:05.352167Z,1697902025352
-0.01828789710998535,-0.10583782196044922,0.005267590284347534,2023-10-21T15:27:05.370811Z,1697902025370
-0.0238112211227417,-0.1285247802734375,0.007458865642547607,2023-10-21T15:27:05.390968Z,1697902025390
-0.02570629119873047,-0.13056659698486328,0.008485376834869385,2023-10-21T15:27:05.411205Z,1697902025411
-0.0230255126953125,-0.11102581024169922,0.007816970348358154,2023-10-21T15:27:05.435513Z,1697902025435
-0.015270471572875977,-0.07047843933105469,0.005222737789154053,2023-10-21T15:27:05.451914Z,1697902025451
-0.0025594234466552734,-0.011385917663574219,8.637309074401855E-4,2023-10-21T15:27:05.472137Z,1697902025471
0.01436924934387207,0.06196308135986328,-0.004709959030151367,2023-10-21T15:27:05.492284Z,1697902025492
0.03421926498413086,0.14360904693603516,-0.010696113109588623,2023-10-21T15:27:05.512468Z,1697902025512
0.0553441047668457,0.22670841217041016,-0.016245543956756592,2023-10-21T15:27:05.535200Z,1697902025535
0.07644367218017578,0.3063468933105469,-0.020773649215698242,2023-10-21T15:27:05.553118Z,1697902025553
0.09657096862792969,0.3793954849243164,-0.023963451385498047,2023-10-21T15:27:05.573381Z,1697902025573
0.11499762535095215,0.4438447952270508,-0.0257185697555542,2023-10-21T15:27:05.593550Z,1697902025593
0.13107514381408691,0.4979362487792969,-0.026084482669830322,2023-10-21T15:27:05.618711Z,1697902025618
0.14429521560668945,0.5403404235839844,-0.02523210644721985,2023-10-21T15:27:05.635484Z,1697902025635
0.15431857109069824,0.5702295303344727,-0.023429274559020996,2023-10-21T15:27:05.654438Z,1697902025654
0.16104507446289062,0.5878133773803711,-0.020956963300704956,2023-10-21T15:27:05.674679Z,1697902025674
0.16454458236694336,0.5943269729614258,-0.018057793378829956,2023-10-21T15:27:05.694887Z,1697902025694
0.16520214080810547,0.5922021865844727,-0.014893710613250732,2023-10-21T15:27:05.718578Z,1697902025718
0.16359853744506836,0.5841999053955078,-0.011524483561515808,2023-10-21T15:27:05.735429Z,1697902025735
0.16024541854858398,0.5721607208251953,-0.007933631539344788,2023-10-21T15:27:05.755728Z,1697902025755
0.15530610084533691,0.556187629699707,-0.004122965037822723,2023-10-21T15:27:05.775968Z,1697902025775
0.14861702919006348,0.5349836349487305,-1.6161194071173668E-4,2023-10-21T15:27:05.796280Z,1697902025796
0.13990187644958496,0.5070581436157227,0.0037672296166419983,2023-10-21T15:27:05.818319Z,1697902025818
0.12898921966552734,0.47146034240722656,0.007400929927825928,2023-10-21T15:27:05.836798Z,1697902025836
0.11603999137878418,0.42856407165527344,0.010487064719200134,2023-10-21T15:27:05.857075Z,1697902025857
0.10136961936950684,0.3791494369506836,0.012784719467163086,2023-10-21T15:27:05.877292Z,1697902025877
0.0851895809173584,0.32331371307373047,0.014045685529708862,2023-10-21T15:27:05.901799Z,1697902025901
0.06739544868469238,0.25985145568847656,0.013917505741119385,2023-10-21T15:27:05.918281Z,1697902025918
0.0478513240814209,0.1874523162841797,0.011982440948486328,2023-10-21T15:27:05.938135Z,1697902025938
0.02676987648010254,0.10644912719726562,0.00789862871170044,2023-10-21T15:27:05.958341Z,1697902025958
0.005133390426635742,0.020689010620117188,0.0017383098602294922,2023-10-21T15:27:05.978606Z,1697902025978
-0.015545845031738281,-0.06340312957763672,-0.005897402763366699,2023-10-21T15:27:06.001690Z,1697902026001
-0.03365588188171387,-0.13892269134521484,-0.014038026332855225,2023-10-21T15:27:06.019174Z,1697902026019
-0.0479738712310791,-0.20070934295654297,-0.02171611785888672,2023-10-21T15:27:06.039539Z,1697902026039
-0.05799221992492676,-0.2464437484741211,-0.028238773345947266,2023-10-21T15:27:06.059720Z,1697902026059
-0.06368589401245117,-0.2754030227661133,-0.033130645751953125,2023-10-21T15:27:06.085224Z,1697902026085
-0.06490445137023926,-0.28592967987060547,-0.03581535816192627,2023-10-21T15:27:06.101832Z,1697902026101
-0.06139826774597168,-0.2758903503417969,-0.03568267822265625,2023-10-21T15:27:06.120512Z,1697902026120
-0.05312037467956543,-0.24415969848632812,-0.03236246109008789,2023-10-21T15:27:06.140833Z,1697902026140
-0.0405116081237793,-0.191497802734375,-0.02587759494781494,2023-10-21T15:27:06.161047Z,1697902026160
-0.024672746658325195,-0.12083911895751953,-0.016602158546447754,2023-10-21T15:27:06.185463Z,1697902026185
-0.0069686174392700195,-0.03562164306640625,-0.004970908164978027,2023-10-21T15:27:06.202243Z,1697902026202
0.011167407035827637,0.059920310974121094,0.00848245620727539,2023-10-21T15:27:06.221914Z,1697902026221
0.028401613235473633,0.16052913665771484,0.022991299629211426,2023-10-21T15:27:06.242136Z,1697902026242
0.0436631441116333,0.2605628967285156,0.03760826587677002,2023-10-21T15:27:06.262315Z,1697902026262
0.05625450611114502,0.3551654815673828,0.05141329765319824,2023-10-21T15:27:06.285083Z,1697902026285
0.0656815767288208,0.43988895416259766,0.06355094909667969,2023-10-21T15:27:06.302772Z,1697902026302
0.07193565368652344,0.5122165679931641,0.07344985008239746,2023-10-21T15:27:06.323031Z,1697902026322
0.07563328742980957,0.5728797912597656,0.08097898960113525,2023-10-21T15:27:06.343234Z,1697902026343
0.07761168479919434,0.6239852905273438,0.08616113662719727,2023-10-21T15:27:06.368285Z,1697902026368
0.07860362529754639,0.6679725646972656,0.08910179138183594,2023-10-21T15:27:06.384650Z,1697902026384
0.07887256145477295,0.7053394317626953,0.08980953693389893,2023-10-21T15:27:06.404181Z,1697902026404
0.07845175266265869,0.7357015609741211,0.08836698532104492,2023-10-21T15:27:06.424413Z,1697902026424
0.07741236686706543,0.7594575881958008,0.08506238460540771,2023-10-21T15:27:06.444592Z,1697902026444
0.0758509635925293,0.7774200439453125,0.08028972148895264,2023-10-21T15:27:06.467859Z,1697902026467
0.0737878680229187,0.7899513244628906,0.0743909478187561,2023-10-21T15:27:06.485227Z,1697902026485
0.07126843929290771,0.7966146469116211,0.06761622428894043,2023-10-21T15:27:06.505546Z,1697902026505
0.06841045618057251,0.7970800399780273,0.060204505920410156,2023-10-21T15:27:06.525685Z,1697902026525
0.06538492441177368,0.7908945083618164,0.052330732345581055,2023-10-21T15:27:06.545924Z,1697902026545
0.062344491481781006,0.777557373046875,0.044162213802337646,2023-10-21T15:27:06.567892Z,1697902026567
0.05930614471435547,0.7557563781738281,0.03584557771682739,2023-10-21T15:27:06.586594Z,1697902026586
0.056125104427337646,0.7227306365966797,0.027559489011764526,2023-10-21T15:27:06.606787Z,1697902026606
0.05267179012298584,0.6762008666992188,0.019568800926208496,2023-10-21T15:27:06.626995Z,1697902026626
0.04894816875457764,0.6158370971679688,0.012182235717773438,2023-10-21T15:27:06.651232Z,1697902026651
0.04501521587371826,0.5439987182617188,0.005694352090358734,2023-10-21T15:27:06.667811Z,1697902026667
0.04091084003448486,0.4652252197265625,3.6206748336553574E-4,2023-10-21T15:27:06.687989Z,1697902026687
0.0365145206451416,0.3843212127685547,-0.0036133602261543274,2023-10-21T15:27:06.708086Z,1697902026708
0.03164970874786377,0.3051939010620117,-0.00609743595123291,2023-10-21T15:27:06.728319Z,1697902026728
0.02633190155029297,0.23148441314697266,-0.0071013569831848145,2023-10-21T15:27:06.751227Z,1697902026751
0.020888924598693848,0.16714191436767578,-0.00687795877456665,2023-10-21T15:27:06.768971Z,1697902026768
0.015962958335876465,0.11628532409667969,-0.005943953990936279,2023-10-21T15:27:06.789222Z,1697902026789
0.012587904930114746,0.08366584777832031,-0.005051255226135254,2023-10-21T15:27:06.809419Z,1697902026809
0.011756062507629395,0.07167243957519531,-0.004922151565551758,2023-10-21T15:27:06.834368Z,1697902026834
0.013971805572509766,0.07876873016357422,-0.005969882011413574,2023-10-21T15:27:06.851060Z,1697902026850
0.01917564868927002,0.100921630859375,-0.008215487003326416,2023-10-21T15:27:06.870269Z,1697902026870
0.026922941207885742,0.13349151611328125,-0.011393129825592041,2023-10-21T15:27:06.890463Z,1697902026890
0.03688645362854004,0.1736459732055664,-0.015211045742034912,2023-10-21T15:27:06.910698Z,1697902026910
0.04895591735839844,0.22017478942871094,-0.019429147243499756,2023-10-21T15:27:06.934291Z,1697902026934
0.06282687187194824,0.2713937759399414,-0.023748278617858887,2023-10-21T15:27:06.951266Z,1697902026951
0.07771658897399902,0.32413482666015625,-0.02773141860961914,2023-10-21T15:27:06.971588Z,1697902026971
0.09245181083679199,0.37421226501464844,-0.030896782875061035,2023-10-21T15:27:06.991810Z,1697902026991
0.10547399520874023,0.41619873046875,-0.03275609016418457,2023-10-21T15:27:07.011959Z,1697902027011
0.11553072929382324,0.4456777572631836,-0.03307372331619263,2023-10-21T15:27:07.034203Z,1697902027034
0.12194561958312988,0.46041393280029297,-0.031916260719299316,2023-10-21T15:27:07.052632Z,1697902027052
0.12484526634216309,0.46135425567626953,-0.029624581336975098,2023-10-21T15:27:07.072826Z,1697902027072
0.1249382495880127,0.45195865631103516,-0.02665191888809204,2023-10-21T15:27:07.093048Z,1697902027092
0.12338042259216309,0.43733978271484375,-0.02343064546585083,2023-10-21T15:27:07.117426Z,1697902027117
0.12125921249389648,0.4220542907714844,-0.020243197679519653,2023-10-21T15:27:07.134432Z,1697902027134
0.11929655075073242,0.4089851379394531,-0.01718670129776001,2023-10-21T15:27:07.153961Z,1697902027153
0.11739373207092285,0.39787960052490234,-0.014151990413665771,2023-10-21T15:27:07.174163Z,1697902027174
0.11482954025268555,0.3862762451171875,-0.010978132486343384,2023-10-21T15:27:07.194395Z,1697902027194
0.11091494560241699,0.37180233001708984,-0.007588520646095276,2023-10-21T15:27:07.217423Z,1697902027217
0.10546278953552246,0.3537101745605469,-0.004051387310028076,2023-10-21T15:27:07.235031Z,1697902027234
0.0987241268157959,0.3326873779296875,-5.46969473361969E-4,2023-10-21T15:27:07.255408Z,1697902027255
0.09073972702026367,0.30867767333984375,0.002741605043411255,2023-10-21T15:27:07.275487Z,1697902027275
0.08112573623657227,0.2799348831176758,0.005587294697761536,2023-10-21T15:27:07.300693Z,1697902027300
0.0691838264465332,0.24319171905517578,0.0076483190059661865,2023-10-21T15:27:07.317385Z,1697902027317
0.05457139015197754,0.1959686279296875,0.008468836545944214,2023-10-21T15:27:07.336307Z,1697902027336
0.03743743896484375,0.1374835968017578,0.0075865983963012695,2023-10-21T15:27:07.356530Z,1697902027356
0.018616199493408203,0.06986522674560547,0.004694461822509766,2023-10-21T15:27:07.376781Z,1697902027376
-7.691383361816406E-4,-0.0029478073120117188,-2.3227930068969727E-4,2023-10-21T15:27:07.401200Z,1697902027400
-0.01957845687866211,-0.07618522644042969,-0.006903111934661865,2023-10-21T15:27:07.417383Z,1697902027417
-0.036962032318115234,-0.14577293395996094,-0.014802098274230957,2023-10-21T15:27:07.437645Z,1697902027437
-0.05228590965270996,-0.20842742919921875,-0.023303627967834473,2023-10-21T15:27:07.457958Z,1697902027457
-0.06507205963134766,-0.2615470886230469,-0.031754255294799805,2023-10-21T15:27:07.478133Z,1697902027478
-0.074951171875,-0.3031272888183594,-0.039546966552734375,2023-10-21T15:27:07.500561Z,1697902027500
-0.08132457733154297,-0.33050537109375,-0.04595649242401123,2023-10-21T15:27:07.518723Z,1697902027518
-0.08339095115661621,-0.34065818786621094,-0.05012476444244385,2023-10-21T15:27:07.538983Z,1697902027538
-0.0802907943725586,-0.33042335510253906,-0.05105876922607422,2023-10-21T15:27:07.559165Z,1697902027559
-0.07169389724731445,-0.2984504699707031,-0.048044562339782715,2023-10-21T15:27:07.583846Z,1697902027583
-0.05799221992492676,-0.24549007415771484,-0.040848612785339355,2023-10-21T15:27:07.600609Z,1697902027600
-0.0404810905456543,-0.1752767562866211,-0.029950499534606934,2023-10-21T15:27:07.620066Z,1697902027619
-0.020830869674682617,-0.09277534484863281,-0.016202688217163086,2023-10-21T15:27:07.640245Z,1697902027640
-8.380413055419922E-4,-0.0038576126098632812,-6.848573684692383E-4,2023-10-21T15:27:07.660609Z,1697902027660
0.018239498138427734,0.08703327178955078,0.015716910362243652,2023-10-21T15:27:07.683818Z,1697902027683
0.035776615142822266,0.17736244201660156,0.0323789119720459,2023-10-21T15:27:07.701053Z,1697902027700
0.05143427848815918,0.26517581939697266,0.048682570457458496,2023-10-21T15:27:07.721361Z,1697902027721
0.06476259231567383,0.34735679626464844,0.06378233432769775,2023-10-21T15:27:07.741529Z,1697902027741
0.07515859603881836,0.4193000793457031,0.07666754722595215,2023-10-21T15:27:07.761713Z,1697902027761
0.08233201503753662,0.47737884521484375,0.08662581443786621,2023-10-21T15:27:07.783830Z,1697902027783
0.08656132221221924,0.520909309387207,0.09352314472198486,2023-10-21T15:27:07.802434Z,1697902027802
0.0886620283126831,0.5527877807617188,0.09783124923706055,2023-10-21T15:27:07.822620Z,1697902027822
0.08952367305755615,0.5772151947021484,0.10024523735046387,2023-10-21T15:27:07.842860Z,1697902027842
0.08982789516448975,0.5982685089111328,0.10144543647766113,2023-10-21T15:27:07.866959Z,1697902027866
0.0898735523223877,0.6181526184082031,0.10181331634521484,2023-10-21T15:27:07.883667Z,1697902027883
0.0897064208984375,0.637446403503418,0.10149204730987549,2023-10-21T15:27:07.903741Z,1697902027903
0.08916473388671875,0.6547689437866211,0.1003333330154419,2023-10-21T15:27:07.923910Z,1697902027923
0.08804750442504883,0.6672935485839844,0.09801411628723145,2023-10-21T15:27:07.944096Z,1697902027944
0.08623695373535156,0.6718015670776367,0.09416639804840088,2023-10-21T15:27:07.966994Z,1697902027966
0.08375930786132812,0.6657257080078125,0.08850526809692383,2023-10-21T15:27:07.984749Z,1697902027984
0.08075320720672607,0.648040771484375,0.08098340034484863,2023-10-21T15:27:08.005001Z,1697902028004
0.07734942436218262,0.6192073822021484,0.07182848453521729,2023-10-21T15:27:08.025223Z,1697902028025
0.07347118854522705,0.5796699523925781,0.061426520347595215,2023-10-21T15:27:08.050201Z,1697902028050
0.0688554048538208,0.5294761657714844,0.05029827356338501,2023-10-21T15:27:08.066971Z,1697902028066
0.06304216384887695,0.46780967712402344,0.0389750599861145,2023-10-21T15:27:08.086161Z,1697902028085
0.05550241470336914,0.39394092559814453,0.028022706508636475,2023-10-21T15:27:08.106354Z,1697902028106
0.04591989517211914,0.3093423843383789,0.01810765266418457,2023-10-21T15:27:08.126538Z,1697902028126
0.03434789180755615,0.2182321548461914,0.009934484958648682,2023-10-21T15:27:08.150092Z,1697902028149
0.021396398544311523,0.12775897979736328,0.004102617502212524,2023-10-21T15:27:08.167089Z,1697902028167
0.008126497268676758,0.04556751251220703,8.439123630523682E-4,2023-10-21T15:27:08.187562Z,1697902028187
-0.004352927207946777,-0.022970199584960938,-1.1487305164337158E-4,2023-10-21T15:27:08.207671Z,1697902028207
-0.014905214309692383,-0.07422256469726562,5.82277774810791E-4,2023-10-21T15:27:08.227872Z,1697902028227
-0.02196812629699707,-0.10361576080322266,0.002084478735923767,2023-10-21T15:27:08.250049Z,1697902028249
-0.02350163459777832,-0.10541915893554688,0.0033492743968963623,2023-10-21T15:27:08.268438Z,1697902028268
-0.017475605010986328,-0.07487678527832031,0.003199070692062378,2023-10-21T15:27:08.288648Z,1697902028288
-0.003086090087890625,-0.0126953125,6.687045097351074E-4,2023-10-21T15:27:08.308979Z,1697902028308
0.018666505813598633,0.07410240173339844,-0.004527747631072998,2023-10-21T15:27:08.333281Z,1697902028333
0.045384883880615234,0.17495441436767578,-0.011839866638183594,2023-10-21T15:27:08.349949Z,1697902028349
0.07404112815856934,0.2789440155029297,-0.020171701908111572,2023-10-21T15:27:08.369750Z,1697902028369
0.10191535949707031,0.3777475357055664,-0.028381824493408203,2023-10-21T15:27:08.390003Z,1697902028389
0.12704253196716309,0.46636962890625,-0.035617947578430176,2023-10-21T15:27:08.410174Z,1697902028410
0.1482996940612793,0.5427684783935547,-0.0414082407951355,2023-10-21T15:27:08.433194Z,1697902028433
0.1648576259613037,0.6052570343017578,-0.0454554557800293,2023-10-21T15:27:08.450837Z,1697902028450
0.17606782913208008,0.6518468856811523,-0.047548532485961914,2023-10-21T15:27:08.471150Z,1697902028471
0.18149518966674805,0.6802434921264648,-0.04756033420562744,2023-10-21T15:27:08.491281Z,1697902028491
0.1817467212677002,0.6913337707519531,-0.045773327350616455,2023-10-21T15:27:08.516547Z,1697902028516
0.1782519817352295,0.6891231536865234,-0.042757272720336914,2023-10-21T15:27:08.533454Z,1697902028533
0.17264723777770996,0.6788120269775391,-0.03906148672103882,2023-10-21T15:27:08.552148Z,1697902028552
0.1661210060119629,0.6641969680786133,-0.035002946853637695,2023-10-21T15:27:08.572362Z,1697902028572
0.15928363800048828,0.6471729278564453,-0.030674010515213013,2023-10-21T15:27:08.592511Z,1697902028592
0.1522541046142578,0.6280269622802734,-0.026076406240463257,2023-10-21T15:27:08.616498Z,1697902028616
0.14472532272338867,0.6054248809814453,-0.02114427089691162,2023-10-21T15:27:08.633125Z,1697902028633
0.136061429977417,0.5768880844116211,-0.01583564281463623,2023-10-21T15:27:08.653456Z,1697902028653
0.12560701370239258,0.5397891998291016,-0.010244384407997131,2023-10-21T15:27:08.673711Z,1697902028673
0.11306428909301758,0.49294185638427734,-0.004713036119937897,2023-10-21T15:27:08.693857Z,1697902028693
0.09854865074157715,0.4367103576660156,2.887723967432976E-4,2023-10-21T15:27:08.716486Z,1697902028716
0.08226299285888672,0.37143516540527344,0.004280395805835724,2023-10-21T15:27:08.734582Z,1697902028734
0.06430292129516602,0.2964916229248047,0.0067825764417648315,2023-10-21T15:27:08.754772Z,1697902028754
0.04457449913024902,0.21016693115234375,0.007272928953170776,2023-10-21T15:27:08.774985Z,1697902028774
0.023067951202392578,0.1112060546875,0.005166411399841309,2023-10-21T15:27:08.799766Z,1697902028799
4.439353942871094E-4,0.0021800994873046875,1.2731552124023438E-4,2023-10-21T15:27:08.816603Z,1697902028816
-0.02202129364013672,-0.1101694107055664,-0.007569253444671631,2023-10-21T15:27:08.835834Z,1697902028835
-0.04281723499298096,-0.21675682067871094,-0.01691281795501709,2023-10-21T15:27:08.856062Z,1697902028855
-0.06071114540100098,-0.309234619140625,-0.026514172554016113,2023-10-21T15:27:08.876250Z,1697902028876
-0.07479739189147949,-0.3810396194458008,-0.034995079040527344,2023-10-21T15:27:08.899570Z,1697902028899
-0.08456659317016602,-0.4285259246826172,-0.0413474440574646,2023-10-21T15:27:08.916859Z,1697902028916
-0.08964002132415771,-0.4499082565307617,-0.044946491718292236,2023-10-21T15:27:08.937162Z,1697902028937
-0.08965826034545898,-0.44486045837402344,-0.045521318912506104,2023-10-21T15:27:08.957337Z,1697902028957
-0.08420515060424805,-0.41350746154785156,-0.04302722215652466,2023-10-21T15:27:08.977553Z,1697902028977
-0.07283520698547363,-0.35553932189941406,-0.03744065761566162,2023-10-21T15:27:08.999640Z,1697902028999
-0.055982232093811035,-0.2736024856567383,-0.029119133949279785,2023-10-21T15:27:09.018251Z,1697902029018
-0.035111188888549805,-0.17334938049316406,-0.018683791160583496,2023-10-21T15:27:09.038457Z,1697902029038
-0.012337565422058105,-0.0621185302734375,-0.006805300712585449,2023-10-21T15:27:09.058680Z,1697902029058
0.010355353355407715,0.05368995666503906,0.005998134613037109,2023-10-21T15:27:09.082826Z,1697902029082
0.031334519386291504,0.16873455047607422,0.01924753189086914,2023-10-21T15:27:09.099498Z,1697902029099
0.049455881118774414,0.27866458892822266,0.032402992248535156,2023-10-21T15:27:09.119530Z,1697902029119
0.06408560276031494,0.38014888763427734,0.04488813877105713,2023-10-21T15:27:09.139746Z,1697902029139
0.07531046867370605,0.4722318649291992,0.056241512298583984,2023-10-21T15:27:09.160036Z,1697902029159
0.08366918563842773,0.5552911758422852,0.06605911254882812,2023-10-21T15:27:09.182851Z,1697902029182
0.08961987495422363,0.6285085678100586,0.07386219501495361,2023-10-21T15:27:09.200593Z,1697902029200
0.09354400634765625,0.6903276443481445,0.07925403118133545,2023-10-21T15:27:09.220868Z,1697902029220
0.0957026481628418,0.7387351989746094,0.0820227861404419,2023-10-21T15:27:09.240996Z,1697902029240
0.09632587432861328,0.7721233367919922,0.08214449882507324,2023-10-21T15:27:09.266018Z,1697902029265
0.09567821025848389,0.7899675369262695,0.07978463172912598,2023-10-21T15:27:09.282722Z,1697902029282
0.09398090839385986,0.7928962707519531,0.07526558637619019,2023-10-21T15:27:09.301892Z,1697902029301
0.0913611650466919,0.7827205657958984,0.06908524036407471,2023-10-21T15:27:09.322158Z,1697902029322
0.08786439895629883,0.7612791061401367,0.06174314022064209,2023-10-21T15:27:09.342422Z,1697902029342
0.08352935314178467,0.7301168441772461,0.05371081829071045,2023-10-21T15:27:09.365995Z,1697902029365
0.07844138145446777,0.6902961730957031,0.04535859823226929,2023-10-21T15:27:09.382844Z,1697902029382
0.07264268398284912,0.641444206237793,0.03693366050720215,2023-10-21T15:27:09.403237Z,1697902029403
0.06607282161712646,0.5820188522338867,0.028625309467315674,2023-10-21T15:27:09.423391Z,1697902029423
0.05854654312133789,0.5100307464599609,0.020697474479675293,2023-10-21T15:27:09.443594Z,1697902029443
0.050031185150146484,0.4261283874511719,0.01353415846824646,2023-10-21T15:27:09.465844Z,1697902029465
0.04063606262207031,0.33392906188964844,0.0075377970933914185,2023-10-21T15:27:09.484233Z,1697902029484
0.030465126037597656,0.23831844329833984,0.0030554980039596558,2023-10-21T15:27:09.504446Z,1697902029504
0.01961350440979004,0.1441965103149414,3.3425353467464447E-4,2023-10-21T15:27:09.524813Z,1697902029524
0.00809025764465332,0.05527973175048828,-4.9600750207901E-4,2023-10-21T15:27:09.549327Z,1697902029549
-0.004165291786193848,-0.026227951049804688,5.50493597984314E-4,2023-10-21T15:27:09.565848Z,1697902029565
-0.01691138744354248,-0.0975790023803711,0.00326615571975708,2023-10-21T15:27:09.585625Z,1697902029585
-0.028978347778320312,-0.15292644500732422,0.007097959518432617,2023-10-21T15:27:09.605772Z,1697902029605
-0.03800070285797119,-0.18363189697265625,0.010938286781311035,2023-10-21T15:27:09.625957Z,1697902029625
-0.04114365577697754,-0.1827869415283203,0.013272881507873535,2023-10-21T15:27:09.649243Z,1697902029649
-0.03682708740234375,-0.15139102935791016,0.01287466287612915,2023-10-21T15:27:09.666659Z,1697902029666
-0.025254487991333008,-0.09683990478515625,0.009328961372375488,2023-10-21T15:27:09.686916Z,1697902029686
-0.007811546325683594,-0.0281829833984375,0.00298994779586792,2023-10-21T15:27:09.707124Z,1697902029707
0.013796806335449219,0.04722309112548828,-0.005399346351623535,2023-10-21T15:27:09.732515Z,1697902029732
0.03832674026489258,0.12540531158447266,-0.0151824951171875,2023-10-21T15:27:09.749126Z,1697902029749
0.06536674499511719,0.2058858871459961,-0.026022791862487793,2023-10-21T15:27:09.767933Z,1697902029767
0.09452676773071289,0.2885293960571289,-0.037616610527038574,2023-10-21T15:27:09.788216Z,1697902029788
0.1245732307434082,0.37087249755859375,-0.04932105541229248,2023-10-21T15:27:09.808393Z,1697902029808
0.15306758880615234,0.44704437255859375,-0.060007572174072266,2023-10-21T15:27:09.832255Z,1697902029832
0.17767548561096191,0.5115213394165039,-0.06869733333587646,2023-10-21T15:27:09.849001Z,1697902029848
0.1977095603942871,0.5631580352783203,-0.07521665096282959,2023-10-21T15:27:09.869310Z,1697902029869
0.21363043785095215,0.603510856628418,-0.07989716529846191,2023-10-21T15:27:09.889563Z,1697902029889
0.22624611854553223,0.6348133087158203,-0.08316254615783691,2023-10-21T15:27:09.909684Z,1697902029909
0.2362964153289795,0.6591548919677734,-0.08538365364074707,2023-10-21T15:27:09.932242Z,1697902029932
0.24449586868286133,0.6788549423217773,-0.08695042133331299,2023-10-21T15:27:09.950373Z,1697902029950
0.25095152854919434,0.6947231292724609,-0.08804428577423096,2023-10-21T15:27:09.970638Z,1697902029970
0.25512194633483887,0.7055873870849609,-0.08855247497558594,2023-10-21T15:27:09.990830Z,1697902029990
0.2559945583343506,0.7087793350219727,-0.08811712265014648,2023-10-21T15:27:10.015593Z,1697902030015
0.25275254249572754,0.7020092010498047,-0.08642351627349854,2023-10-21T15:27:10.032176Z,1697902030032
0.24499106407165527,0.6840410232543945,-0.08331966400146484,2023-10-21T15:27:10.051695Z,1697902030051
0.23289728164672852,0.655268669128418,-0.07885551452636719,2023-10-21T15:27:10.071907Z,1697902030071
0.21665453910827637,0.6158924102783203,-0.07306289672851562,2023-10-21T15:27:10.092051Z,1697902030091
0.19624733924865723,0.5651397705078125,-0.06590902805328369,2023-10-21T15:27:10.116032Z,1697902030115
0.17136883735656738,0.5010080337524414,-0.0572890043258667,2023-10-21T15:27:10.133112Z,1697902030133
0.14209389686584473,0.42244434356689453,-0.047292351722717285,2023-10-21T15:27:10.153015Z,1697902030152
0.10992932319641113,0.3327178955078125,-0.03648638725280762,2023-10-21T15:27:10.173175Z,1697902030173
0.07724785804748535,0.2382354736328125,-0.025652289390563965,2023-10-21T15:27:10.193394Z,1697902030193
0.04681754112243652,0.14725685119628906,-0.015622496604919434,2023-10-21T15:27:10.216095Z,1697902030216
0.0211336612701416,0.06787109375,-0.007122457027435303,2023-10-21T15:27:10.234084Z,1697902030233
0.002158641815185547,0.007091522216796875,-7.391571998596191E-4,2023-10-21T15:27:10.254441Z,1697902030254
-0.009158849716186523,-0.030823707580566406,0.003204524517059326,2023-10-21T15:27:10.274561Z,1697902030274
-0.012413740158081055,-0.042911529541015625,0.004469633102416992,2023-10-21T15:27:10.298528Z,1697902030298
-0.008207321166992188,-0.029237747192382812,0.003064453601837158,2023-10-21T15:27:10.315401Z,1697902030315
0.002399444580078125,0.008845329284667969,-9.367465972900391E-4,2023-10-21T15:27:10.335441Z,1697902030335
0.01738595962524414,0.06658267974853516,-0.007110118865966797,2023-10-21T15:27:10.355577Z,1697902030355
0.03425788879394531,0.1368694305419922,-0.014728546142578125,2023-10-21T15:27:10.375813Z,1697902030375
0.0508732795715332,0.21284866333007812,-0.023024916648864746,2023-10-21T15:27:10.398440Z,1697902030398
0.06557822227478027,0.2883481979370117,-0.0313115119934082,2023-10-21T15:27:10.416345Z,1697902030416
0.07724237442016602,0.35810279846191406,-0.03906440734863281,2023-10-21T15:27:10.436611Z,1697902030436
0.08515000343322754,0.41737937927246094,-0.04587221145629883,2023-10-21T15:27:10.456804Z,1697902030456
0.08897054195404053,0.4621562957763672,-0.051371216773986816,2023-10-21T15:27:10.481406Z,1697902030481
0.08894705772399902,0.49062538146972656,-0.055387139320373535,2023-10-21T15:27:10.498264Z,1697902030498
0.08624768257141113,0.5060787200927734,-0.058284878730773926,2023-10-21T15:27:10.517724Z,1697902030517
0.08221149444580078,0.513911247253418,-0.060626864433288574,2023-10-21T15:27:10.537924Z,1697902030537
0.0781104564666748,0.5208358764648438,-0.0631335973739624,2023-10-21T15:27:10.558115Z,1697902030558
0.07458460330963135,0.5309572219848633,-0.06623387336730957,2023-10-21T15:27:10.581398Z,1697902030581
0.07184195518493652,0.5462236404418945,-0.07010316848754883,2023-10-21T15:27:10.598811Z,1697902030598
0.06984877586364746,0.56707763671875,-0.07470977306365967,2023-10-21T15:27:10.619039Z,1697902030618
0.06844723224639893,0.593052864074707,-0.07989144325256348,2023-10-21T15:27:10.639209Z,1697902030639
0.06743597984313965,0.6228294372558594,-0.08534908294677734,2023-10-21T15:27:10.659448Z,1697902030659
0.06662410497665405,0.6544017791748047,-0.09070491790771484,2023-10-21T15:27:10.681219Z,1697902030681
0.06581085920333862,0.6845579147338867,-0.09543490409851074,2023-10-21T15:27:10.700075Z,1697902030700
0.06477612257003784,0.7089300155639648,-0.09888124465942383,2023-10-21T15:27:10.720340Z,1697902030720
0.06328505277633667,0.7225503921508789,-0.10038220882415771,2023-10-21T15:27:10.740491Z,1697902030740
0.06113845109939575,0.7211933135986328,-0.09947538375854492,2023-10-21T15:27:10.764789Z,1697902030764
0.05808776617050171,0.7008094787597656,-0.09576547145843506,2023-10-21T15:27:10.781470Z,1697902030781
0.053930819034576416,0.6582231521606445,-0.08898282051086426,2023-10-21T15:27:10.801416Z,1697902030801
0.04879790544509888,0.5944337844848633,-0.07947051525115967,2023-10-21T15:27:10.821617Z,1697902030821
0.04300600290298462,0.5141620635986328,-0.06801033020019531,2023-10-21T15:27:10.841843Z,1697902030841
0.036914169788360596,0.42584896087646484,-0.05576753616333008,2023-10-21T15:27:10.864701Z,1697902030864
0.030678212642669678,0.3370962142944336,-0.043670654296875,2023-10-21T15:27:10.882513Z,1697902030882
0.024436593055725098,0.2540779113769531,-0.03245222568511963,2023-10-21T15:27:10.902787Z,1697902030902
0.018598318099975586,0.18279552459716797,-0.022866368293762207,2023-10-21T15:27:10.922917Z,1697902030922
0.013916969299316406,0.12950420379638672,-0.015707969665527344,2023-10-21T15:27:10.947829Z,1697902030947
0.011195182800292969,0.0988759994506836,-0.011469841003417969,2023-10-21T15:27:10.964657Z,1697902030964
0.011081933975219727,0.09315776824951172,-0.010156393051147461,2023-10-21T15:27:10.983794Z,1697902030983
0.01373291015625,0.11033344268798828,-0.011069536209106445,2023-10-21T15:27:11.004007Z,1697902031003
0.018525004386901855,0.14301204681396484,-0.012851595878601074,2023-10-21T15:27:11.024231Z,1697902031024
0.024408698081970215,0.18209552764892578,-0.014183878898620605,2023-10-21T15:27:11.047746Z,1697902031047
0.03033900260925293,0.21938610076904297,-0.014248311519622803,2023-10-21T15:27:11.064799Z,1697902031064
0.03625905513763428,0.2535991668701172,-0.013186216354370117,2023-10-21T15:27:11.085093Z,1697902031085
0.043019652366638184,0.28894805908203125,-0.011633992195129395,2023-10-21T15:27:11.105215Z,1697902031105
0.05159568786621094,0.3298187255859375,-0.010154575109481812,2023-10-21T15:27:11.125531Z,1697902031125
0.06213498115539551,0.37560176849365234,-0.009001538157463074,2023-10-21T15:27:11.147728Z,1697902031147
0.07415318489074707,0.42302894592285156,-0.008330881595611572,2023-10-21T15:27:11.166179Z,1697902031166
0.08683538436889648,0.46823978424072266,-0.00819513201713562,2023-10-21T15:27:11.186462Z,1697902031186
0.10000765323638916,0.5113906860351562,-0.008686721324920654,2023-10-21T15:27:11.206595Z,1697902031206
0.11389803886413574,0.5542182922363281,-0.00990268588066101,2023-10-21T15:27:11.231112Z,1697902031231
0.12874388694763184,0.5978803634643555,-0.011867880821228027,2023-10-21T15:27:11.247827Z,1697902031247
0.14423036575317383,0.6411905288696289,-0.014426276087760925,2023-10-21T15:27:11.267454Z,1697902031267
0.15900540351867676,0.6794281005859375,-0.017085731029510498,2023-10-21T15:27:11.287695Z,1697902031287
0.17078757286071777,0.7048873901367188,-0.019064128398895264,2023-10-21T15:27:11.307893Z,1697902031307
0.177534818649292,0.7109308242797852,-0.019663125276565552,2023-10-21T15:27:11.331074Z,1697902031331
0.1788344383239746,0.6967153549194336,-0.01883375644683838,2023-10-21T15:27:11.348466Z,1697902031348
0.17573881149291992,0.6662311553955078,-0.01708054542541504,2023-10-21T15:27:11.368934Z,1697902031368
0.17016363143920898,0.62640380859375,-0.015182003378868103,2023-10-21T15:27:11.389013Z,1697902031388
0.16369199752807617,0.5830144882202148,-0.013666227459907532,2023-10-21T15:27:11.409241Z,1697902031409
0.15739178657531738,0.5402975082397461,-0.01276029646396637,2023-10-21T15:27:11.431349Z,1697902031431
0.15177607536315918,0.5008945465087891,-0.012479782104492188,2023-10-21T15:27:11.449855Z,1697902031449
0.147172212600708,0.4664487838745117,-0.01272854208946228,2023-10-21T15:27:11.470162Z,1697902031470
0.1439063549041748,0.43805599212646484,-0.013430893421173096,2023-10-21T15:27:11.490469Z,1697902031490
0.14265012741088867,0.4173460006713867,-0.014576822519302368,2023-10-21T15:27:11.515587Z,1697902031515
0.1439974308013916,0.4054384231567383,-0.01622593402862549,2023-10-21T15:27:11.532240Z,1697902031532
0.14818596839904785,0.4023256301879883,-0.01839601993560791,2023-10-21T15:27:11.551176Z,1697902031551
0.1544780731201172,0.40564918518066406,-0.02094373106956482,2023-10-21T15:27:11.571423Z,1697902031571
0.16050481796264648,0.40944957733154297,-0.023351550102233887,2023-10-21T15:27:11.591635Z,1697902031591
0.1623854637145996,0.40462779998779297,-0.024726450443267822,2023-10-21T15:27:11.614634Z,1697902031614
0.15677261352539062,0.38373565673828125,-0.024281740188598633,2023-10-21T15:27:11.632155Z,1697902031632
0.14315462112426758,0.34588050842285156,-0.021955251693725586,2023-10-21T15:27:11.652463Z,1697902031652
0.12325620651245117,0.29503917694091797,-0.018321514129638672,2023-10-21T15:27:11.672577Z,1697902031672
0.10008478164672852,0.23803043365478516,-0.014217376708984375,2023-10-21T15:27:11.697522Z,1697902031697
0.07589125633239746,0.17974853515625,-0.01021653413772583,2023-10-21T15:27:11.714195Z,1697902031714
0.05221056938171387,0.12343120574951172,-0.006616711616516113,2023-10-21T15:27:11.733572Z,1697902031733
0.03022170066833496,0.0714712142944336,-0.0035809576511383057,2023-10-21T15:27:11.753748Z,1697902031753
0.010987997055053711,0.02603912353515625,-0.0012093782424926758,2023-10-21T15:27:11.774093Z,1697902031773
-0.0036211013793945312,-0.008604049682617188,3.6984682083129883E-4,2023-10-21T15:27:11.798314Z,1697902031798
-0.010833501815795898,-0.0258026123046875,0.0010454058647155762,2023-10-21T15:27:11.814652Z,1697902031814
-0.008548259735107422,-0.020399093627929688,8.03142786026001E-4,2023-10-21T15:27:11.847661Z,1697902031847
0.002819061279296875,0.006740570068359375,-2.6664137840270996E-4,2023-10-21T15:27:11.855090Z,1697902031854
0.020665645599365234,0.049594879150390625,-0.00203096866607666,2023-10-21T15:27:11.882141Z,1697902031882
0.041085243225097656,0.09913921356201172,-0.004210352897644043,2023-10-21T15:27:11.914319Z,1697902031914
0.060561418533325195,0.1472768783569336,-0.00643545389175415,2023-10-21T15:27:11.916879Z,1697902031916
0.07657623291015625,0.18799400329589844,-0.008351564407348633,2023-10-21T15:27:11.998557Z,1697902031998
0.08771204948425293,0.21753501892089844,-0.009741753339767456,2023-10-21T15:27:12.000935Z,1697902032000
0.09358930587768555,0.23449230194091797,-0.010568380355834961,2023-10-21T15:27:12.002858Z,1697902032002
0.09456729888916016,0.23933124542236328,-0.010903120040893555,2023-10-21T15:27:12.004850Z,1697902032004
0.09108996391296387,0.23279476165771484,-0.010801821947097778,2023-10-21T15:27:12.017174Z,1697902032017
0.08408713340759277,0.2168722152709961,-0.010353177785873413,2023-10-21T15:27:12.037449Z,1697902032037
0.07485580444335938,0.19460391998291016,-0.009669959545135498,2023-10-21T15:27:12.065132Z,1697902032065
0.06523346900939941,0.1706380844116211,-0.008959203958511353,2023-10-21T15:27:12.080732Z,1697902032080
0.05684351921081543,0.14929771423339844,-0.008416950702667236,2023-10-21T15:27:12.098316Z,1697902032098
0.051165103912353516,0.13468170166015625,-0.008265078067779541,2023-10-21T15:27:12.118533Z,1697902032118
0.04903364181518555,0.12920856475830078,-0.008703231811523438,2023-10-21T15:27:12.138723Z,1697902032138
0.05063605308532715,0.13358020782470703,-0.00989532470703125,2023-10-21T15:27:12.163935Z,1697902032163
0.055708885192871094,0.14726924896240234,-0.011949896812438965,2023-10-21T15:27:12.180675Z,1697902032180
0.06355142593383789,0.1686382293701172,-0.014872252941131592,2023-10-21T15:27:12.199618Z,1697902032199
0.07308435440063477,0.19507503509521484,-0.01851963996887207,2023-10-21T15:27:12.219827Z,1697902032219
0.0831599235534668,0.2238016128540039,-0.022652268409729004,2023-10-21T15:27:12.240071Z,1697902032240
0.0927433967590332,0.2523164749145508,-0.026979923248291016,2023-10-21T15:27:12.263788Z,1697902032263
0.10096859931945801,0.2784872055053711,-0.031185269355773926,2023-10-21T15:27:12.280607Z,1697902032280
0.10717272758483887,0.30058956146240234,-0.0349576473236084,2023-10-21T15:27:12.300946Z,1697902032300
0.11065411567687988,0.31659793853759766,-0.03792858123779297,2023-10-21T15:27:12.321074Z,1697902032321
0.11100935935974121,0.3250131607055664,-0.03980672359466553,2023-10-21T15:27:12.341340Z,1697902032341
0.10829639434814453,0.3253450393676758,-0.04046285152435303,2023-10-21T15:27:12.363765Z,1697902032363
0.10303163528442383,0.3182487487792969,-0.0399852991104126,2023-10-21T15:27:12.381965Z,1697902032381
0.09617924690246582,0.30589962005615234,-0.038706064224243164,2023-10-21T15:27:12.402271Z,1697902032402
0.08912348747253418,0.2922353744506836,-0.03718602657318115,2023-10-21T15:27:12.422412Z,1697902032422
0.08289337158203125,0.2806892395019531,-0.0358884334564209,2023-10-21T15:27:12.447207Z,1697902032447
0.07782125473022461,0.27275753021240234,-0.03498280048370361,2023-10-21T15:27:12.463876Z,1697902032463
0.07361197471618652,0.2678794860839844,-0.03434276580810547,2023-10-21T15:27:12.483269Z,1697902032483
0.07011699676513672,0.26584720611572266,-0.03390467166900635,2023-10-21T15:27:12.503558Z,1697902032503
0.06768441200256348,0.26824951171875,-0.033850908279418945,2023-10-21T15:27:12.523690Z,1697902032523
0.0666656494140625,0.2770395278930664,-0.03439652919769287,2023-10-21T15:27:12.547065Z,1697902032546
0.0670320987701416,0.2930021286010742,-0.035560011863708496,2023-10-21T15:27:12.564293Z,1697902032564
0.06818103790283203,0.31461143493652344,-0.03701937198638916,2023-10-21T15:27:12.584606Z,1697902032584
0.06931662559509277,0.3390178680419922,-0.038278818130493164,2023-10-21T15:27:12.612568Z,1697902032612
0.06968283653259277,0.36272525787353516,-0.03882646560668945,2023-10-21T15:27:12.624898Z,1697902032624
0.0688786506652832,0.3828554153442383,-0.03835183382034302,2023-10-21T15:27:12.663817Z,1697902032663
0.06692266464233398,0.39781951904296875,-0.03684276342391968,2023-10-21T15:27:12.666781Z,1697902032666
0.06401717662811279,0.4067344665527344,-0.03445923328399658,2023-10-21T15:27:12.698469Z,1697902032698
0.06033957004547119,0.4087638854980469,-0.03141939640045166,2023-10-21T15:27:12.706121Z,1697902032706
0.05602908134460449,0.40329647064208984,-0.02794593572616577,2023-10-21T15:27:12.731785Z,1697902032731
0.051265835762023926,0.39047813415527344,-0.02428889274597168,2023-10-21T15:27:12.779964Z,1697902032779
0.04629313945770264,0.37129878997802734,-0.02070242166519165,2023-10-21T15:27:12.782529Z,1697902032782
0.041480302810668945,0.34836387634277344,-0.01744920015335083,2023-10-21T15:27:12.787147Z,1697902032787
0.03718304634094238,0.3247041702270508,-0.014715582132339478,2023-10-21T15:27:12.807564Z,1697902032807
0.03370189666748047,0.3035697937011719,-0.012597590684890747,2023-10-21T15:27:12.831719Z,1697902032831
0.03122246265411377,0.28760623931884766,-0.01109972596168518,2023-10-21T15:27:12.863854Z,1697902032863
0.029841065406799316,0.2789306640625,-0.010173678398132324,2023-10-21T15:27:12.868200Z,1697902032868
0.029690265655517578,0.279754638671875,-0.009781211614608765,2023-10-21T15:27:12.888490Z,1697902032888
0.03085041046142578,0.2913389205932617,-0.009878814220428467,2023-10-21T15:27:12.915125Z,1697902032915
0.03325521945953369,0.31302833557128906,-0.010369628667831421,2023-10-21T15:27:12.930410Z,1697902032930
0.03667151927947998,0.34212589263916016,-0.01111409068107605,2023-10-21T15:27:12.949304Z,1697902032949
0.040798306465148926,0.37506866455078125,-0.011970490217208862,2023-10-21T15:27:12.969566Z,1697902032969
0.04532289505004883,0.4079914093017578,-0.012824535369873047,2023-10-21T15:27:12.989777Z,1697902032989
0.05004715919494629,0.43804454803466797,-0.013636857271194458,2023-10-21T15:27:13.014753Z,1697902033014
0.05495572090148926,0.4640693664550781,-0.01446196436882019,2023-10-21T15:27:13.030669Z,1697902033030
0.06033921241760254,0.48746299743652344,-0.015484422445297241,2023-10-21T15:27:13.050719Z,1697902033050
0.06654119491577148,0.5101804733276367,-0.016881853342056274,2023-10-21T15:27:13.070941Z,1697902033070
0.07362139225006104,0.5323867797851562,-0.01870959997177124,2023-10-21T15:27:13.091129Z,1697902033091
0.08126211166381836,0.5523214340209961,-0.02086663246154785,2023-10-21T15:27:13.113420Z,1697902033113
0.08884203433990479,0.5670614242553711,-0.023139387369155884,2023-10-21T15:27:13.131731Z,1697902033131
0.09590673446655273,0.5753040313720703,-0.025393784046173096,2023-10-21T15:27:13.151947Z,1697902033151
0.10223090648651123,0.5772132873535156,-0.0275784432888031,2023-10-21T15:27:13.172144Z,1697902033172
0.10790085792541504,0.5743436813354492,-0.029738187789916992,2023-10-21T15:27:13.196555Z,1697902033196
0.11302065849304199,0.5680818557739258,-0.031918108463287354,2023-10-21T15:27:13.213181Z,1697902033213
0.11747264862060547,0.5587158203125,-0.03406888246536255,2023-10-21T15:27:13.233094Z,1697902033233
0.1207420825958252,0.5446615219116211,-0.035965561866760254,2023-10-21T15:27:13.253175Z,1697902033253
0.12233662605285645,0.5246057510375977,-0.037386953830718994,2023-10-21T15:27:13.273454Z,1697902033273
0.12212657928466797,0.4986076354980469,-0.03822284936904907,2023-10-21T15:27:13.296333Z,1697902033296
0.12041831016540527,0.4683980941772461,-0.03852659463882446,2023-10-21T15:27:13.314101Z,1697902033314
0.1178290843963623,0.4366416931152344,-0.038454413414001465,2023-10-21T15:27:13.334524Z,1697902033334
0.11479926109313965,0.40511035919189453,-0.038091421127319336,2023-10-21T15:27:13.354536Z,1697902033354
0.11151742935180664,0.3745603561401367,-0.037444353103637695,2023-10-21T15:27:13.379674Z,1697902033379
0.10779500007629395,0.3445577621459961,-0.0364377498626709,2023-10-21T15:27:13.396600Z,1697902033396
0.1031339168548584,0.3138713836669922,-0.03490602970123291,2023-10-21T15:27:13.427182Z,1697902033427
0.09697389602661133,0.2813386917114258,-0.03270876407623291,2023-10-21T15:27:13.435569Z,1697902033435
0.08908963203430176,0.24688720703125,-0.029832959175109863,2023-10-21T15:27:13.455923Z,1697902033455
0.0797579288482666,0.2117023468017578,-0.026447296142578125,2023-10-21T15:27:13.480488Z,1697902033480
0.06979131698608398,0.17801189422607422,-0.0228726863861084,2023-10-21T15:27:13.513033Z,1697902033512
0.05995321273803711,0.1475086212158203,-0.019391536712646484,2023-10-21T15:27:13.516666Z,1697902033516
0.050473928451538086,0.12034034729003906,-0.01609015464782715,2023-10-21T15:27:13.547529Z,1697902033547
0.040570974349975586,0.09423637390136719,-0.012720108032226562,2023-10-21T15:27:13.557111Z,1697902033557
0.029555559158325195,0.06730079650878906,-0.009091615676879883,2023-10-21T15:27:13.597406Z,1697902033597
0.017665386199951172,0.0396881103515625,-0.0053141117095947266,2023-10-21T15:27:13.599342Z,1697902033599
0.006236076354980469,0.013911247253417969,-0.0018291473388671875,2023-10-21T15:27:13.618203Z,1697902033618
-0.002586841583251953,-0.005764961242675781,7.375478744506836E-4,2023-10-21T15:27:13.647540Z,1697902033647
-0.007421731948852539,-0.016608238220214844,0.0020536184310913086,2023-10-21T15:27:13.679570Z,1697902033679
-0.007804155349731445,-0.017618179321289062,0.002086043357849121,2023-10-21T15:27:13.681988Z,1697902033681
-0.0043964385986328125,-0.010060310363769531,0.0011305809020996094,2023-10-21T15:27:13.699227Z,1697902033699
0.0016736984252929688,0.0038995742797851562,-4.121065139770508E-4,2023-10-21T15:27:13.719514Z,1697902033719
0.009636878967285156,0.02294158935546875,-0.002266108989715576,2023-10-21T15:27:13.739515Z,1697902033739
0.019517183303833008,0.04758453369140625,-0.004365980625152588,2023-10-21T15:27:13.762913Z,1697902033762
0.03126406669616699,0.0781698226928711,-0.006644785404205322,2023-10-21T15:27:13.780132Z,1697902033780
0.04425406455993652,0.11354255676269531,-0.00894927978515625,2023-10-21T15:27:13.800410Z,1697902033800
0.05723261833190918,0.15072059631347656,-0.011064887046813965,2023-10-21T15:27:13.820604Z,1697902033820
0.06850123405456543,0.18525218963623047,-0.012757718563079834,2023-10-21T15:27:13.840826Z,1697902033840
0.0768272876739502,0.2134714126586914,-0.013939321041107178,2023-10-21T15:27:13.862796Z,1697902033862
0.08154892921447754,0.23292827606201172,-0.014647185802459717,2023-10-21T15:27:13.881497Z,1697902033881
0.0827646255493164,0.24303436279296875,-0.015020370483398438,2023-10-21T15:27:13.901698Z,1697902033901
0.08134269714355469,0.24541759490966797,-0.015274345874786377,2023-10-21T15:27:13.921934Z,1697902033921
0.07848429679870605,0.24300670623779297,-0.01563727855682373,2023-10-21T15:27:13.945896Z,1697902033945
0.07544112205505371,0.23926925659179688,-0.016327261924743652,2023-10-21T15:27:13.962794Z,1697902033962
0.07321619987487793,0.2373199462890625,-0.01754683256149292,2023-10-21T15:27:13.982792Z,1697902033982
0.07248139381408691,0.23959732055664062,-0.019497454166412354,2023-10-21T15:27:14.003041Z,1697902034002
0.07348155975341797,0.24732112884521484,-0.022328317165374756,2023-10-21T15:27:14.023235Z,1697902034023
0.07603120803833008,0.2602243423461914,-0.02608668804168701,2023-10-21T15:27:14.045938Z,1697902034045
0.07961225509643555,0.27675342559814453,-0.03067612648010254,2023-10-21T15:27:14.063895Z,1697902034063
0.08358430862426758,0.2945995330810547,-0.0358736515045166,2023-10-21T15:27:14.084105Z,1697902034084
0.0874016284942627,0.3116264343261719,-0.04140651226043701,2023-10-21T15:27:14.104319Z,1697902034104
0.09063911437988281,0.3260974884033203,-0.046991825103759766,2023-10-21T15:27:14.129153Z,1697902034129
0.09273147583007812,0.3359346389770508,-0.05221259593963623,2023-10-21T15:27:14.146010Z,1697902034145
0.09303665161132812,0.3388862609863281,-0.056499600410461426,2023-10-21T15:27:14.165211Z,1697902034165
0.09096837043762207,0.33289337158203125,-0.059200406074523926,2023-10-21T15:27:14.185365Z,1697902034185
0.08635210990905762,0.3171854019165039,-0.05985105037689209,2023-10-21T15:27:14.205560Z,1697902034205
0.07976865768432617,0.2937021255493164,-0.05854499340057373,2023-10-21T15:27:14.229047Z,1697902034228
0.07242894172668457,0.2668743133544922,-0.05600309371948242,2023-10-21T15:27:14.246200Z,1697902034246
0.06583595275878906,0.24245643615722656,-0.05341482162475586,2023-10-21T15:27:14.266485Z,1697902034266
0.061165571212768555,0.22513198852539062,-0.05191779136657715,2023-10-21T15:27:14.286724Z,1697902034286
0.059112548828125,0.21775436401367188,-0.05235910415649414,2023-10-21T15:27:14.306906Z,1697902034306
0.05972647666931152,0.22080326080322266,-0.0550689697265625,2023-10-21T15:27:14.329041Z,1697902034328
0.06284141540527344,0.2339315414428711,-0.06014108657836914,2023-10-21T15:27:14.347544Z,1697902034347
0.0682518482208252,0.2566871643066406,-0.06755971908569336,2023-10-21T15:27:14.367773Z,1697902034367
0.07570409774780273,0.28846073150634766,-0.07718229293823242,2023-10-21T15:27:14.388014Z,1697902034387
0.08472633361816406,0.32782936096191406,-0.08854484558105469,2023-10-21T15:27:14.412207Z,1697902034412
0.09438323974609375,0.3715944290161133,-0.10062360763549805,2023-10-21T15:27:14.428938Z,1697902034428
0.1034238338470459,0.4150724411010742,-0.11193394660949707,2023-10-21T15:27:14.448856Z,1697902034448
0.11056208610534668,0.45295238494873047,-0.12085580825805664,2023-10-21T15:27:14.469067Z,1697902034469
0.11494565010070801,0.48098087310791016,-0.1261885166168213,2023-10-21T15:27:14.489308Z,1697902034489
0.11630988121032715,0.4967327117919922,-0.12742924690246582,2023-10-21T15:27:14.512235Z,1697902034512
0.11507391929626465,0.5005283355712891,-0.125030517578125,2023-10-21T15:27:14.529936Z,1697902034529
0.11204981803894043,0.49504661560058594,-0.12013983726501465,2023-10-21T15:27:14.550210Z,1697902034550
0.10806536674499512,0.48378467559814453,-0.11401820182800293,2023-10-21T15:27:14.570401Z,1697902034570
0.10373497009277344,0.4699420928955078,-0.10767912864685059,2023-10-21T15:27:14.595709Z,1697902034595
0.09948253631591797,0.4560070037841797,-0.10177779197692871,2023-10-21T15:27:14.612456Z,1697902034612
0.09566903114318848,0.4438953399658203,-0.09672355651855469,2023-10-21T15:27:14.631215Z,1697902034631
0.09273254871368408,0.43553733825683594,-0.09287357330322266,2023-10-21T15:27:14.651461Z,1697902034651
0.09108412265777588,0.43267345428466797,-0.0905311107635498,2023-10-21T15:27:14.671675Z,1697902034671
0.09100866317749023,0.43656444549560547,-0.08989882469177246,2023-10-21T15:27:14.695668Z,1697902034695
0.09252762794494629,0.44747257232666016,-0.09094929695129395,2023-10-21T15:27:14.712328Z,1697902034712
0.09521985054016113,0.4636850357055664,-0.09321534633636475,2023-10-21T15:27:14.732512Z,1697902034732
0.09828317165374756,0.4815349578857422,-0.09581553936004639,2023-10-21T15:27:14.752770Z,1697902034752
0.1008448600769043,0.4966754913330078,-0.09775876998901367,2023-10-21T15:27:14.772922Z,1697902034772
0.10234713554382324,0.505915641784668,-0.09837079048156738,2023-10-21T15:27:14.795718Z,1697902034795
0.1025627851486206,0.5075187683105469,-0.09736895561218262,2023-10-21T15:27:14.813577Z,1697902034813
0.10164451599121094,0.5018539428710938,-0.09496140480041504,2023-10-21T15:27:14.833861Z,1697902034833
0.09980714321136475,0.4901723861694336,-0.09153032302856445,2023-10-21T15:27:14.854073Z,1697902034854
0.09729886054992676,0.4742727279663086,-0.08751964569091797,2023-10-21T15:27:14.878758Z,1697902034878
0.09427571296691895,0.4557628631591797,-0.08328509330749512,2023-10-21T15:27:14.895482Z,1697902034895
0.0908576250076294,0.4358406066894531,-0.07904660701751709,2023-10-21T15:27:14.914898Z,1697902034914
0.08727264404296875,0.41590213775634766,-0.0750429630279541,2023-10-21T15:27:14.935144Z,1697902034935
0.08386754989624023,0.3975667953491211,-0.07153713703155518,2023-10-21T15:27:14.955425Z,1697902034955
0.08100199699401855,0.3824491500854492,-0.06879806518554688,2023-10-21T15:27:14.978634Z,1697902034978
0.07884716987609863,0.37128257751464844,-0.06694173812866211,2023-10-21T15:27:14.995972Z,1697902034995
0.07740092277526855,0.36406993865966797,-0.06594157218933105,2023-10-21T15:27:15.016253Z,1697902035016
0.07644367218017578,0.35973358154296875,-0.0655677318572998,2023-10-21T15:27:15.036454Z,1697902035036
0.07572770118713379,0.3568563461303711,-0.06551265716552734,2023-10-21T15:27:15.056645Z,1697902035056
0.07510995864868164,0.3543109893798828,-0.06553447246551514,2023-10-21T15:27:15.078527Z,1697902035078
0.07457756996154785,0.3515043258666992,-0.0654982328414917,2023-10-21T15:27:15.097310Z,1697902035097
0.07426142692565918,0.3486614227294922,-0.06544017791748047,2023-10-21T15:27:15.117525Z,1697902035117
0.07425689697265625,0.34614086151123047,-0.06542932987213135,2023-10-21T15:27:15.137696Z,1697902035137
0.07454466819763184,0.3440580368041992,-0.0654909610748291,2023-10-21T15:27:15.162777Z,1697902035162
0.07506060600280762,0.3423795700073242,-0.06559121608734131,2023-10-21T15:27:15.181113Z,1697902035181
0.07574701309204102,0.3410310745239258,-0.06568682193756104,2023-10-21T15:27:15.198644Z,1697902035198
0.07659578323364258,0.3399934768676758,-0.06574094295501709,2023-10-21T15:27:15.218860Z,1697902035218
0.07763409614562988,0.33934974670410156,-0.06576156616210938,2023-10-21T15:27:15.239117Z,1697902035239
0.07888627052307129,0.3391742706298828,-0.0657733678817749,2023-10-21T15:27:15.261749Z,1697902035261
0.08030486106872559,0.3393840789794922,-0.06577777862548828,2023-10-21T15:27:15.279788Z,1697902035279
0.08179092407226562,0.33977794647216797,-0.06575775146484375,2023-10-21T15:27:15.299997Z,1697902035299
0.08316254615783691,0.3398170471191406,-0.06562352180480957,2023-10-21T15:27:15.320225Z,1697902035320
0.08425235748291016,0.33896827697753906,-0.06529784202575684,2023-10-21T15:27:15.345323Z,1697902035345
0.08504486083984375,0.3371562957763672,-0.06479001045227051,2023-10-21T15:27:15.361769Z,1697902035361
0.08558392524719238,0.33452415466308594,-0.06414973735809326,2023-10-21T15:27:15.381012Z,1697902035380
0.08595705032348633,0.3314065933227539,-0.06345474720001221,2023-10-21T15:27:15.401249Z,1697902035401
0.08621335029602051,0.3280620574951172,-0.06274843215942383,2023-10-21T15:27:15.421486Z,1697902035421
0.08635783195495605,0.3246479034423828,-0.06204843521118164,2023-10-21T15:27:15.445001Z,1697902035444
0.08639168739318848,0.32126808166503906,-0.06136763095855713,2023-10-21T15:27:15.463075Z,1697902035463
0.08636617660522461,0.31818199157714844,-0.06074702739715576,2023-10-21T15:27:15.482358Z,1697902035482
0.0863502025604248,0.31558895111083984,-0.06022477149963379,2023-10-21T15:27:15.502562Z,1697902035502
0.0864107608795166,0.3136100769042969,-0.059823036193847656,2023-10-21T15:27:15.528380Z,1697902035528
0.0866084098815918,0.31228065490722656,-0.05954313278198242,2023-10-21T15:27:15.545073Z,1697902035545
0.08693647384643555,0.31144046783447266,-0.05934596061706543,2023-10-21T15:27:15.578368Z,1697902035578
0.08748078346252441,0.3112964630126953,-0.059270501136779785,2023-10-21T15:27:15.583547Z,1697902035583
0.0883188247680664,0.3120899200439453,-0.05936133861541748,2023-10-21T15:27:15.612876Z,1697902035612
0.08939504623413086,0.3136625289916992,-0.059578776359558105,2023-10-21T15:27:15.645011Z,1697902035644
0.09050583839416504,0.31540966033935547,-0.059796810150146484,2023-10-21T15:27:15.647622Z,1697902035647
0.09142255783081055,0.31666088104248047,-0.05985534191131592,2023-10-21T15:27:15.727406Z,1697902035727
0.0918874740600586,0.31659889221191406,-0.059574246406555176,2023-10-21T15:27:15.730382Z,1697902035730
0.09181666374206543,0.3149757385253906,-0.05890917778015137,2023-10-21T15:27:15.732285Z,1697902035732
0.09117937088012695,0.3116750717163086,-0.057855844497680664,2023-10-21T15:27:15.734164Z,1697902035734
0.0900576114654541,0.3069305419921875,-0.05650973320007324,2023-10-21T15:27:15.745821Z,1697902035745
0.08862614631652832,0.30135154724121094,-0.055031538009643555,2023-10-21T15:27:15.766011Z,1697902035765
0.08692169189453125,0.2950458526611328,-0.053484559059143066,2023-10-21T15:27:15.796208Z,1697902035796
0.08502578735351562,0.28818416595458984,-0.05192267894744873,2023-10-21T15:27:15.811363Z,1697902035811
0.08314013481140137,0.28130435943603516,-0.050462961196899414,2023-10-21T15:27:15.828066Z,1697902035828
0.08150315284729004,0.27504920959472656,-0.04922306537628174,2023-10-21T15:27:15.847214Z,1697902035847
0.08031249046325684,0.26994895935058594,-0.04830121994018555,2023-10-21T15:27:15.867297Z,1697902035867
0.07966804504394531,0.2662363052368164,-0.0477447509765625,2023-10-21T15:27:15.887560Z,1697902035887
0.07954668998718262,0.2637615203857422,-0.047516822814941406,2023-10-21T15:27:15.911348Z,1697902035911
0.07992815971374512,0.2624654769897461,-0.0476001501083374,2023-10-21T15:27:15.928071Z,1697902035928
0.08072543144226074,0.26207923889160156,-0.047913551330566406,2023-10-21T15:27:15.948407Z,1697902035948
0.08184504508972168,0.26233386993408203,-0.04836714267730713,2023-10-21T15:27:15.968564Z,1697902035968
0.08327150344848633,0.26326751708984375,-0.04893171787261963,2023-10-21T15:27:15.988698Z,1697902035988
0.08495163917541504,0.2648496627807617,-0.04957020282745361,2023-10-21T15:27:16.011063Z,1697902036011
0.08674097061157227,0.26681995391845703,-0.050214409828186035,2023-10-21T15:27:16.029355Z,1697902036029
0.08847808837890625,0.26889896392822266,-0.05080580711364746,2023-10-21T15:27:16.049690Z,1697902036049
0.09001779556274414,0.2708120346069336,-0.0512927770614624,2023-10-21T15:27:16.069913Z,1697902036069
0.09118342399597168,0.2722158432006836,-0.05161261558532715,2023-10-21T15:27:16.094464Z,1697902036094
0.09184598922729492,0.27281856536865234,-0.05172526836395264,2023-10-21T15:27:16.111105Z,1697902036111
0.09198808670043945,0.27256298065185547,-0.05162632465362549,2023-10-21T15:27:16.130789Z,1697902036130
0.09178614616394043,0.2719297409057617,-0.05142617225646973,2023-10-21T15:27:16.150977Z,1697902036150
0.09150385856628418,0.2716054916381836,-0.051283955574035645,2023-10-21T15:27:16.171272Z,1697902036171
0.09129214286804199,0.2719850540161133,-0.05129361152648926,2023-10-21T15:27:16.194491Z,1697902036194
0.09110498428344727,0.27292442321777344,-0.051450371742248535,2023-10-21T15:27:16.211801Z,1697902036211
0.09083986282348633,0.2741222381591797,-0.05171525478363037,2023-10-21T15:27:16.232118Z,1697902036232
0.090423583984375,0.2753152847290039,-0.05204153060913086,2023-10-21T15:27:16.252258Z,1697902036252
0.08979129791259766,0.27622509002685547,-0.05238354206085205,2023-10-21T15:27:16.272458Z,1697902036272
0.08911252021789551,0.27722930908203125,-0.052812814712524414,2023-10-21T15:27:16.294400Z,1697902036294
0.08856773376464844,0.27880859375,-0.053413987159729004,2023-10-21T15:27:16.313146Z,1697902036313
0.0882577896118164,0.28130531311035156,-0.054245591163635254,2023-10-21T15:27:16.343115Z,1697902036343
0.08821630477905273,0.28492069244384766,-0.055338263511657715,2023-10-21T15:27:16.353470Z,1697902036353
0.08843040466308594,0.2896766662597656,-0.05668067932128906,2023-10-21T15:27:16.394538Z,1697902036394
0.08891844749450684,0.2956104278564453,-0.05826592445373535,2023-10-21T15:27:16.396901Z,1697902036396
0.0898294448852539,0.303070068359375,-0.06017565727233887,2023-10-21T15:27:16.427851Z,1697902036427
0.0912618637084961,0.31211090087890625,-0.062439799308776855,2023-10-21T15:27:16.434579Z,1697902036434
0.0932466983795166,0.3225822448730469,-0.06507205963134766,2023-10-21T15:27:16.462204Z,1697902036462
0.09578943252563477,0.33426570892333984,-0.0680704116821289,2023-10-21T15:27:16.511049Z,1697902036510
0.09868407249450684,0.3463153839111328,-0.07130944728851318,2023-10-21T15:27:16.513988Z,1697902036513
0.10175967216491699,0.35805225372314453,-0.07467865943908691,2023-10-21T15:27:16.516614Z,1697902036516
0.10491776466369629,0.36899852752685547,-0.07810854911804199,2023-10-21T15:27:16.536003Z,1697902036535
0.10801196098327637,0.3784608840942383,-0.08147048950195312,2023-10-21T15:27:16.562451Z,1697902036562
0.11080551147460938,0.38545799255371094,-0.08456230163574219,2023-10-21T15:27:16.594349Z,1697902036594
0.11308884620666504,0.38910484313964844,-0.08716654777526855,2023-10-21T15:27:16.596978Z,1697902036596
0.11473774909973145,0.3889188766479492,-0.08911252021789551,2023-10-21T15:27:16.617096Z,1697902036617
0.11590766906738281,0.3854560852050781,-0.09044861793518066,2023-10-21T15:27:16.637316Z,1697902036637
0.11682343482971191,0.37953948974609375,-0.0912942886352539,2023-10-21T15:27:16.660768Z,1697902036660
0.11780691146850586,0.37231922149658203,-0.09186220169067383,2023-10-21T15:27:16.677837Z,1697902036677
0.11930489540100098,0.3652467727661133,-0.09246325492858887,2023-10-21T15:27:16.698238Z,1697902036698
0.12172293663024902,0.3595609664916992,-0.09337353706359863,2023-10-21T15:27:16.718418Z,1697902036718
0.12534070014953613,0.3560304641723633,-0.09474062919616699,2023-10-21T15:27:16.738667Z,1697902036738
0.1302194595336914,0.3547554016113281,-0.0965266227722168,2023-10-21T15:27:16.760997Z,1697902036760
0.13626551628112793,0.3554840087890625,-0.09860539436340332,2023-10-21T15:27:16.780587Z,1697902036780
0.1431560516357422,0.35744285583496094,-0.1007239818572998,2023-10-21T15:27:16.799429Z,1697902036799
0.1504826545715332,0.3597745895385742,-0.10263419151306152,2023-10-21T15:27:16.819773Z,1697902036819
0.1578226089477539,0.3616619110107422,-0.10411453247070312,2023-10-21T15:27:16.845225Z,1697902036845
0.16498446464538574,0.36286354064941406,-0.10514354705810547,2023-10-21T15:27:16.860568Z,1697902036860
0.17195606231689453,0.3635683059692383,-0.10582590103149414,2023-10-21T15:27:16.880512Z,1697902036880
0.17867088317871094,0.36388301849365234,-0.10622525215148926,2023-10-21T15:27:16.900731Z,1697902036900
0.18468809127807617,0.3632020950317383,-0.10617876052856445,2023-10-21T15:27:16.920863Z,1697902036920
0.18947362899780273,0.3608388900756836,-0.10551118850708008,2023-10-21T15:27:16.943862Z,1697902036943
0.1928081512451172,0.35669898986816406,-0.10423445701599121,2023-10-21T15:27:16.961541Z,1697902036961
0.19490337371826172,0.3513450622558594,-0.10256838798522949,2023-10-21T15:27:16.981864Z,1697902036981
0.1963667869567871,0.3458728790283203,-0.10085654258728027,2023-10-21T15:27:17.002083Z,1697902037002
0.19787311553955078,0.34130191802978516,-0.09939169883728027,2023-10-21T15:27:17.027254Z,1697902037027
0.19967079162597656,0.3379068374633789,-0.09820556640625,2023-10-21T15:27:17.043863Z,1697902037043
0.201568603515625,0.3353242874145508,-0.09709858894348145,2023-10-21T15:27:17.062888Z,1697902037062
0.20315027236938477,0.33287906646728516,-0.09579277038574219,2023-10-21T15:27:17.083121Z,1697902037083
0.20392894744873047,0.3298053741455078,-0.09401774406433105,2023-10-21T15:27:17.103339Z,1697902037103
0.20364665985107422,0.32567596435546875,-0.09168601036071777,2023-10-21T15:27:17.127239Z,1697902037127
0.20245838165283203,0.3206787109375,-0.08888697624206543,2023-10-21T15:27:17.143892Z,1697902037143
0.20055150985717773,0.3149995803833008,-0.08572101593017578,2023-10-21T15:27:17.164213Z,1697902037164
0.19786310195922852,0.3084907531738281,-0.0821695327758789,2023-10-21T15:27:17.184475Z,1697902037184
0.1940135955810547,0.30057430267333984,-0.07813620567321777,2023-10-21T15:27:17.204604Z,1697902037204
0.18831586837768555,0.29024505615234375,-0.07343721389770508,2023-10-21T15:27:17.227312Z,1697902037227
0.18081426620483398,0.2775840759277344,-0.06822586059570312,2023-10-21T15:27:17.245282Z,1697902037245
0.1720867156982422,0.2633676528930664,-0.06282317638397217,2023-10-21T15:27:17.265498Z,1697902037265
0.16294384002685547,0.24865245819091797,-0.05756497383117676,2023-10-21T15:27:17.285702Z,1697902037285
0.15413999557495117,0.23444366455078125,-0.05270242691040039,2023-10-21T15:27:17.310234Z,1697902037310
0.14615201950073242,0.22138404846191406,-0.04834473133087158,2023-10-21T15:27:17.327054Z,1697902037326
0.1387500762939453,0.20910167694091797,-0.04437971115112305,2023-10-21T15:27:17.346607Z,1697902037346
0.1313796043395996,0.19682598114013672,-0.04061293601989746,2023-10-21T15:27:17.366788Z,1697902037366
0.12343788146972656,0.18370342254638672,-0.03686213493347168,2023-10-21T15:27:17.386996Z,1697902037386
0.11486959457397461,0.16968536376953125,-0.03312194347381592,2023-10-21T15:27:17.410231Z,1697902037410
0.10632467269897461,0.15578842163085938,-0.02958047389984131,2023-10-21T15:27:17.427618Z,1697902037427
0.09820270538330078,0.1426396369934082,-0.026334285736083984,2023-10-21T15:27:17.447920Z,1697902037447
0.09050512313842773,0.13031768798828125,-0.02336907386779785,2023-10-21T15:27:17.468077Z,1697902037468
0.08266496658325195,0.11807823181152344,-0.020526885986328125,2023-10-21T15:27:17.488264Z,1697902037488
0.07418394088745117,0.10524225234985352,-0.017701029777526855,2023-10-21T15:27:17.510120Z,1697902037510
0.06496858596801758,0.09168767929077148,-0.014895796775817871,2023-10-21T15:27:17.528971Z,1697902037528
0.05568265914916992,0.07829666137695312,-0.012276172637939453,2023-10-21T15:27:17.549164Z,1697902037549
0.047345638275146484,0.0664072036743164,-0.010058999061584473,2023-10-21T15:27:17.569392Z,1697902037569
0.04083681106567383,0.05718994140625,-0.008383512496948242,2023-10-21T15:27:17.593454Z,1697902037593
0.03682088851928711,0.05152702331542969,-0.007329463958740234,2023-10-21T15:27:17.610078Z,1697902037609
0.03559255599975586,0.04981565475463867,-0.006898999214172363,2023-10-21T15:27:17.630341Z,1697902037630
0.03671073913574219,0.05142545700073242,-0.0069620609283447266,2023-10-21T15:27:17.650442Z,1697902037650
0.03966712951660156,0.0556492805480957,-0.007401823997497559,2023-10-21T15:27:17.670685Z,1697902037670
0.043904781341552734,0.06170463562011719,-0.008109450340270996,2023-10-21T15:27:17.693352Z,1697902037693
0.04909086227416992,0.06914138793945312,-0.009030461311340332,2023-10-21T15:27:17.711380Z,1697902037711
0.055339813232421875,0.0781240463256836,-0.010198473930358887,2023-10-21T15:27:17.731650Z,1697902037731
0.06252717971801758,0.08849906921386719,-0.011614084243774414,2023-10-21T15:27:17.751801Z,1697902037751
0.07041072845458984,0.09998226165771484,-0.013262152671813965,2023-10-21T15:27:17.777009Z,1697902037776
0.0785059928894043,0.1119680404663086,-0.015090346336364746,2023-10-21T15:27:17.793320Z,1697902037793
0.0856781005859375,0.12291622161865234,-0.01690828800201416,2023-10-21T15:27:17.812670Z,1697902037812
0.09073591232299805,0.1311511993408203,-0.018477559089660645,2023-10-21T15:27:17.832948Z,1697902037832
0.09345340728759766,0.13629913330078125,-0.019693970680236816,2023-10-21T15:27:17.853170Z,1697902037853
0.09404659271240234,0.13856792449951172,-0.020539283752441406,2023-10-21T15:27:17.876050Z,1697902037876
0.09326457977294922,0.1389484405517578,-0.021115541458129883,2023-10-21T15:27:17.893846Z,1697902037893
0.09177732467651367,0.13832569122314453,-0.021542787551879883,2023-10-21T15:27:17.914419Z,1697902037914
0.09005880355834961,0.1373138427734375,-0.021905064582824707,2023-10-21T15:27:17.934229Z,1697902037934
0.08856964111328125,0.1365346908569336,-0.02227783203125,2023-10-21T15:27:17.954498Z,1697902037954
0.08768320083618164,0.13646316528320312,-0.022731423377990723,2023-10-21T15:27:17.976691Z,1697902037976
0.0877695083618164,0.13759803771972656,-0.02334153652191162,2023-10-21T15:27:17.994981Z,1697902037994
0.08942174911499023,0.14081382751464844,-0.024270057678222656,2023-10-21T15:27:18.015273Z,1697902038015
0.09318351745605469,0.14694881439208984,-0.0256730318069458,2023-10-21T15:27:18.035594Z,1697902038035
0.09900236129760742,0.15590763092041016,-0.027561426162719727,2023-10-21T15:27:18.060005Z,1697902038059
0.10670852661132812,0.16736507415771484,-0.029888510704040527,2023-10-21T15:27:18.078588Z,1697902038078
0.11587667465209961,0.1805562973022461,-0.03253042697906494,2023-10-21T15:27:18.096279Z,1697902038096
0.1257467269897461,0.1941976547241211,-0.03526496887207031,2023-10-21T15:27:18.116596Z,1697902038116
0.13532066345214844,0.20671653747558594,-0.03779256343841553,2023-10-21T15:27:18.136795Z,1697902038136
0.1435856819152832,0.216705322265625,-0.0398411750793457,2023-10-21T15:27:18.160128Z,1697902038160
0.14961624145507812,0.22303009033203125,-0.041208624839782715,2023-10-21T15:27:18.177300Z,1697902038177
0.15328598022460938,0.22574424743652344,-0.041924476623535156,2023-10-21T15:27:18.197617Z,1697902038197
0.15526580810546875,0.2259383201599121,-0.042222023010253906,2023-10-21T15:27:18.217795Z,1697902038217
0.15644359588623047,0.2249317169189453,-0.042373061180114746,2023-10-21T15:27:18.243077Z,1697902038243
0.15756797790527344,0.22380495071411133,-0.04257798194885254,2023-10-21T15:27:18.259782Z,1697902038259
0.15898990631103516,0.2230982780456543,-0.042929768562316895,2023-10-21T15:27:18.278729Z,1697902038278
0.16122961044311523,0.2235856056213379,-0.043573856353759766,2023-10-21T15:27:18.298913Z,1697902038298
0.16588544845581055,0.22750091552734375,-0.0449749231338501,2023-10-21T15:27:18.319173Z,1697902038319
0.17431640625,0.2366471290588379,-0.047548651695251465,2023-10-21T15:27:18.343132Z,1697902038343
0.1871628761291504,0.25177001953125,-0.0515362024307251,2023-10-21T15:27:18.360009Z,1697902038359
0.2042064666748047,0.27243471145629883,-0.05692267417907715,2023-10-21T15:27:18.380026Z,1697902038379
0.22395563125610352,0.29659175872802734,-0.06333470344543457,2023-10-21T15:27:18.400187Z,1697902038400
