ACC_X,ACC_Y,ACC_Z,DATE,UNIX_TIMESTAMP
0.05010199546813965,0.10015010833740234,0.08701705932617188,2023-10-21T15:31:31.745192Z,1697902291745
0.0630788803100586,0.1243901252746582,0.10939359664916992,2023-10-21T15:31:31.764544Z,1697902291764
0.09564018249511719,0.18512344360351562,0.16437911987304688,2023-10-21T15:31:31.784797Z,1697902291784
0.07324504852294922,0.14561748504638672,0.12850666046142578,2023-10-21T15:31:31.808847Z,1697902291808
0.055692195892333984,0.11011791229248047,0.0971074104309082,2023-10-21T15:31:31.828513Z,1697902291828
0.04117941856384277,0.08076238632202148,0.07075023651123047,2023-10-21T15:31:31.845565Z,1697902291845
0.02486276626586914,0.048755645751953125,0.04281282424926758,2023-10-21T15:31:31.865863Z,1697902291865
0.01087188720703125,0.021494388580322266,0.01886606216430664,2023-10-21T15:31:31.886138Z,1697902291886
8.344650268554688E-5,1.6546249389648438E-4,1.4543533325195312E-4,2023-10-21T15:31:31.908368Z,1697902291908
-0.002883434295654297,-0.00566864013671875,-0.004987239837646484,2023-10-21T15:31:31.926634Z,1697902291926
0.03557133674621582,0.06996726989746094,0.06159543991088867,2023-10-21T15:31:31.947032Z,1697902291946
0.02921152114868164,0.05731487274169922,0.050504207611083984,2023-10-21T15:31:31.967242Z,1697902291967
0.020132064819335938,0.03948783874511719,0.03478288650512695,2023-10-21T15:31:31.987444Z,1697902291987
0.013368368148803711,0.02616262435913086,0.023045063018798828,2023-10-21T15:31:32.007813Z,1697902292007
0.009094476699829102,0.017787933349609375,0.015661239624023438,2023-10-21T15:31:32.027996Z,1697902292027
0.006966352462768555,0.013641357421875,0.012013435363769531,2023-10-21T15:31:32.048393Z,1697902292048
0.006568193435668945,0.012900352478027344,0.011344432830810547,2023-10-21T15:31:32.068524Z,1697902292068
0.007117033004760742,0.014049053192138672,0.012327194213867188,2023-10-21T15:31:32.090760Z,1697902292090
0.008797407150268555,0.017470359802246094,0.015289306640625,2023-10-21T15:31:32.109097Z,1697902292109
0.01067209243774414,0.02130889892578125,0.01857280731201172,2023-10-21T15:31:32.129347Z,1697902292129
0.011582374572753906,0.02317667007446289,0.02011251449584961,2023-10-21T15:31:32.149613Z,1697902292149
0.010560035705566406,0.021154403686523438,0.018268108367919922,2023-10-21T15:31:32.169793Z,1697902292169
0.006960868835449219,0.01391458511352539,0.011957168579101562,2023-10-21T15:31:32.190610Z,1697902292190
0.0013060569763183594,0.002593994140625,0.002215862274169922,2023-10-21T15:31:32.210473Z,1697902292210
-0.006444215774536133,-0.012684345245361328,-0.010776996612548828,2023-10-21T15:31:32.230706Z,1697902292230
-0.016613006591796875,-0.032341957092285156,-0.02734231948852539,2023-10-21T15:31:32.250940Z,1697902292250
-0.026221752166748047,-0.05052757263183594,-0.04257059097290039,2023-10-21T15:31:32.271121Z,1697902292271
-0.032808780670166016,-0.06253242492675781,-0.052491188049316406,2023-10-21T15:31:32.291438Z,1697902292291
-0.03427696228027344,-0.0647134780883789,-0.05407094955444336,2023-10-21T15:31:32.311725Z,1697902292311
-0.03117823600769043,-0.05858039855957031,-0.0487055778503418,2023-10-21T15:31:32.332012Z,1697902292331
-0.023528337478637695,-0.04430961608886719,-0.03663015365600586,2023-10-21T15:31:32.352298Z,1697902292352
-0.011068105697631836,-0.020954608917236328,-0.01723957061767578,2023-10-21T15:31:32.374614Z,1697902292374
0.005427360534667969,0.010335922241210938,0.00847482681274414,2023-10-21T15:31:32.395016Z,1697902292394
0.02362370491027832,0.04521799087524414,0.03697633743286133,2023-10-21T15:31:32.413123Z,1697902292413
0.002457857131958008,0.004786014556884766,0.004092216491699219,2023-10-21T15:31:32.433407Z,1697902292433
0.0031614303588867188,0.0061511993408203125,0.005240917205810547,2023-10-21T15:31:32.453571Z,1697902292453
0.004459857940673828,0.008667945861816406,0.007357120513916016,2023-10-21T15:31:32.474607Z,1697902292474
0.006130695343017578,0.011912345886230469,0.01007223129272461,2023-10-21T15:31:32.494184Z,1697902292494
0.0076694488525390625,0.014892578125,0.012537479400634766,2023-10-21T15:31:32.514518Z,1697902292514
0.008553266525268555,0.016596317291259766,0.013906002044677734,2023-10-21T15:31:32.534698Z,1697902292534
0.008285999298095703,0.016057491302490234,0.013384342193603516,2023-10-21T15:31:32.558462Z,1697902292558
0.006443500518798828,0.012463092803955078,0.010328292846679688,2023-10-21T15:31:32.575330Z,1697902292575
0.0027589797973632812,0.005321025848388672,0.004383087158203125,2023-10-21T15:31:32.595488Z,1697902292595
-0.002845287322998047,-0.005467414855957031,-0.004474163055419922,2023-10-21T15:31:32.615748Z,1697902292615
-0.010296106338500977,-0.01969146728515625,-0.01599597930908203,2023-10-21T15:31:32.636Z,1697902292635
-0.01923656463623047,-0.0365900993347168,-0.02950763702392578,2023-10-21T15:31:32.657876Z,1697902292657
-0.02919459342956543,-0.05517292022705078,-0.044153690338134766,2023-10-21T15:31:32.676514Z,1697902292676
-0.039595842361450195,-0.07427549362182617,-0.05897188186645508,2023-10-21T15:31:32.696843Z,1697902292696
-0.04981112480163574,-0.09264469146728516,-0.07296276092529297,2023-10-21T15:31:32.717081Z,1697902292717
-0.05929303169250488,-0.10922098159790039,-0.08531951904296875,2023-10-21T15:31:32.737288Z,1697902292737
-0.06761407852172852,-0.1232614517211914,-0.09550189971923828,2023-10-21T15:31:32.757951Z,1697902292757
-0.07471466064453125,-0.13474750518798828,-0.10352945327758789,2023-10-21T15:31:32.777817Z,1697902292777
-0.08075475692749023,-0.14410161972045898,-0.10975170135498047,2023-10-21T15:31:32.798168Z,1697902292798
-0.08609962463378906,-0.15209674835205078,-0.11477375030517578,2023-10-21T15:31:32.818370Z,1697902292818
-0.091033935546875,-0.15930557250976562,-0.11901140213012695,2023-10-21T15:31:32.841153Z,1697902292841
-0.09579658508300781,-0.16617584228515625,-0.12279558181762695,2023-10-21T15:31:32.858867Z,1697902292858
-0.10089921951293945,-0.1736149787902832,-0.12677431106567383,2023-10-21T15:31:32.879186Z,1697902292879
-0.10675525665283203,-0.18233537673950195,-0.1314225196838379,2023-10-21T15:31:32.899451Z,1697902292899
-0.11351394653320312,-0.19255876541137695,-0.13682317733764648,2023-10-21T15:31:32.919596Z,1697902292919
-0.12100076675415039,-0.20389986038208008,-0.14263200759887695,2023-10-21T15:31:32.940938Z,1697902292940
-0.1286630630493164,-0.21534109115600586,-0.14809226989746094,2023-10-21T15:31:32.960200Z,1697902292960
-0.13616514205932617,-0.22623968124389648,-0.15275192260742188,2023-10-21T15:31:32.980569Z,1697902292980
-0.14307641983032227,-0.2358112335205078,-0.15609073638916016,2023-10-21T15:31:33.000733Z,1697902293000
-0.1486530303955078,-0.24281835556030273,-0.15733623504638672,2023-10-21T15:31:33.024139Z,1697902293024
-0.15199804306030273,-0.24583673477172852,-0.15572881698608398,2023-10-21T15:31:33.041537Z,1697902293041
-0.15215539932250977,-0.2434234619140625,-0.1506056785583496,2023-10-21T15:31:33.061553Z,1697902293061
-0.1480245590209961,-0.2339920997619629,-0.14128780364990234,2023-10-21T15:31:33.081822Z,1697902293081
-0.13907670974731445,-0.21702289581298828,-0.1277751922607422,2023-10-21T15:31:33.102104Z,1697902293102
-0.12547063827514648,-0.19321298599243164,-0.11080169677734375,2023-10-21T15:31:33.124178Z,1697902293124
-0.10793304443359375,-0.16413211822509766,-0.09155035018920898,2023-10-21T15:31:33.142555Z,1697902293142
-0.08770942687988281,-0.13190364837646484,-0.07146215438842773,2023-10-21T15:31:33.162913Z,1697902293162
-0.06558942794799805,-0.0977621078491211,-0.05135941505432129,2023-10-21T15:31:33.183168Z,1697902293183
-0.04218578338623047,-0.06249713897705078,-0.03177666664123535,2023-10-21T15:31:33.203346Z,1697902293203
-0.01837921142578125,-0.027149677276611328,-0.013334274291992188,2023-10-21T15:31:33.224202Z,1697902293224
0.004965782165527344,0.007337093353271484,0.003473520278930664,2023-10-21T15:31:33.243891Z,1697902293243
0.026857852935791016,0.03981208801269531,0.018131494522094727,2023-10-21T15:31:33.264190Z,1697902293264
0.04673433303833008,0.06966543197631836,0.03045201301574707,2023-10-21T15:31:33.284420Z,1697902293284
0.06450891494750977,0.09692239761352539,0.04056978225708008,2023-10-21T15:31:33.307395Z,1697902293307
0.08044910430908203,0.1220712661743164,0.048815011978149414,2023-10-21T15:31:33.324928Z,1697902293324
0.09489774703979492,0.14563894271850586,0.05552792549133301,2023-10-21T15:31:33.345247Z,1697902293345
0.1083974838256836,0.16840553283691406,0.06111741065979004,2023-10-21T15:31:33.365528Z,1697902293365
0.12176227569580078,0.19153404235839844,0.06608319282531738,2023-10-21T15:31:33.385743Z,1697902293385
0.1354074478149414,0.2155933380126953,0.07064104080200195,2023-10-21T15:31:33.407229Z,1697902293407
0.14933109283447266,0.24058151245117188,0.07477426528930664,2023-10-21T15:31:33.426324Z,1697902293426
0.16292762756347656,0.26569557189941406,0.07822036743164062,2023-10-21T15:31:33.446588Z,1697902293446
0.17533445358276367,0.2897310256958008,0.08066487312316895,2023-10-21T15:31:33.466806Z,1697902293466
0.18606948852539062,0.3120403289794922,0.08205366134643555,2023-10-21T15:31:33.486995Z,1697902293486
0.19481849670410156,0.33214664459228516,0.08243989944458008,2023-10-21T15:31:33.507474Z,1697902293507
0.20120906829833984,0.3493671417236328,0.0818181037902832,2023-10-21T15:31:33.527591Z,1697902293527
0.20503664016723633,0.3633260726928711,0.08024752140045166,2023-10-21T15:31:33.547870Z,1697902293547
0.2060408592224121,0.37354564666748047,0.07773661613464355,2023-10-21T15:31:33.568088Z,1697902293568
0.20419883728027344,0.3799619674682617,0.07439088821411133,2023-10-21T15:31:33.590408Z,1697902293590
0.20032978057861328,0.3839092254638672,0.07059764862060547,2023-10-21T15:31:33.608674Z,1697902293608
0.19594669342041016,0.3880186080932617,0.06689977645874023,2023-10-21T15:31:33.628967Z,1697902293628
0.19262933731079102,0.3952150344848633,0.06376755237579346,2023-10-21T15:31:33.649194Z,1697902293649
0.19176578521728516,0.4084939956665039,0.0615544319152832,2023-10-21T15:31:33.669496Z,1697902293669
0.19380807876586914,0.42923736572265625,0.06027638912200928,2023-10-21T15:31:33.690308Z,1697902293690
0.19866561889648438,0.45775318145751953,0.05976426601409912,2023-10-21T15:31:33.709948Z,1697902293709
0.20589160919189453,0.4935331344604492,0.05973970890045166,2023-10-21T15:31:33.730280Z,1697902293730
0.2144758701324463,0.5346479415893555,0.05978572368621826,2023-10-21T15:31:33.750523Z,1697902293750
0.22311949729919434,0.5781679153442383,0.0595126748085022,2023-10-21T15:31:33.774540Z,1697902293774
0.23039960861206055,0.6202020645141602,0.05862879753112793,2023-10-21T15:31:33.791054Z,1697902293790
0.23520493507385254,0.6568918228149414,0.056961655616760254,2023-10-21T15:31:33.811386Z,1697902293811
0.23729991912841797,0.686274528503418,0.054516732692718506,2023-10-21T15:31:33.831587Z,1697902293831
0.23695802688598633,0.7079706192016602,0.05136144161224365,2023-10-21T15:31:33.851743Z,1697902293851
0.23447155952453613,0.7222929000854492,0.047515809535980225,2023-10-21T15:31:33.873602Z,1697902293873
0.229905366897583,0.7297449111938477,0.04302734136581421,2023-10-21T15:31:33.892342Z,1697902293892
0.22321534156799316,0.7307043075561523,0.03801095485687256,2023-10-21T15:31:33.912650Z,1697902293912
0.21447467803955078,0.725616455078125,0.03267863392829895,2023-10-21T15:31:33.932873Z,1697902293932
0.20427608489990234,0.7158288955688477,0.027278393507003784,2023-10-21T15:31:33.953057Z,1697902293953
0.19375109672546387,0.7041835784912109,0.022007346153259277,2023-10-21T15:31:33.973728Z,1697902293973
0.1840200424194336,0.6940288543701172,0.01692083477973938,2023-10-21T15:31:33.993667Z,1697902293993
0.17575335502624512,0.6878890991210938,0.011956125497817993,2023-10-21T15:31:34.013873Z,1697902294013
0.16879534721374512,0.6857776641845703,0.00704464316368103,2023-10-21T15:31:34.034175Z,1697902294034
0.1625680923461914,0.6858444213867188,0.0020995326340198517,2023-10-21T15:31:34.056882Z,1697902294056
0.15654492378234863,0.6858816146850586,-0.0028526894748210907,2023-10-21T15:31:34.074708Z,1697902294074
0.15031147003173828,0.6834497451782227,-0.007764361798763275,2023-10-21T15:31:34.095026Z,1697902294094
0.14359188079833984,0.6763820648193359,-0.012542307376861572,2023-10-21T15:31:34.115269Z,1697902294115
0.13625097274780273,0.6630878448486328,-0.017078012228012085,2023-10-21T15:31:34.135442Z,1697902294135
0.12824344635009766,0.6426630020141602,-0.02122858166694641,2023-10-21T15:31:34.156787Z,1697902294156
0.11953234672546387,0.6147394180297852,-0.024834513664245605,2023-10-21T15:31:34.176066Z,1697902294176
0.11006903648376465,0.5793657302856445,-0.02772212028503418,2023-10-21T15:31:34.196334Z,1697902294196
0.0998917818069458,0.5373716354370117,-0.02971750497817993,2023-10-21T15:31:34.216563Z,1697902294216
0.08934283256530762,0.4908885955810547,-0.03075355291366577,2023-10-21T15:31:34.240186Z,1697902294240
0.07914233207702637,0.44386768341064453,-0.030942976474761963,2023-10-21T15:31:34.257211Z,1697902294257
0.07023894786834717,0.401641845703125,-0.030665099620819092,2023-10-21T15:31:34.277383Z,1697902294277
0.06360816955566406,0.3703193664550781,-0.030520617961883545,2023-10-21T15:31:34.297646Z,1697902294297
0.060034990310668945,0.3555278778076172,-0.031188368797302246,2023-10-21T15:31:34.317881Z,1697902294317
0.059856295585632324,0.36057281494140625,-0.033186912536621094,2023-10-21T15:31:34.340039Z,1697902294339
0.06299412250518799,0.3860340118408203,-0.036713361740112305,2023-10-21T15:31:34.358418Z,1697902294358
0.06889569759368896,0.4291038513183594,-0.04151785373687744,2023-10-21T15:31:34.378705Z,1697902294378
0.07687973976135254,0.48535919189453125,-0.04702514410018921,2023-10-21T15:31:34.398893Z,1697902294398
0.08620572090148926,0.5495290756225586,-0.05246424674987793,2023-10-21T15:31:34.419086Z,1697902294419
0.09615981578826904,0.6163482666015625,-0.05701756477355957,2023-10-21T15:31:34.439668Z,1697902294439
0.10596787929534912,0.6804466247558594,-0.05989140272140503,2023-10-21T15:31:34.459747Z,1697902294459
0.11473345756530762,0.7359704971313477,-0.06039553880691528,2023-10-21T15:31:34.479977Z,1697902294479
0.12169039249420166,0.7775888442993164,-0.05814307928085327,2023-10-21T15:31:34.500310Z,1697902294500
0.1263573169708252,0.8014421463012695,-0.053167641162872314,2023-10-21T15:31:34.523355Z,1697902294523
0.1286526918411255,0.8062410354614258,-0.045977652072906494,2023-10-21T15:31:34.540757Z,1697902294540
0.12869906425476074,0.7934703826904297,-0.03734123706817627,2023-10-21T15:31:34.561035Z,1697902294560
0.12689483165740967,0.7673063278198242,-0.02809828519821167,2023-10-21T15:31:34.581359Z,1697902294581
0.12373030185699463,0.7326059341430664,-0.01893484592437744,2023-10-21T15:31:34.601559Z,1697902294601
0.11982965469360352,0.6941061019897461,-0.010363727807998657,2023-10-21T15:31:34.623282Z,1697902294623
0.11562108993530273,0.6547384262084961,-0.002657417207956314,2023-10-21T15:31:34.642239Z,1697902294642
0.11137056350708008,0.6160154342651367,0.004030197858810425,2023-10-21T15:31:34.662423Z,1697902294662
0.10721516609191895,0.5785293579101562,0.009661242365837097,2023-10-21T15:31:34.682613Z,1697902294682
0.10316133499145508,0.5422143936157227,0.014275133609771729,2023-10-21T15:31:34.702806Z,1697902294702
0.09902358055114746,0.5062198638916016,0.017917871475219727,2023-10-21T15:31:34.723116Z,1697902294723
0.0945359468460083,0.46966075897216797,0.020634949207305908,2023-10-21T15:31:34.743413Z,1697902294743
0.08926868438720703,0.4309349060058594,0.022416412830352783,2023-10-21T15:31:34.763687Z,1697902294763
0.08276605606079102,0.3882875442504883,0.023178935050964355,2023-10-21T15:31:34.783926Z,1697902294783
0.07450437545776367,0.3396015167236328,0.022757768630981445,2023-10-21T15:31:34.806221Z,1697902294806
0.06381750106811523,0.2824258804321289,0.020894765853881836,2023-10-21T15:31:34.824433Z,1697902294824
0.05002236366271973,0.2147083282470703,0.017291486263275146,2023-10-21T15:31:34.844745Z,1697902294844
0.03257322311401367,0.1355743408203125,0.011738717555999756,2023-10-21T15:31:34.865042Z,1697902294864
0.011446952819824219,0.046234130859375,0.004257261753082275,2023-10-21T15:31:34.885235Z,1697902294885
-0.012742280960083008,-0.05000114440917969,-0.004838526248931885,2023-10-21T15:31:34.906015Z,1697902294905
-0.0387120246887207,-0.14771461486816406,-0.014846563339233398,2023-10-21T15:31:34.925759Z,1697902294925
-0.0648500919342041,-0.24057483673095703,-0.024770736694335938,2023-10-21T15:31:34.946153Z,1697902294946
-0.08941292762756348,-0.32229137420654297,-0.03346538543701172,2023-10-21T15:31:34.966324Z,1697902294966
-0.11065244674682617,-0.3876018524169922,-0.03991496562957764,2023-10-21T15:31:34.989768Z,1697902294989
-0.12665700912475586,-0.4319925308227539,-0.043334126472473145,2023-10-21T15:31:35.006915Z,1697902295006
-0.13524270057678223,-0.4510030746459961,-0.0432281494140625,2023-10-21T15:31:35.027144Z,1697902295027
-0.1342906951904297,-0.4402637481689453,-0.039479196071624756,2023-10-21T15:31:35.047410Z,1697902295047
-0.12275123596191406,-0.39778900146484375,-0.032649457454681396,2023-10-21T15:31:35.067612Z,1697902295067
-0.1012425422668457,-0.32581615447998047,-0.023956775665283203,2023-10-21T15:31:35.089250Z,1697902295089
-0.07165145874023438,-0.22987747192382812,-0.014853119850158691,2023-10-21T15:31:35.108161Z,1697902295108
-0.03662729263305664,-0.11757183074951172,-0.006581008434295654,2023-10-21T15:31:35.128464Z,1697902295128
0.0011456012725830078,0.0036916732788085938,1.7824769020080566E-4,2023-10-21T15:31:35.148771Z,1697902295148
0.03916025161743164,0.12720012664794922,0.005240440368652344,2023-10-21T15:31:35.168941Z,1697902295168
0.0752711296081543,0.24717330932617188,0.00875815749168396,2023-10-21T15:31:35.189504Z,1697902295189
0.10794854164123535,0.3592662811279297,0.011040568351745605,2023-10-21T15:31:35.209495Z,1697902295209
0.13600659370422363,0.45944881439208984,0.012394309043884277,2023-10-21T15:31:35.229719Z,1697902295229
0.158491849899292,0.5438737869262695,0.013093695044517517,2023-10-21T15:31:35.250001Z,1697902295249
0.17515826225280762,0.6108636856079102,0.013344883918762207,2023-10-21T15:31:35.272944Z,1697902295272
0.18648719787597656,0.66143798828125,0.013281092047691345,2023-10-21T15:31:35.290592Z,1697902295290
0.19325041770935059,0.697993278503418,0.012913927435874939,2023-10-21T15:31:35.310841Z,1697902295310
0.19622159004211426,0.7231645584106445,0.012202858924865723,2023-10-21T15:31:35.331050Z,1697902295331
0.19591999053955078,0.7386035919189453,0.01111409068107605,2023-10-21T15:31:35.351327Z,1697902295351
0.19291448593139648,0.7458248138427734,0.009652182459831238,2023-10-21T15:31:35.372734Z,1697902295372
0.1879584789276123,0.7468795776367188,0.007875896990299225,2023-10-21T15:31:35.391820Z,1697902295391
0.18156647682189941,0.7430553436279297,0.0058624520897865295,2023-10-21T15:31:35.412174Z,1697902295412
0.17404723167419434,0.7349700927734375,0.0037118420004844666,2023-10-21T15:31:35.432346Z,1697902295432
0.16537976264953613,0.7219409942626953,0.0014983825385570526,2023-10-21T15:31:35.456131Z,1697902295456
0.15540122985839844,0.7024173736572266,-7.076943293213844E-4,2023-10-21T15:31:35.472965Z,1697902295472
0.14409399032592773,0.675074577331543,-0.0028686337172985077,2023-10-21T15:31:35.493158Z,1697902295493
0.13153088092803955,0.6387672424316406,-0.004878968000411987,2023-10-21T15:31:35.513413Z,1697902295513
0.11761713027954102,0.5915422439575195,-0.006566673517227173,2023-10-21T15:31:35.533663Z,1697902295533
0.10213470458984375,0.5310726165771484,-0.0076904743909835815,2023-10-21T15:31:35.555807Z,1697902295555
0.08511841297149658,0.4564781188964844,-0.008078023791313171,2023-10-21T15:31:35.574190Z,1697902295574
0.06713712215423584,0.37010765075683594,-0.0077058374881744385,2023-10-21T15:31:35.594529Z,1697902295594
0.04920697212219238,0.2776165008544922,-0.006682738661766052,2023-10-21T15:31:35.614725Z,1697902295614
0.032422661781311035,0.18624305725097656,-0.005148589611053467,2023-10-21T15:31:35.634875Z,1697902295634
0.017678141593933105,0.1027822494506836,-0.0032484233379364014,2023-10-21T15:31:35.655725Z,1697902295655
0.005567669868469238,0.03257274627685547,-0.0011670291423797607,2023-10-21T15:31:35.675560Z,1697902295675
-0.0034949779510498047,-0.020468711853027344,8.199810981750488E-4,2023-10-21T15:31:35.695952Z,1697902295695
-0.009070515632629395,-0.052895545959472656,0.002340257167816162,2023-10-21T15:31:35.716070Z,1697902295716
-0.01041114330291748,-0.06024456024169922,0.0029007792472839355,2023-10-21T15:31:35.738760Z,1697902295738
-0.006803035736083984,-0.03892230987548828,0.00201454758644104,2023-10-21T15:31:35.756592Z,1697902295756
0.0018690824508666992,0.010540008544921875,-5.783438682556152E-4,2023-10-21T15:31:35.776959Z,1697902295776
0.014800429344177246,0.08209228515625,-0.004721939563751221,2023-10-21T15:31:35.797147Z,1697902295797
0.03050971031188965,0.1661672592163086,-0.009833753108978271,2023-10-21T15:31:35.817422Z,1697902295817
0.04743027687072754,0.25351810455322266,-0.01513206958770752,2023-10-21T15:31:35.838913Z,1697902295838
0.06435918807983398,0.33774852752685547,-0.01988208293914795,2023-10-21T15:31:35.857874Z,1697902295857
0.08056282997131348,0.41570472717285156,-0.02357882261276245,2023-10-21T15:31:35.878216Z,1697902295878
0.09558820724487305,0.48596858978271484,-0.025918245315551758,2023-10-21T15:31:35.898471Z,1697902295898
0.1091843843460083,0.5477361679077148,-0.026781439781188965,2023-10-21T15:31:35.918626Z,1697902295918
0.12100958824157715,0.5993223190307617,-0.026157081127166748,2023-10-21T15:31:35.938905Z,1697902295938
0.130845308303833,0.6396760940551758,-0.024206817150115967,2023-10-21T15:31:35.959202Z,1697902295959
0.13872003555297852,0.6691970825195312,-0.02127334475517273,2023-10-21T15:31:35.979472Z,1697902295979
0.14482712745666504,0.6892967224121094,-0.01772966980934143,2023-10-21T15:31:35.999710Z,1697902295999
0.1494607925415039,0.7017087936401367,-0.013918191194534302,2023-10-21T15:31:36.022260Z,1697902296022
0.15290069580078125,0.7076406478881836,-0.010084494948387146,2023-10-21T15:31:36.040274Z,1697902296040
0.15538978576660156,0.7078914642333984,-0.00641777366399765,2023-10-21T15:31:36.060551Z,1697902296060
0.15701794624328613,0.7026042938232422,-0.00304548442363739,2023-10-21T15:31:36.080787Z,1697902296080
0.15743136405944824,0.690546989440918,-1.6934878658503294E-5,2023-10-21T15:31:36.101071Z,1697902296100
0.1557612419128418,0.6690273284912109,0.002666223794221878,2023-10-21T15:31:36.121893Z,1697902296121
0.15096163749694824,0.6350727081298828,0.004980705678462982,2023-10-21T15:31:36.141602Z,1697902296141
0.1423039436340332,0.5871009826660156,0.006853826344013214,2023-10-21T15:31:36.161867Z,1697902296161
0.1296710968017578,0.5255498886108398,0.008186951279640198,2023-10-21T15:31:36.182111Z,1697902296182
0.11338615417480469,0.4520988464355469,0.008871838450431824,2023-10-21T15:31:36.205240Z,1697902296205
0.09370923042297363,0.3679790496826172,0.008777439594268799,2023-10-21T15:31:36.222648Z,1697902296222
0.07055282592773438,0.2730569839477539,0.007707566022872925,2023-10-21T15:31:36.242978Z,1697902296242
0.04384303092956543,0.16734981536865234,0.005459964275360107,2023-10-21T15:31:36.263187Z,1697902296263
0.014158964157104492,0.053314208984375,0.001962125301361084,2023-10-21T15:31:36.283412Z,1697902296283
-0.017009973526000977,-0.06317615509033203,-0.002556025981903076,2023-10-21T15:31:36.305102Z,1697902296305
-0.047293663024902344,-0.17315006256103516,-0.007482707500457764,2023-10-21T15:31:36.324016Z,1697902296323
-0.07431983947753906,-0.2679710388183594,-0.012021660804748535,2023-10-21T15:31:36.344357Z,1697902296344
-0.09633660316467285,-0.3418302536010742,-0.0154971182346344,2023-10-21T15:31:36.364501Z,1697902296364
-0.1121058464050293,-0.3912515640258789,-0.017472028732299805,2023-10-21T15:31:36.384699Z,1697902296384
-0.12058758735656738,-0.41392993927001953,-0.017744898796081543,2023-10-21T15:31:36.405259Z,1697902296405
-0.12073016166687012,-0.40797996520996094,-0.016293436288833618,2023-10-21T15:31:36.425306Z,1697902296425
-0.11188316345214844,-0.3730325698852539,-0.01343044638633728,2023-10-21T15:31:36.445584Z,1697902296445
-0.09446001052856445,-0.3117666244506836,-0.009808361530303955,2023-10-21T15:31:36.465821Z,1697902296465
-0.0700373649597168,-0.2296886444091797,-0.006189912557601929,2023-10-21T15:31:36.488276Z,1697902296488
-0.04092574119567871,-0.13386821746826172,-0.0030929148197174072,2023-10-21T15:31:36.506452Z,1697902296506
-0.009560108184814453,-0.031296730041503906,-6.349533796310425E-4,2023-10-21T15:31:36.526765Z,1697902296526
0.022011518478393555,0.07235050201416016,0.001341402530670166,2023-10-21T15:31:36.547028Z,1697902296546
0.052300214767456055,0.1731576919555664,0.003061622381210327,2023-10-21T15:31:36.567190Z,1697902296567
0.08007669448852539,0.2679100036621094,0.004674836993217468,2023-10-21T15:31:36.588678Z,1697902296588
0.10433483123779297,0.3538970947265625,0.006262227892875671,2023-10-21T15:31:36.607698Z,1697902296607
0.12448978424072266,0.42937755584716797,0.00790010392665863,2023-10-21T15:31:36.628001Z,1697902296627
0.14076781272888184,0.49481773376464844,0.009654521942138672,2023-10-21T15:31:36.648213Z,1697902296648
0.15391874313354492,0.5521316528320312,0.011516034603118896,2023-10-21T15:31:36.671703Z,1697902296671
0.16451048851013184,0.6027698516845703,0.013364538550376892,2023-10-21T15:31:36.688892Z,1697902296688
0.1726372241973877,0.6467504501342773,0.015006586909294128,2023-10-21T15:31:36.709009Z,1697902296708
0.17803645133972168,0.6827287673950195,0.016261622309684753,2023-10-21T15:31:36.729247Z,1697902296729
0.1806812286376953,0.7100048065185547,0.01706041395664215,2023-10-21T15:31:36.749573Z,1697902296749
0.1808018684387207,0.7287416458129883,0.01744323968887329,2023-10-21T15:31:36.771719Z,1697902296771
0.17865276336669922,0.7392244338989258,0.017487123608589172,2023-10-21T15:31:36.790105Z,1697902296789
0.17435812950134277,0.7410306930541992,0.017233088612556458,2023-10-21T15:31:36.810354Z,1697902296810
0.1678004264831543,0.7326107025146484,0.01662011444568634,2023-10-21T15:31:36.830597Z,1697902296830
0.15902328491210938,0.7126970291137695,0.01555304229259491,2023-10-21T15:31:36.850885Z,1697902296850
0.14840292930603027,0.6814508438110352,0.013929352164268494,2023-10-21T15:31:36.871710Z,1697902296871
0.1361994743347168,0.6388378143310547,0.011727049946784973,2023-10-21T15:31:36.891418Z,1697902296891
0.12235665321350098,0.5839595794677734,0.00907677412033081,2023-10-21T15:31:36.911590Z,1697902296911
0.10656428337097168,0.5155181884765625,0.0062833428382873535,2023-10-21T15:31:36.931987Z,1697902296931
0.08890843391418457,0.4342498779296875,0.003672286868095398,2023-10-21T15:31:36.954955Z,1697902296954
0.07008576393127441,0.3440694808959961,0.0015078149735927582,2023-10-21T15:31:36.972485Z,1697902296972
0.051164865493774414,0.25118541717529297,-3.182410728186369E-5,2023-10-21T15:31:36.992744Z,1697902296992
0.03332829475402832,0.16275882720947266,-8.481889963150024E-4,2023-10-21T15:31:37.012983Z,1697902297012
0.017644405364990234,0.08529281616210938,-9.228289127349854E-4,2023-10-21T15:31:37.033292Z,1697902297033
0.004841804504394531,0.023084640502929688,-3.844797611236572E-4,2023-10-21T15:31:37.054778Z,1697902297054
-0.0044384002685546875,-0.020826339721679688,4.698634147644043E-4,2023-10-21T15:31:37.073777Z,1697902297073
-0.0092620849609375,-0.042710304260253906,0.0011996328830718994,2023-10-21T15:31:37.094232Z,1697902297093
-0.00832223892211914,-0.037697792053222656,0.001247406005859375,2023-10-21T15:31:37.114392Z,1697902297114
-5.888938903808594E-4,-0.0026178359985351562,9.816884994506836E-5,2023-10-21T15:31:37.134611Z,1697902297134
0.013574838638305664,0.059189796447753906,-0.002463102340698242,2023-10-21T15:31:37.154776Z,1697902297154
0.032472848892211914,0.13883495330810547,-0.006240129470825195,2023-10-21T15:31:37.175108Z,1697902297175
0.05365705490112305,0.2252178192138672,-0.010684698820114136,2023-10-21T15:31:37.195283Z,1697902297195
0.07483148574829102,0.30901050567626953,-0.015102744102478027,2023-10-21T15:31:37.215619Z,1697902297215
0.09440183639526367,0.38460254669189453,-0.01889580488204956,2023-10-21T15:31:37.237983Z,1697902297237
0.1118309497833252,0.4507865905761719,-0.02173978090286255,2023-10-21T15:31:37.256076Z,1697902297256
0.12700319290161133,0.507777214050293,-0.023487955331802368,2023-10-21T15:31:37.276394Z,1697902297276
0.13978290557861328,0.5552349090576172,-0.0240781307220459,2023-10-21T15:31:37.296690Z,1697902297296
0.14986872673034668,0.5921335220336914,-0.023524075746536255,2023-10-21T15:31:37.316906Z,1697902297316
0.1570723056793213,0.6178874969482422,-0.021956533193588257,2023-10-21T15:31:37.337822Z,1697902297337
0.1618502140045166,0.6345090866088867,-0.01965770125389099,2023-10-21T15:31:37.357434Z,1697902297357
0.16485333442687988,0.6446847915649414,-0.016884028911590576,2023-10-21T15:31:37.377628Z,1697902297377
0.16673564910888672,0.6507968902587891,-0.013808369636535645,2023-10-21T15:31:37.397934Z,1697902297397
0.16797995567321777,0.6543416976928711,-0.010549336671829224,2023-10-21T15:31:37.421689Z,1697902297421
0.1689012050628662,0.6559562683105469,-0.007239244878292084,2023-10-21T15:31:37.438758Z,1697902297438
0.1692209243774414,0.6542549133300781,-0.003967572003602982,2023-10-21T15:31:37.458745Z,1697902297458
0.16814517974853516,0.6463680267333984,-8.119130507111549E-4,2023-10-21T15:31:37.479063Z,1697902297478
0.16468334197998047,0.6290836334228516,0.002138432115316391,2023-10-21T15:31:37.499237Z,1697902297499
0.1578817367553711,0.5994319915771484,0.0047670528292655945,2023-10-21T15:31:37.522589Z,1697902297522
0.14711689949035645,0.5556259155273438,0.006934747099876404,2023-10-21T15:31:37.539822Z,1697902297539
0.13244223594665527,0.49798107147216797,0.00849539041519165,2023-10-21T15:31:37.560146Z,1697902297560
0.11418867111206055,0.42760467529296875,0.009293600916862488,2023-10-21T15:31:37.580318Z,1697902297580
0.09261584281921387,0.3453092575073242,0.009145170450210571,2023-10-21T15:31:37.600526Z,1697902297600
0.06749868392944336,0.2504281997680664,0.007826149463653564,2023-10-21T15:31:37.620817Z,1697902297620
0.03876543045043945,0.14305973052978516,0.005140334367752075,2023-10-21T15:31:37.641109Z,1697902297641
0.007573366165161133,0.027788162231445312,0.0011208653450012207,2023-10-21T15:31:37.661442Z,1697902297661
-0.023771047592163086,-0.08672714233398438,-0.0038383007049560547,2023-10-21T15:31:37.681598Z,1697902297681
-0.05247616767883301,-0.19018268585205078,-0.009024173021316528,2023-10-21T15:31:37.704273Z,1697902297704
-0.07619953155517578,-0.2739553451538086,-0.013630151748657227,2023-10-21T15:31:37.722186Z,1697902297722
-0.09329819679260254,-0.3322420120239258,-0.016970157623291016,2023-10-21T15:31:37.742486Z,1697902297742
-0.10312032699584961,-0.3632497787475586,-0.018647730350494385,2023-10-21T15:31:37.762729Z,1697902297762
-0.10520029067993164,-0.3663768768310547,-0.018483400344848633,2023-10-21T15:31:37.782898Z,1697902297782
-0.0990147590637207,-0.34116077423095703,-0.01649889349937439,2023-10-21T15:31:37.804191Z,1697902297804
-0.08421111106872559,-0.2875833511352539,-0.012998819351196289,2023-10-21T15:31:37.823462Z,1697902297823
-0.06121826171875,-0.20773792266845703,-0.008590281009674072,2023-10-21T15:31:37.843839Z,1697902297843
-0.032091379165649414,-0.10850906372070312,-0.004060328006744385,2023-10-21T15:31:37.863970Z,1697902297863
2.090930938720703E-4,7.01904296875E-4,2.4199485778808594E-5,2023-10-21T15:31:37.887564Z,1697902297887
0.03273463249206543,0.11066722869873047,0.0034363865852355957,2023-10-21T15:31:37.904754Z,1697902297904
0.06325244903564453,0.2145223617553711,0.006194740533828735,2023-10-21T15:31:37.924823Z,1697902297924
0.09040570259094238,0.3082408905029297,0.008398056030273438,2023-10-21T15:31:37.945091Z,1697902297945
0.11364245414733887,0.39035892486572266,0.010149240493774414,2023-10-21T15:31:37.965312Z,1697902297965
0.13287734985351562,0.4607563018798828,0.011538311839103699,2023-10-21T15:31:37.987281Z,1697902297987
0.1484384536743164,0.5204734802246094,0.012653440237045288,2023-10-21T15:31:38.005851Z,1697902298005
0.16103863716125488,0.5716962814331055,0.013550877571105957,2023-10-21T15:31:38.026163Z,1697902298026
0.171464204788208,0.6167240142822266,0.014207839965820312,2023-10-21T15:31:38.046360Z,1697902298046
0.1801443099975586,0.6569347381591797,0.014505445957183838,2023-10-21T15:31:38.066560Z,1697902298066
0.18706893920898438,0.6923141479492188,0.014336317777633667,2023-10-21T15:31:38.087234Z,1697902298087
0.1918783187866211,0.7217435836791992,0.01363496482372284,2023-10-21T15:31:38.107174Z,1697902298107
0.1943492889404297,0.7444067001342773,0.012438446283340454,2023-10-21T15:31:38.127445Z,1697902298127
0.19434046745300293,0.7594747543334961,0.010848373174667358,2023-10-21T15:31:38.147691Z,1697902298147
0.1917431354522705,0.765803337097168,0.008988998830318451,2023-10-21T15:31:38.170417Z,1697902298170
0.18636775016784668,0.7615222930908203,0.006968170404434204,2023-10-21T15:31:38.188194Z,1697902298188
0.17814898490905762,0.7449073791503906,0.004831589758396149,2023-10-21T15:31:38.208526Z,1697902298208
0.16725850105285645,0.7150945663452148,0.002582266926765442,2023-10-21T15:31:38.228727Z,1697902298228
0.15399813652038574,0.6720180511474609,2.4055247195065022E-4,2023-10-21T15:31:38.249025Z,1697902298248
0.13858318328857422,0.6157131195068359,-0.0020777881145477295,2023-10-21T15:31:38.270218Z,1697902298270
0.12104964256286621,0.5458993911743164,-0.00412508100271225,2023-10-21T15:31:38.289565Z,1697902298289
0.10147547721862793,0.4628944396972656,-0.005581624805927277,2023-10-21T15:31:38.309826Z,1697902298309
0.0802764892578125,0.36896514892578125,-0.0061827152967453,2023-10-21T15:31:38.330095Z,1697902298330
0.05836296081542969,0.2691192626953125,-0.005827158689498901,2023-10-21T15:31:38.350258Z,1697902298350
0.03713107109069824,0.17105674743652344,-0.0045948326587677,2023-10-21T15:31:38.370582Z,1697902298370
0.01816105842590332,0.08329963684082031,-0.0027049779891967773,2023-10-21T15:31:38.390883Z,1697902298390
0.002766847610473633,0.012603759765625,-4.838407039642334E-4,2023-10-21T15:31:38.411205Z,1697902298411
-0.00818490982055664,-0.03696632385253906,0.001641392707824707,2023-10-21T15:31:38.431438Z,1697902298431
-0.014119863510131836,-0.0632314682006836,0.003169625997543335,2023-10-21T15:31:38.453488Z,1697902298453
-0.014312267303466797,-0.06354808807373047,0.003519415855407715,2023-10-21T15:31:38.471913Z,1697902298471
-0.008005142211914062,-0.035241127014160156,0.0021152496337890625,2023-10-21T15:31:38.492219Z,1697902298492
0.004865169525146484,0.021219253540039062,-0.0013592243194580078,2023-10-21T15:31:38.512516Z,1697902298512
0.02311873435974121,0.099822998046875,-0.006730854511260986,2023-10-21T15:31:38.532669Z,1697902298532
0.044503211975097656,0.1901845932006836,-0.013329684734344482,2023-10-21T15:31:38.553487Z,1697902298553
0.06648612022399902,0.2812948226928711,-0.020222902297973633,2023-10-21T15:31:38.573215Z,1697902298573
0.08696508407592773,0.3645162582397461,-0.026518642902374268,2023-10-21T15:31:38.593529Z,1697902298593
0.10475277900695801,0.435333251953125,-0.03158801794052124,2023-10-21T15:31:38.613789Z,1697902298613
0.11947917938232422,0.4925270080566406,-0.03514617681503296,2023-10-21T15:31:38.636853Z,1697902298636
0.13131427764892578,0.5369377136230469,-0.03718644380569458,2023-10-21T15:31:38.654289Z,1697902298654
0.14048051834106445,0.5694599151611328,-0.03785133361816406,2023-10-21T15:31:38.674607Z,1697902298674
0.14707136154174805,0.5906229019165039,-0.037344515323638916,2023-10-21T15:31:38.694849Z,1697902298694
0.1513667106628418,0.6020412445068359,-0.035952985286712646,2023-10-21T15:31:38.715083Z,1697902298715
0.15401721000671387,0.6068229675292969,-0.03401970863342285,2023-10-21T15:31:38.736808Z,1697902298736
0.15581417083740234,0.6085319519042969,-0.031801819801330566,2023-10-21T15:31:38.755600Z,1697902298755
0.15730929374694824,0.6094636917114258,-0.029420286417007446,2023-10-21T15:31:38.775882Z,1697902298775
0.1586456298828125,0.6101655960083008,-0.02687084674835205,2023-10-21T15:31:38.796109Z,1697902298796
0.1596682071685791,0.6098642349243164,-0.024159163236618042,2023-10-21T15:31:38.816292Z,1697902298816
0.1597580909729004,0.6061534881591797,-0.02125576138496399,2023-10-21T15:31:38.837194Z,1697902298837
0.15795564651489258,0.5955076217651367,-0.01812279224395752,2023-10-21T15:31:38.856943Z,1697902298856
0.15303421020507812,0.5735721588134766,-0.014729857444763184,2023-10-21T15:31:38.877197Z,1697902298877
0.1439807415008545,0.5368585586547852,-0.011135593056678772,2023-10-21T15:31:38.897440Z,1697902298897
0.13031220436096191,0.48373985290527344,-0.007548660039901733,2023-10-21T15:31:38.920006Z,1697902298919
0.11220955848693848,0.41487884521484375,-0.004263460636138916,2023-10-21T15:31:38.937989Z,1697902298937
0.09015774726867676,0.3319692611694336,-0.0015930384397506714,2023-10-21T15:31:38.958356Z,1697902298958
0.06444001197814941,0.23614501953125,1.742970198392868E-4,2023-10-21T15:31:38.978584Z,1697902298978
0.03524065017700195,0.12840938568115234,7.969513535499573E-4,2023-10-21T15:31:38.998733Z,1697902298998
0.0031757354736328125,0.011498451232910156,1.3158470392227173E-4,2023-10-21T15:31:39.019908Z,1697902299019
-0.029946565628051758,-0.10774898529052734,-0.0017446428537368774,2023-10-21T15:31:39.039326Z,1697902299039
-0.061417341232299805,-0.21953296661376953,-0.004459589719772339,2023-10-21T15:31:39.059615Z,1697902299059
-0.08852958679199219,-0.31432628631591797,-0.007442086935043335,2023-10-21T15:31:39.079792Z,1697902299079
-0.10926389694213867,-0.38533973693847656,-0.01010499894618988,2023-10-21T15:31:39.103255Z,1697902299103
-0.12233352661132812,-0.4285926818847656,-0.011966049671173096,2023-10-21T15:31:39.120311Z,1697902299120
-0.1270287036895752,-0.4423027038574219,-0.012679457664489746,2023-10-21T15:31:39.140637Z,1697902299140
-0.12291455268859863,-0.42573070526123047,-0.012067556381225586,2023-10-21T15:31:39.160914Z,1697902299160
-0.10991740226745605,-0.3793516159057617,-0.010230138897895813,2023-10-21T15:31:39.181130Z,1697902299181
-0.08866024017333984,-0.30556392669677734,-0.0075668394565582275,2023-10-21T15:31:39.203532Z,1697902299203
-0.06074404716491699,-0.20952415466308594,-0.004642263054847717,2023-10-21T15:31:39.221673Z,1697902299221
-0.028729915618896484,-0.09937191009521484,-0.0019503980875015259,2023-10-21T15:31:39.242062Z,1697902299241
0.0044803619384765625,0.015563011169433594,2.729445695877075E-4,2023-10-21T15:31:39.262256Z,1697902299262
0.036602020263671875,0.1278553009033203,0.0020385682582855225,2023-10-21T15:31:39.282388Z,1697902299282
0.06643342971801758,0.2336254119873047,0.003454744815826416,2023-10-21T15:31:39.302861Z,1697902299302
0.09327292442321777,0.3306570053100586,0.00461597740650177,2023-10-21T15:31:39.323059Z,1697902299323
0.11673355102539062,0.4177370071411133,0.005577027797698975,2023-10-21T15:31:39.343280Z,1697902299343
0.1366128921508789,0.4942636489868164,0.006410136818885803,2023-10-21T15:31:39.363477Z,1697902299363
0.15320539474487305,0.5611743927001953,0.007167190313339233,2023-10-21T15:31:39.386190Z,1697902299386
0.16711163520812988,0.6203823089599609,0.007855892181396484,2023-10-21T15:31:39.404024Z,1697902299403
0.1788475513458252,0.6734676361083984,0.008440032601356506,2023-10-21T15:31:39.424328Z,1697902299424
0.18852019309997559,0.7206697463989258,0.008826084434986115,2023-10-21T15:31:39.444561Z,1697902299444
0.19594573974609375,0.7612924575805664,0.008902177214622498,2023-10-21T15:31:39.464810Z,1697902299464
0.20082807540893555,0.794285774230957,0.008610725402832031,2023-10-21T15:31:39.486252Z,1697902299486
0.20279932022094727,0.8180952072143555,0.007972724735736847,2023-10-21T15:31:39.505348Z,1697902299505
0.2015984058380127,0.8309974670410156,0.007083527743816376,2023-10-21T15:31:39.525652Z,1697902299525
0.19701576232910156,0.8310060501098633,0.0060744211077690125,2023-10-21T15:31:39.545879Z,1697902299545
0.1890277862548828,0.8163700103759766,0.004998110234737396,2023-10-21T15:31:39.566080Z,1697902299566
0.17800116539001465,0.7868108749389648,0.0038189031183719635,2023-10-21T15:31:39.586426Z,1697902299586
0.16462469100952148,0.743586540222168,0.0024388357996940613,2023-10-21T15:31:39.606726Z,1697902299606
0.1493678092956543,0.6876392364501953,8.19164328277111E-4,2023-10-21T15:31:39.627019Z,1697902299626
0.1324176788330078,0.6193876266479492,-9.312499314546585E-4,2023-10-21T15:31:39.647260Z,1697902299647
0.11370992660522461,0.5387096405029297,-0.0025302916765213013,2023-10-21T15:31:39.669541Z,1697902299669
0.0935201644897461,0.4471445083618164,-0.003687821328639984,2023-10-21T15:31:39.687718Z,1697902299687
0.07269680500030518,0.3493690490722656,-0.004218451678752899,2023-10-21T15:31:39.708024Z,1697902299707
0.052507638931274414,0.2525043487548828,-0.004106476902961731,2023-10-21T15:31:39.728255Z,1697902299728
0.03429412841796875,0.1642770767211914,-0.0034426897764205933,2023-10-21T15:31:39.748480Z,1697902299748
0.01913285255432129,0.09093856811523438,-0.002381742000579834,2023-10-21T15:31:39.769391Z,1697902299769
0.0076143741607666016,0.035803794860839844,-0.001140683889389038,2023-10-21T15:31:39.789111Z,1697902299788
8.320808410644531E-5,3.814697265625E-4,-1.4901161193847656E-5,2023-10-21T15:31:39.809430Z,1697902299809
-0.002832174301147461,-0.012987136840820312,5.617439746856689E-4,2023-10-21T15:31:39.829585Z,1697902299829
-2.956390380859375E-4,-0.0013380050659179688,6.586313247680664E-5,2023-10-21T15:31:39.852667Z,1697902299852
0.008148670196533203,0.036278724670410156,-0.001922905445098877,2023-10-21T15:31:39.870185Z,1697902299870
0.02193760871887207,0.09609603881835938,-0.0054680705070495605,2023-10-21T15:31:39.890419Z,1697902299890
0.0395503044128418,0.1703653335571289,-0.010224223136901855,2023-10-21T15:31:39.910640Z,1697902299910
0.05898714065551758,0.25008392333984375,-0.015553891658782959,2023-10-21T15:31:39.930914Z,1697902299930
0.07840251922607422,0.3277444839477539,-0.02074265480041504,2023-10-21T15:31:39.952959Z,1697902299952
0.09656000137329102,0.39899253845214844,-0.02519822120666504,2023-10-21T15:31:39.971419Z,1697902299971
0.11307930946350098,0.46289920806884766,-0.028604984283447266,2023-10-21T15:31:39.991731Z,1697902299991
0.1279764175415039,0.5197305679321289,-0.030831575393676758,2023-10-21T15:31:40.011966Z,1697902300011
0.14124727249145508,0.5693330764770508,-0.03185766935348511,2023-10-21T15:31:40.032119Z,1697902300032
0.15258264541625977,0.6103630065917969,-0.0317111611366272,2023-10-21T15:31:40.052552Z,1697902300052
0.16179823875427246,0.64215087890625,-0.030539512634277344,2023-10-21T15:31:40.072775Z,1697902300072
0.16898846626281738,0.6653642654418945,-0.028589963912963867,2023-10-21T15:31:40.093067Z,1697902300093
0.17430472373962402,0.680842399597168,-0.02606034278869629,2023-10-21T15:31:40.113238Z,1697902300113
0.1780257225036621,0.6896696090698242,-0.02309805154800415,2023-10-21T15:31:40.135729Z,1697902300135
0.18039917945861816,0.6926126480102539,-0.019805103540420532,2023-10-21T15:31:40.153762Z,1697902300153
0.18161606788635254,0.6901006698608398,-0.016307562589645386,2023-10-21T15:31:40.174136Z,1697902300174
0.18129777908325195,0.6808366775512695,-0.012671947479248047,2023-10-21T15:31:40.194463Z,1697902300194
0.17859315872192383,0.6622524261474609,-0.00896213948726654,2023-10-21T15:31:40.214515Z,1697902300214
0.17228937149047852,0.6309146881103516,-0.005250699818134308,2023-10-21T15:31:40.236010Z,1697902300235
0.16156005859375,0.5847740173339844,-0.001697080209851265,2023-10-21T15:31:40.255158Z,1697902300255
0.14635801315307617,0.5243034362792969,0.0014496520161628723,2023-10-21T15:31:40.275592Z,1697902300275
0.12731552124023438,0.45191383361816406,0.003915347158908844,2023-10-21T15:31:40.295686Z,1697902300295
0.1050260066986084,0.3696451187133789,0.005456507205963135,2023-10-21T15:31:40.319089Z,1697902300319
0.0796043872833252,0.2779064178466797,0.005827218294143677,2023-10-21T15:31:40.336299Z,1697902300336
0.05102348327636719,0.17678165435791016,0.004800081253051758,2023-10-21T15:31:40.356481Z,1697902300356
0.02001500129699707,0.06888580322265625,0.0022825896739959717,2023-10-21T15:31:40.376711Z,1697902300376
-0.01153707504272461,-0.03949928283691406,-0.0015284419059753418,2023-10-21T15:31:40.396997Z,1697902300396
-0.04108691215515137,-0.14016246795654297,-0.006120443344116211,2023-10-21T15:31:40.418997Z,1697902300418
-0.0662698745727539,-0.2256183624267578,-0.01082029938697815,2023-10-21T15:31:40.437481Z,1697902300437
-0.0851137638092041,-0.2894744873046875,-0.014869511127471924,2023-10-21T15:31:40.457785Z,1697902300457
-0.09640264511108398,-0.3275470733642578,-0.0175592303276062,2023-10-21T15:31:40.478062Z,1697902300477
-0.09984850883483887,-0.33890438079833984,-0.018474966287612915,2023-10-21T15:31:40.498209Z,1697902300498
-0.09561276435852051,-0.3245096206665039,-0.017554253339767456,2023-10-21T15:31:40.518891Z,1697902300518
-0.08446025848388672,-0.28743743896484375,-0.015150755643844604,2023-10-21T15:31:40.538792Z,1697902300538
-0.0674431324005127,-0.23114585876464844,-0.011761903762817383,2023-10-21T15:31:40.559149Z,1697902300559
-0.04608869552612305,-0.15987491607666016,-0.007861673831939697,2023-10-21T15:31:40.579376Z,1697902300579
-0.02234482765197754,-0.07882213592529297,-0.0037806034088134766,2023-10-21T15:31:40.602120Z,1697902300602
0.002210378646850586,0.007966041564941406,3.7682056427001953E-4,2023-10-21T15:31:40.619905Z,1697902300619
0.02662062644958496,0.0983572006225586,0.004626482725143433,2023-10-21T15:31:40.640163Z,1697902300640
0.04995226860046387,0.1901531219482422,0.008949637413024902,2023-10-21T15:31:40.660482Z,1697902300660
0.07108139991760254,0.2804241180419922,0.013331592082977295,2023-10-21T15:31:40.680636Z,1697902300680
0.0892486572265625,0.3672904968261719,0.017862647771835327,2023-10-21T15:31:40.702138Z,1697902300702
0.10424590110778809,0.45017051696777344,0.022664308547973633,2023-10-21T15:31:40.721273Z,1697902300721
0.1166677474975586,0.5308475494384766,0.027832865715026855,2023-10-21T15:31:40.741461Z,1697902300741
0.12705278396606445,0.6102972030639648,0.033277928829193115,2023-10-21T15:31:40.761694Z,1697902300761
0.1354217529296875,0.6868505477905273,0.038665831089019775,2023-10-21T15:31:40.781954Z,1697902300781
0.14153075218200684,0.7572469711303711,0.04353600740432739,2023-10-21T15:31:40.802239Z,1697902300802
0.14508867263793945,0.8173074722290039,0.04743236303329468,2023-10-21T15:31:40.822556Z,1697902300822
0.1459413766860962,0.8634138107299805,0.05004340410232544,2023-10-21T15:31:40.842770Z,1697902300842
0.144142746925354,0.8928956985473633,0.051191091537475586,2023-10-21T15:31:40.862982Z,1697902300862
0.13987112045288086,0.9039268493652344,0.05079084634780884,2023-10-21T15:31:40.885537Z,1697902300885
0.13344299793243408,0.8958311080932617,0.0487978458404541,2023-10-21T15:31:40.903530Z,1697902300903
0.1252892017364502,0.8691816329956055,0.04523122310638428,2023-10-21T15:31:40.923864Z,1697902300923
0.1160125732421875,0.8266782760620117,0.04022860527038574,2023-10-21T15:31:40.944056Z,1697902300944
0.10605370998382568,0.7708511352539062,0.03407925367355347,2023-10-21T15:31:40.964281Z,1697902300964
0.09556233882904053,0.703883171081543,0.02731218934059143,2023-10-21T15:31:40.985176Z,1697902300985
0.08460378646850586,0.6276044845581055,0.02052214741706848,2023-10-21T15:31:41.004859Z,1697902301004
0.07332086563110352,0.5443267822265625,0.014237016439437866,2023-10-21T15:31:41.025206Z,1697902301025
0.062154412269592285,0.45838356018066406,0.008824542164802551,2023-10-21T15:31:41.045343Z,1697902301045
0.051545143127441406,0.37430286407470703,0.0044687241315841675,2023-10-21T15:31:41.068437Z,1697902301068
0.041755080223083496,0.29577159881591797,0.001232333481311798,2023-10-21T15:31:41.086257Z,1697902301086
0.03293466567993164,0.22552871704101562,-9.051598608493805E-4,2023-10-21T15:31:41.106261Z,1697902301106
0.025349140167236328,0.1664409637451172,-0.0020596757531166077,2023-10-21T15:31:41.126504Z,1697902301126
0.019422054290771484,0.12137413024902344,-0.0025013089179992676,2023-10-21T15:31:41.146745Z,1697902301146
0.01587831974029541,0.09381961822509766,-0.002671152353286743,2023-10-21T15:31:41.168427Z,1697902301168
0.01549077033996582,0.08604145050048828,-0.003083348274230957,2023-10-21T15:31:41.187267Z,1697902301187
0.018407344818115234,0.0957651138305664,-0.004075407981872559,2023-10-21T15:31:41.207581Z,1697902301207
0.024091482162475586,0.11731910705566406,-0.00568196177482605,2023-10-21T15:31:41.227749Z,1697902301227
0.031230926513671875,0.14258766174316406,-0.007571816444396973,2023-10-21T15:31:41.247954Z,1697902301247
0.03874635696411133,0.16631031036376953,-0.00937795639038086,2023-10-21T15:31:41.268230Z,1697902301268
0.04645228385925293,0.1880207061767578,-0.010926783084869385,2023-10-21T15:31:41.288559Z,1697902301288
0.055021047592163086,0.2107248306274414,-0.012270927429199219,2023-10-21T15:31:41.308876Z,1697902301308
0.06507992744445801,0.23685646057128906,-0.01343303918838501,2023-10-21T15:31:41.329096Z,1697902301329
0.07645893096923828,0.26575183868408203,-0.01424795389175415,2023-10-21T15:31:41.351610Z,1697902301351
0.08819365501403809,0.29425048828125,-0.014438122510910034,2023-10-21T15:31:41.369587Z,1697902301369
0.09931039810180664,0.3194847106933594,-0.013843417167663574,2023-10-21T15:31:41.389923Z,1697902301389
0.10981535911560059,0.3417520523071289,-0.012569069862365723,2023-10-21T15:31:41.410198Z,1697902301410
0.12033224105834961,0.3630485534667969,-0.010820269584655762,2023-10-21T15:31:41.430391Z,1697902301430
0.1315169334411621,0.38527965545654297,-0.008737772703170776,2023-10-21T15:31:41.451532Z,1697902301451
0.1433122158050537,0.4083404541015625,-0.006299629807472229,2023-10-21T15:31:41.470999Z,1697902301470
0.15480685234069824,0.4299173355102539,-0.0034459754824638367,2023-10-21T15:31:41.491259Z,1697902301491
0.164520263671875,0.4463043212890625,-1.545380800962448E-4,2023-10-21T15:31:41.511496Z,1697902301511
0.1711122989654541,0.45428943634033203,0.003453589975833893,2023-10-21T15:31:41.534510Z,1697902301534
0.17364287376403809,0.4517707824707031,0.007119327783584595,2023-10-21T15:31:41.551969Z,1697902301551
0.17192411422729492,0.43877601623535156,0.010533392429351807,2023-10-21T15:31:41.572300Z,1697902301572
0.16637253761291504,0.4169778823852539,0.013436555862426758,2023-10-21T15:31:41.592512Z,1697902301592
0.15763592720031738,0.38861560821533203,0.015678733587265015,2023-10-21T15:31:41.612721Z,1697902301612
0.14563870429992676,0.35395336151123047,0.017125993967056274,2023-10-21T15:31:41.634726Z,1697902301634
0.12949681282043457,0.3110790252685547,0.017546772956848145,2023-10-21T15:31:41.653399Z,1697902301653
0.1082010269165039,0.25759220123291016,0.01657193899154663,2023-10-21T15:31:41.673637Z,1697902301673
0.08206486701965332,0.19404888153076172,0.013947367668151855,2023-10-21T15:31:41.693839Z,1697902301693
0.05330371856689453,0.1254138946533203,0.009846210479736328,2023-10-21T15:31:41.714100Z,1697902301714
0.024962425231933594,0.058533668518066406,0.004893958568572998,2023-10-21T15:31:41.735090Z,1697902301735
-1.9812583923339844E-4,-4.634857177734375E-4,-3.975629806518555E-5,2023-10-21T15:31:41.754719Z,1697902301754
-0.020699739456176758,-0.04853630065917969,-0.004296243190765381,2023-10-21T15:31:41.774973Z,1697902301774
-0.036264896392822266,-0.08543682098388672,-0.007561802864074707,2023-10-21T15:31:41.795155Z,1697902301795
-0.04737257957458496,-0.1125030517578125,-0.009809255599975586,2023-10-21T15:31:41.817955Z,1697902301817
-0.053830623626708984,-0.1292562484741211,-0.010940313339233398,2023-10-21T15:31:41.835681Z,1697902301835
-0.05434250831604004,-0.1322498321533203,-0.010684072971343994,2023-10-21T15:31:41.855963Z,1697902301855
-0.04721498489379883,-0.11669731140136719,-0.008833348751068115,2023-10-21T15:31:41.876239Z,1697902301876
-0.031755924224853516,-0.0798797607421875,-0.00556105375289917,2023-10-21T15:31:41.896447Z,1697902301896
-0.00972294807434082,-0.024949073791503906,-0.0015766620635986328,2023-10-21T15:31:41.917937Z,1697902301917
0.015598773956298828,0.040932655334472656,0.0023382902145385742,2023-10-21T15:31:41.937016Z,1697902301936
0.04077649116516113,0.10969924926757812,0.005703628063201904,2023-10-21T15:31:41.957314Z,1697902301957
0.0636897087097168,0.17597484588623047,0.008430153131484985,2023-10-21T15:31:41.977879Z,1697902301977
0.08385539054870605,0.23810291290283203,0.010650634765625,2023-10-21T15:31:42.001066Z,1697902302001
0.1017911434173584,0.29698944091796875,0.012522786855697632,2023-10-21T15:31:42.018473Z,1697902302018
0.11832523345947266,0.35460376739501953,0.014169573783874512,2023-10-21T15:31:42.038778Z,1697902302038
0.13393568992614746,0.41231346130371094,0.01565372943878174,2023-10-21T15:31:42.059006Z,1697902302058
0.14847087860107422,0.46986961364746094,0.01700568199157715,2023-10-21T15:31:42.079250Z,1697902302079
0.1611952781677246,0.525059700012207,0.018195301294326782,2023-10-21T15:31:42.101106Z,1697902302101
0.17151308059692383,0.5756902694702148,0.01918312907218933,2023-10-21T15:31:42.119774Z,1697902302119
0.17938661575317383,0.6208353042602539,0.019882529973983765,2023-10-21T15:31:42.140099Z,1697902302140
0.18517374992370605,0.6607465744018555,0.0201876163482666,2023-10-21T15:31:42.160260Z,1697902302160
0.18932819366455078,0.6962089538574219,0.019993484020233154,2023-10-21T15:31:42.180531Z,1697902302180
0.19183683395385742,0.7268657684326172,0.019264698028564453,2023-10-21T15:31:42.201041Z,1697902302200
0.1925210952758789,0.7516994476318359,0.018064066767692566,2023-10-21T15:31:42.221107Z,1697902302221
0.19108033180236816,0.7688436508178711,0.016464009881019592,2023-10-21T15:31:42.241344Z,1697902302241
0.18749022483825684,0.7768354415893555,0.014483094215393066,2023-10-21T15:31:42.261546Z,1697902302261
0.18202900886535645,0.7750034332275391,0.0120440274477005,2023-10-21T15:31:42.284097Z,1697902302284
0.17514824867248535,0.763646125793457,0.00907135009765625,2023-10-21T15:31:42.302147Z,1697902302302
0.167219877243042,0.7434597015380859,0.005562104284763336,2023-10-21T15:31:42.322465Z,1697902302322
0.15831637382507324,0.714564323425293,0.0016744807362556458,2023-10-21T15:31:42.342744Z,1697902302342
0.14828777313232422,0.6765766143798828,-0.002326127141714096,2023-10-21T15:31:42.362926Z,1697902302362
0.1369168758392334,0.6290073394775391,-0.0060979947447776794,2023-10-21T15:31:42.384174Z,1697902302384
0.12412667274475098,0.5719804763793945,-0.009327679872512817,2023-10-21T15:31:42.403489Z,1697902302403
0.11031198501586914,0.5078134536743164,-0.011790290474891663,2023-10-21T15:31:42.423795Z,1697902302423
0.09617495536804199,0.44034481048583984,-0.01341336965560913,2023-10-21T15:31:42.443948Z,1697902302443
0.08240652084350586,0.37357616424560547,-0.014218777418136597,2023-10-21T15:31:42.467506Z,1697902302467
0.06944775581359863,0.3104887008666992,-0.014280945062637329,2023-10-21T15:31:42.484646Z,1697902302484
0.05751657485961914,0.25284385681152344,-0.013695955276489258,2023-10-21T15:31:42.504791Z,1697902302504
0.04700756072998047,0.20270538330078125,-0.012668967247009277,2023-10-21T15:31:42.525047Z,1697902302525
0.038420915603637695,0.1621408462524414,-0.011499583721160889,2023-10-21T15:31:42.545249Z,1697902302545
0.03244209289550781,0.13361740112304688,-0.010600805282592773,2023-10-21T15:31:42.567454Z,1697902302567
0.02959918975830078,0.11860275268554688,-0.010398805141448975,2023-10-21T15:31:42.585828Z,1697902302585
0.030376911163330078,0.11806392669677734,-0.011312246322631836,2023-10-21T15:31:42.606183Z,1697902302606
0.03503680229187012,0.13175201416015625,-0.013659060001373291,2023-10-21T15:31:42.626426Z,1697902302626
0.04352545738220215,0.15813827514648438,-0.0175703763961792,2023-10-21T15:31:42.646664Z,1697902302646
0.05535745620727539,0.19428443908691406,-0.022896289825439453,2023-10-21T15:31:42.667580Z,1697902302667
0.06972289085388184,0.23656463623046875,-0.029225468635559082,2023-10-21T15:31:42.687188Z,1697902302687
0.08562803268432617,0.2812213897705078,-0.03596854209899902,2023-10-21T15:31:42.707475Z,1697902302707
0.10170531272888184,0.32387447357177734,-0.042325735092163086,2023-10-21T15:31:42.727741Z,1697902302727
0.11654138565063477,0.36065101623535156,-0.04751753807067871,2023-10-21T15:31:42.750949Z,1697902302750
0.12883448600769043,0.38848400115966797,-0.05091500282287598,2023-10-21T15:31:42.768646Z,1697902302768
0.13799810409545898,0.4066734313964844,-0.05230283737182617,2023-10-21T15:31:42.788519Z,1697902302788
0.14398860931396484,0.41599273681640625,-0.0517810583114624,2023-10-21T15:31:42.808817Z,1697902302808
0.1470928192138672,0.4179821014404297,-0.04961585998535156,2023-10-21T15:31:42.829033Z,1697902302828
0.1477959156036377,0.41451072692871094,-0.04617631435394287,2023-10-21T15:31:42.850721Z,1697902302850
0.14673423767089844,0.40764522552490234,-0.04187124967575073,2023-10-21T15:31:42.869571Z,1697902302869
0.1443920135498047,0.3987770080566406,-0.03705453872680664,2023-10-21T15:31:42.889841Z,1697902302889
0.14105510711669922,0.38858890533447266,-0.03199422359466553,2023-10-21T15:31:42.910088Z,1697902302910
0.13698554039001465,0.3775358200073242,-0.026916444301605225,2023-10-21T15:31:42.930230Z,1697902302930
0.13276267051696777,0.3669462203979492,-0.022059082984924316,2023-10-21T15:31:42.950663Z,1697902302950
0.12912678718566895,0.35866451263427734,-0.01760333776473999,2023-10-21T15:31:42.970877Z,1697902302970
0.12642598152160645,0.35355091094970703,-0.013568699359893799,2023-10-21T15:31:42.991177Z,1697902302991
0.12432241439819336,0.3506641387939453,-0.009844213724136353,2023-10-21T15:31:43.011424Z,1697902303011
0.12152576446533203,0.3463172912597656,-0.006290048360824585,2023-10-21T15:31:43.033898Z,1697902303033
0.11643075942993164,0.3357677459716797,-0.002878628671169281,2023-10-21T15:31:43.051870Z,1697902303051
0.10767650604248047,0.31467723846435547,2.2088037803769112E-4,2023-10-21T15:31:43.072248Z,1697902303072
0.09502792358398438,0.2816963195800781,0.0027014613151550293,2023-10-21T15:31:43.092464Z,1697902303092
0.07923364639282227,0.2383861541748047,0.004286766052246094,2023-10-21T15:31:43.112699Z,1697902303112
0.06125998497009277,0.18714237213134766,0.004826352000236511,2023-10-21T15:31:43.133696Z,1697902303133
0.0418703556060791,0.12994956970214844,0.00429147481918335,2023-10-21T15:31:43.153451Z,1697902303153
0.02164435386657715,0.06829166412353516,0.002707868814468384,2023-10-21T15:31:43.173521Z,1697902303173
0.0012853145599365234,0.004126548767089844,1.8838047981262207E-4,2023-10-21T15:31:43.193816Z,1697902303193
-0.018053054809570312,-0.0589752197265625,-0.0029686689376831055,2023-10-21T15:31:43.216866Z,1697902303216
-0.034776926040649414,-0.11562824249267578,-0.00621071457862854,2023-10-21T15:31:43.234634Z,1697902303234
-0.047454118728637695,-0.16054725646972656,-0.008903920650482178,2023-10-21T15:31:43.254630Z,1697902303254
-0.05529022216796875,-0.19029712677001953,-0.010563790798187256,2023-10-21T15:31:43.274871Z,1697902303274
-0.0582883358001709,-0.20412445068359375,-0.011038541793823242,2023-10-21T15:31:43.295042Z,1697902303294
-0.056554317474365234,-0.2016000747680664,-0.01035398244857788,2023-10-21T15:31:43.316684Z,1697902303316
-0.05019783973693848,-0.18216609954833984,-0.008649826049804688,2023-10-21T15:31:43.335540Z,1697902303335
-0.03932023048400879,-0.14513111114501953,-0.0061540305614471436,2023-10-21T15:31:43.355882Z,1697902303355
-0.024544715881347656,-0.09198856353759766,-0.0033283233642578125,2023-10-21T15:31:43.376112Z,1697902303376
-0.006836414337158203,-0.025961875915527344,-7.543861865997314E-4,2023-10-21T15:31:43.396341Z,1697902303396
0.012583494186401367,0.0483856201171875,0.0010449588298797607,2023-10-21T15:31:43.416630Z,1697902303416
0.03236103057861328,0.12593936920166016,0.0017771869897842407,2023-10-21T15:31:43.436971Z,1697902303436
0.05126309394836426,0.20205020904541016,0.0014440715312957764,2023-10-21T15:31:43.457285Z,1697902303457
0.06854844093322754,0.27385902404785156,2.409573644399643E-4,2023-10-21T15:31:43.477469Z,1697902303477
0.08404159545898438,0.3405141830444336,-0.0015880875289440155,2023-10-21T15:31:43.500048Z,1697902303499
0.09776854515075684,0.4018821716308594,-0.0038335993885993958,2023-10-21T15:31:43.517942Z,1697902303517
0.10983109474182129,0.4582643508911133,-0.006314456462860107,2023-10-21T15:31:43.538324Z,1697902303538
0.12016081809997559,0.5095424652099609,-0.008830800652503967,2023-10-21T15:31:43.558562Z,1697902303558
0.12892723083496094,0.5567636489868164,-0.011226728558540344,2023-10-21T15:31:43.578717Z,1697902303578
0.13638019561767578,0.6011962890625,-0.01341681182384491,2023-10-21T15:31:43.599963Z,1697902303599
0.14275312423706055,0.6437921524047852,-0.01541350781917572,2023-10-21T15:31:43.619320Z,1697902303619
0.14824795722961426,0.6851224899291992,-0.017270952463150024,2023-10-21T15:31:43.639592Z,1697902303639
0.1529850959777832,0.7254505157470703,-0.019045233726501465,2023-10-21T15:31:43.659813Z,1697902303659
0.1569838523864746,0.7645750045776367,-0.020754307508468628,2023-10-21T15:31:43.683202Z,1697902303683
0.1599879264831543,0.8008270263671875,-0.022364884614944458,2023-10-21T15:31:43.700312Z,1697902303700
0.1614236831665039,0.8305492401123047,-0.02374890446662903,2023-10-21T15:31:43.720606Z,1697902303720
0.1608337163925171,0.8500337600708008,-0.024797439575195312,2023-10-21T15:31:43.740846Z,1697902303740
0.15824687480926514,0.8573837280273438,-0.02555832266807556,2023-10-21T15:31:43.761080Z,1697902303761
0.15414464473724365,0.8529386520385742,-0.026230454444885254,2023-10-21T15:31:43.783467Z,1697902303783
0.14898550510406494,0.8376388549804688,-0.02698579430580139,2023-10-21T15:31:43.801643Z,1697902303801
0.14271295070648193,0.8106880187988281,-0.027780622243881226,2023-10-21T15:31:43.821949Z,1697902303821
0.13484489917755127,0.7697172164916992,-0.028357595205307007,2023-10-21T15:31:43.842141Z,1697902303842
0.12478625774383545,0.7121725082397461,-0.02833452820777893,2023-10-21T15:31:43.862391Z,1697902303862
0.11238980293273926,0.63812255859375,-0.027459174394607544,2023-10-21T15:31:43.883004Z,1697902303882
0.09825682640075684,0.5519533157348633,-0.025742053985595703,2023-10-21T15:31:43.902968Z,1697902303902
0.08344054222106934,0.4608888626098633,-0.023403286933898926,2023-10-21T15:31:43.923272Z,1697902303923
0.06906628608703613,0.37278175354003906,-0.02073615789413452,2023-10-21T15:31:43.943475Z,1697902303943
0.055899977684020996,0.293243408203125,-0.017953872680664062,2023-10-21T15:31:43.966225Z,1697902303966
0.044194936752319336,0.22451305389404297,-0.015141010284423828,2023-10-21T15:31:43.984023Z,1697902303983
0.03403270244598389,0.1671152114868164,-0.012377560138702393,2023-10-21T15:31:44.004325Z,1697902304004
0.025751829147338867,0.12210941314697266,-0.00988084077835083,2023-10-21T15:31:44.024584Z,1697902304024
0.02022576332092285,0.09251785278320312,-0.008134901523590088,2023-10-21T15:31:44.044828Z,1697902304044
0.018720388412475586,0.08245372772216797,-0.007844746112823486,2023-10-21T15:31:44.066243Z,1697902304066
0.022133588790893555,0.09365558624267578,-0.009612560272216797,2023-10-21T15:31:44.085364Z,1697902304085
0.030559062957763672,0.12402534484863281,-0.013672471046447754,2023-10-21T15:31:44.105677Z,1697902304105
0.04349923133850098,0.169281005859375,-0.019931316375732422,2023-10-21T15:31:44.125829Z,1697902304125
0.059995412826538086,0.22406768798828125,-0.027983427047729492,2023-10-21T15:31:44.146063Z,1697902304146
0.07897591590881348,0.28350830078125,-0.03727233409881592,2023-10-21T15:31:44.166431Z,1697902304166
0.0992884635925293,0.343231201171875,-0.047101497650146484,2023-10-21T15:31:44.186731Z,1697902304186
0.11977124214172363,0.39957141876220703,-0.05669271945953369,2023-10-21T15:31:44.206934Z,1697902304206
0.13934946060180664,0.44988155364990234,-0.06530249118804932,2023-10-21T15:31:44.227209Z,1697902304227
0.1570146083831787,0.49216270446777344,-0.07225823402404785,2023-10-21T15:31:44.249565Z,1697902304249
0.17176365852355957,0.5247154235839844,-0.07701122760772705,2023-10-21T15:31:44.267711Z,1697902304267
0.18302083015441895,0.5471410751342773,-0.07934558391571045,2023-10-21T15:31:44.288019Z,1697902304287
0.19073987007141113,0.5601921081542969,-0.07937300205230713,2023-10-21T15:31:44.308255Z,1697902304308
0.195068359375,0.5648059844970703,-0.07735514640808105,2023-10-21T15:31:44.328488Z,1697902304328
0.19634032249450684,0.5621738433837891,-0.07363700866699219,2023-10-21T15:31:44.349252Z,1697902304349
0.19501185417175293,0.5536966323852539,-0.06862545013427734,2023-10-21T15:31:44.369038Z,1697902304368
0.19182562828063965,0.5414161682128906,-0.06283843517303467,2023-10-21T15:31:44.389326Z,1697902304389
0.18744802474975586,0.5269298553466797,-0.056734442710876465,2023-10-21T15:31:44.409546Z,1697902304409
0.1825389862060547,0.5116863250732422,-0.050738394260406494,2023-10-21T15:31:44.432691Z,1697902304432
0.17720866203308105,0.4956645965576172,-0.04502558708190918,2023-10-21T15:31:44.450130Z,1697902304450
0.1712489128112793,0.47809505462646484,-0.03963172435760498,2023-10-21T15:31:44.470444Z,1697902304470
0.16413021087646484,0.45737457275390625,-0.034490108489990234,2023-10-21T15:31:44.490658Z,1697902304490
0.15523052215576172,0.43170642852783203,-0.029509007930755615,2023-10-21T15:31:44.510878Z,1697902304510
0.14389514923095703,0.3992500305175781,-0.024625718593597412,2023-10-21T15:31:44.532591Z,1697902304532
0.12925148010253906,0.3576946258544922,-0.019792139530181885,2023-10-21T15:31:44.551443Z,1697902304551
0.11041402816772461,0.3047962188720703,-0.015006154775619507,2023-10-21T15:31:44.571767Z,1697902304571
0.08696341514587402,0.2395772933959961,-0.010379880666732788,2023-10-21T15:31:44.591987Z,1697902304591
0.05948305130004883,0.16365909576416016,-0.006163507699966431,2023-10-21T15:31:44.612155Z,1697902304612
0.029070615768432617,0.07994365692138672,-0.0025783777236938477,2023-10-21T15:31:44.632624Z,1697902304632
-0.0027577877044677734,-0.007582664489746094,2.0757317543029785E-4,2023-10-21T15:31:44.652837Z,1697902304652
-0.03436422348022461,-0.09451007843017578,0.00214599072933197,2023-10-21T15:31:44.673078Z,1697902304673
-0.06392359733581543,-0.1758403778076172,0.0033296197652816772,2023-10-21T15:31:44.693252Z,1697902304693
-0.08918499946594238,-0.24537086486816406,0.0039880722761154175,2023-10-21T15:31:44.715741Z,1697902304715
-0.1076192855834961,-0.29610252380371094,0.004472821950912476,2023-10-21T15:31:44.733774Z,1697902304733
-0.11738777160644531,-0.3230094909667969,0.005086749792098999,2023-10-21T15:31:44.754135Z,1697902304754
-0.11782646179199219,-0.3244161605834961,0.005871817469596863,2023-10-21T15:31:44.774343Z,1697902304774
-0.10964536666870117,-0.30242443084716797,0.006600111722946167,2023-10-21T15:31:44.794521Z,1697902304794
-0.09412026405334473,-0.26057910919189453,0.006886199116706848,2023-10-21T15:31:44.815854Z,1697902304815
-0.07251834869384766,-0.2020397186279297,0.006354629993438721,2023-10-21T15:31:44.835150Z,1697902304835
-0.04629349708557129,-0.1301736831665039,0.004760533571243286,2023-10-21T15:31:44.855446Z,1697902304855
-0.017216920852661133,-0.04900836944580078,0.002034097909927368,2023-10-21T15:31:44.875633Z,1697902304875
0.01278543472290039,0.03694725036621094,-0.0017008483409881592,2023-10-21T15:31:44.899341Z,1697902304899
0.0416412353515625,0.12253284454345703,-0.00609925389289856,2023-10-21T15:31:44.916325Z,1697902304916
0.06729245185852051,0.2023019790649414,-0.010607808828353882,2023-10-21T15:31:44.936451Z,1697902304936
0.08877086639404297,0.2736320495605469,-0.014715969562530518,2023-10-21T15:31:44.956683Z,1697902304956
0.10633230209350586,0.3372201919555664,-0.018147051334381104,2023-10-21T15:31:44.976928Z,1697902304976
0.12125730514526367,0.39673328399658203,-0.020943820476531982,2023-10-21T15:31:44.999087Z,1697902304999
0.1346733570098877,0.4553718566894531,-0.02326381206512451,2023-10-21T15:31:45.017447Z,1697902305017
0.14706635475158691,0.5144357681274414,-0.025237321853637695,2023-10-21T15:31:45.037776Z,1697902305037
0.15856409072875977,0.5741157531738281,-0.026948094367980957,2023-10-21T15:31:45.058008Z,1697902305057
0.16916370391845703,0.6341695785522461,-0.0284883975982666,2023-10-21T15:31:45.078208Z,1697902305078
0.1786513328552246,0.6934623718261719,-0.02990090847015381,2023-10-21T15:31:45.098942Z,1697902305098
0.1866319179534912,0.7497196197509766,-0.031205564737319946,2023-10-21T15:31:45.118947Z,1697902305118
0.192732572555542,0.8001976013183594,-0.032443881034851074,2023-10-21T15:31:45.139121Z,1697902305139
0.1966865062713623,0.8421411514282227,-0.03370624780654907,2023-10-21T15:31:45.159317Z,1697902305159
0.19826817512512207,0.8729591369628906,-0.03505626320838928,2023-10-21T15:31:45.182278Z,1697902305182
0.19719743728637695,0.8901453018188477,-0.03652346134185791,2023-10-21T15:31:45.199811Z,1697902305199
0.19315648078918457,0.8914299011230469,-0.03805878758430481,2023-10-21T15:31:45.220137Z,1697902305220
0.18590211868286133,0.8751306533813477,-0.03952968120574951,2023-10-21T15:31:45.240503Z,1697902305240
0.1756507158279419,0.8416566848754883,-0.04083913564682007,2023-10-21T15:31:45.260603Z,1697902305260
0.1631087064743042,0.7938175201416016,-0.041923344135284424,2023-10-21T15:31:45.282300Z,1697902305282
0.14929795265197754,0.7362117767333984,-0.04278373718261719,2023-10-21T15:31:45.301149Z,1697902305301
0.13505291938781738,0.6729850769042969,-0.04335832595825195,2023-10-21T15:31:45.321457Z,1697902305321
0.12100684642791748,0.6076850891113281,-0.04356718063354492,2023-10-21T15:31:45.341655Z,1697902305341
0.10792279243469238,0.5444173812866211,-0.04346334934234619,2023-10-21T15:31:45.361859Z,1697902305361
0.09685003757476807,0.4885683059692383,-0.04339468479156494,2023-10-21T15:31:45.382416Z,1697902305382
0.08895432949066162,0.44574737548828125,-0.0439487099647522,2023-10-21T15:31:45.402521Z,1697902305402
0.08498072624206543,0.4191436767578125,-0.04565894603729248,2023-10-21T15:31:45.422761Z,1697902305422
0.08497285842895508,0.4079313278198242,-0.0487288236618042,2023-10-21T15:31:45.442953Z,1697902305442
0.0880126953125,0.4065847396850586,-0.05269575119018555,2023-10-21T15:31:45.465372Z,1697902305465
0.09286808967590332,0.4086484909057617,-0.05679309368133545,2023-10-21T15:31:45.483507Z,1697902305483
0.09859752655029297,0.4099407196044922,-0.06043529510498047,2023-10-21T15:31:45.503802Z,1697902305503
0.10521459579467773,0.4110231399536133,-0.06371307373046875,2023-10-21T15:31:45.524092Z,1697902305524
0.11302614212036133,0.4135704040527344,-0.06692755222320557,2023-10-21T15:31:45.544375Z,1697902305544
0.12168526649475098,0.4167776107788086,-0.06995534896850586,2023-10-21T15:31:45.565503Z,1697902305565
0.1300828456878662,0.41765785217285156,-0.07222998142242432,2023-10-21T15:31:45.584871Z,1697902305584
0.1365041732788086,0.4121885299682617,-0.07291018962860107,2023-10-21T15:31:45.605162Z,1697902305605
0.1397538185119629,0.3986978530883789,-0.07158446311950684,2023-10-21T15:31:45.625378Z,1697902305625
0.13979148864746094,0.37880420684814453,-0.06854116916656494,2023-10-21T15:31:45.648700Z,1697902305648
0.13821649551391602,0.3577451705932617,-0.06484520435333252,2023-10-21T15:31:45.665861Z,1697902305665
0.1369943618774414,0.34052085876464844,-0.061540842056274414,2023-10-21T15:31:45.686239Z,1697902305686
0.13732576370239258,0.32945823669433594,-0.05908763408660889,2023-10-21T15:31:45.706499Z,1697902305706
0.1388561725616455,0.3228931427001953,-0.05713236331939697,2023-10-21T15:31:45.726703Z,1697902305726
0.14080381393432617,0.31828880310058594,-0.05517446994781494,2023-10-21T15:31:45.748453Z,1697902305748
0.14269256591796875,0.3140296936035156,-0.052928924560546875,2023-10-21T15:31:45.767226Z,1697902305767
0.14425945281982422,0.3091239929199219,-0.0503004789352417,2023-10-21T15:31:45.787521Z,1697902305787
0.14535188674926758,0.3030414581298828,-0.0473172664642334,2023-10-21T15:31:45.807749Z,1697902305807
0.14595508575439453,0.2957172393798828,-0.04413044452667236,2023-10-21T15:31:45.827980Z,1697902305827
0.14595937728881836,0.2870912551879883,-0.04087984561920166,2023-10-21T15:31:45.848434Z,1697902305848
0.14455366134643555,0.27585792541503906,-0.03749573230743408,2023-10-21T15:31:45.868534Z,1697902305868
0.13994884490966797,0.2591209411621094,-0.03367197513580322,2023-10-21T15:31:45.888831Z,1697902305888
0.12933349609375,0.2324981689453125,-0.028908252716064453,2023-10-21T15:31:45.909058Z,1697902305909
0.11054563522338867,0.19319820404052734,-0.023015260696411133,2023-10-21T15:31:45.931695Z,1697902305931
0.08334922790527344,0.14187908172607422,-0.016276776790618896,2023-10-21T15:31:45.949576Z,1697902305949
0.050257205963134766,0.08350181579589844,-0.00933384895324707,2023-10-21T15:31:45.969893Z,1697902305969
0.014696598052978516,0.02389049530029297,-0.0026502609252929688,2023-10-21T15:31:45.990179Z,1697902305990
-0.02129840850830078,-0.033965110778808594,0.0038120150566101074,2023-10-21T15:31:46.010371Z,1697902306010
-0.058167457580566406,-0.09129142761230469,0.010500073432922363,2023-10-21T15:31:46.031459Z,1697902306031
-0.09683561325073242,-0.1500835418701172,0.017853736877441406,2023-10-21T15:31:46.050929Z,1697902306050
-0.13617849349975586,-0.20905065536499023,0.025896966457366943,2023-10-21T15:31:46.071249Z,1697902306071
-0.17244243621826172,-0.26264095306396484,0.03419959545135498,2023-10-21T15:31:46.091449Z,1697902306091
-0.19992733001708984,-0.30208778381347656,0.041881442070007324,2023-10-21T15:31:46.114767Z,1697902306114
-0.2140650749206543,-0.32039833068847656,0.047917723655700684,2023-10-21T15:31:46.131974Z,1697902306131
-0.21402549743652344,-0.31671571731567383,0.05141568183898926,2023-10-21T15:31:46.152275Z,1697902306152
-0.20374393463134766,-0.2975935935974121,0.05230975151062012,2023-10-21T15:31:46.172526Z,1697902306172
-0.18868684768676758,-0.271578311920166,0.05124998092651367,2023-10-21T15:31:46.192806Z,1697902306192
-0.17093420028686523,-0.2418527603149414,0.04858124256134033,2023-10-21T15:31:46.215306Z,1697902306215
-0.14710521697998047,-0.2039504051208496,0.04337811470031738,2023-10-21T15:31:46.233298Z,1697902306233
-0.1119694709777832,-0.15159368515014648,0.03403675556182861,2023-10-21T15:31:46.253619Z,1697902306253
-0.06350898742675781,-0.08376216888427734,0.019801616668701172,2023-10-21T15:31:46.273871Z,1697902306273
-0.005230426788330078,-0.006717205047607422,0.0016629695892333984,2023-10-21T15:31:46.294118Z,1697902306294
0.05625200271606445,0.0704507827758789,-0.018146991729736328,2023-10-21T15:31:46.314649Z,1697902306314
0.11445188522338867,0.14017772674560547,-0.037216901779174805,2023-10-21T15:31:46.334618Z,1697902306334
0.16675186157226562,0.2002558708190918,-0.05440783500671387,2023-10-21T15:31:46.354916Z,1697902306354
0.2144179344177246,0.2529416084289551,-0.07002973556518555,2023-10-21T15:31:46.375131Z,1697902306375
0.261014461517334,0.3027987480163574,-0.0853872299194336,2023-10-21T15:31:46.398059Z,1697902306397
0.3077983856201172,0.35160303115844727,-0.10119271278381348,2023-10-21T15:31:46.415644Z,1697902306415
0.35166358947753906,0.3963298797607422,-0.11671900749206543,2023-10-21T15:31:46.435981Z,1697902306435
0.3880934715270996,0.4326004981994629,-0.13064122200012207,2023-10-21T15:31:46.456226Z,1697902306456
0.4144606590270996,0.45807981491088867,-0.14202475547790527,2023-10-21T15:31:46.476476Z,1697902306476
0.43216896057128906,0.47450828552246094,-0.1511554718017578,2023-10-21T15:31:46.497916Z,1697902306497
0.4447975158691406,0.4855794906616211,-0.15913820266723633,2023-10-21T15:31:46.516993Z,1697902306516
0.4569268226623535,0.49585437774658203,-0.16757583618164062,2023-10-21T15:31:46.537299Z,1697902306537
0.4724421501159668,0.5092325210571289,-0.1778883934020996,2023-10-21T15:31:46.557487Z,1697902306557
0.4923391342163086,0.5268964767456055,-0.19046783447265625,2023-10-21T15:31:46.577706Z,1697902306577
0.5127458572387695,0.5452713966369629,-0.2036266326904297,2023-10-21T15:31:46.598045Z,1697902306597
0.5282621383666992,0.5592694282531738,-0.2148876190185547,2023-10-21T15:31:46.618377Z,1697902306618
0.5356011390686035,0.5657806396484375,-0.2225480079650879,2023-10-21T15:31:46.638616Z,1697902306638
0.5356540679931641,0.5656023025512695,-0.22692084312438965,2023-10-21T15:31:46.658836Z,1697902306658
0.5320782661437988,0.562255859375,-0.22974205017089844,2023-10-21T15:31:46.681275Z,1697902306681
0.5281915664672852,0.5592312812805176,-0.2328169345855713,2023-10-21T15:31:46.699411Z,1697902306699
0.5235891342163086,0.5564570426940918,-0.23622465133666992,2023-10-21T15:31:46.719635Z,1697902306719
0.5135445594787598,0.5493106842041016,-0.23786258697509766,2023-10-21T15:31:46.739906Z,1697902306739
0.4917421340942383,0.5311150550842285,-0.2345871925354004,2023-10-21T15:31:46.760162Z,1697902306760
0.4561276435852051,0.49895763397216797,-0.2247624397277832,2023-10-21T15:31:46.780972Z,1697902306780
0.4119687080383301,0.45732831954956055,-0.2102348804473877,2023-10-21T15:31:46.800893Z,1697902306800
0.36749887466430664,0.41419553756713867,-0.194566011428833,2023-10-21T15:31:46.820992Z,1697902306820
0.3297123908996582,0.3769087791442871,-0.18124079704284668,2023-10-21T15:31:46.841188Z,1697902306841
0.3005218505859375,0.34788990020751953,-0.17135214805603027,2023-10-21T15:31:46.864501Z,1697902306864
0.27803564071655273,0.3254842758178711,-0.16397643089294434,2023-10-21T15:31:46.881715Z,1697902306881
0.2586526870727539,0.30588197708129883,-0.15705370903015137,2023-10-21T15:31:46.902091Z,1697902306902
0.24107980728149414,0.2876620292663574,-0.14980363845825195,2023-10-21T15:31:46.922300Z,1697902306922
0.22733259201049805,0.2732701301574707,-0.14357686042785645,2023-10-21T15:31:46.942496Z,1697902306942
0.2201371192932129,0.2661600112915039,-0.1403355598449707,2023-10-21T15:31:46.964359Z,1697902306964
0.2197861671447754,0.26698923110961914,-0.14053034782409668,2023-10-21T15:31:46.983044Z,1697902306983
0.2229766845703125,0.27211666107177734,-0.14224791526794434,2023-10-21T15:31:47.003346Z,1697902307003
0.22580575942993164,0.27706336975097656,-0.14313650131225586,2023-10-21T15:31:47.023572Z,1697902307023
0.2253584861755371,0.2784113883972168,-0.14147043228149414,2023-10-21T15:31:47.043804Z,1697902307043
0.22049713134765625,0.2746744155883789,-0.13669490814208984,2023-10-21T15:31:47.064272Z,1697902307064
0.2114577293395996,0.26587772369384766,-0.1291487216949463,2023-10-21T15:31:47.084405Z,1697902307084
0.2001476287841797,0.2541022300720215,-0.12021136283874512,2023-10-21T15:31:47.104719Z,1697902307104
0.18836116790771484,0.2414841651916504,-0.11112117767333984,2023-10-21T15:31:47.124941Z,1697902307124
0.17714929580688477,0.22938871383666992,-0.10258150100708008,2023-10-21T15:31:47.147567Z,1697902307147
0.16718292236328125,0.2187199592590332,-0.09497809410095215,2023-10-21T15:31:47.165419Z,1697902307165
0.15918874740600586,0.21045827865600586,-0.0886540412902832,2023-10-21T15:31:47.185751Z,1697902307185
0.15399646759033203,0.20573997497558594,-0.08396410942077637,2023-10-21T15:31:47.206Z,1697902307205
0.15190935134887695,0.20505952835083008,-0.08092737197875977,2023-10-21T15:31:47.226252Z,1697902307226
0.15258312225341797,0.2081007957458496,-0.07922244071960449,2023-10-21T15:31:47.247478Z,1697902307247
0.1556229591369629,0.2144775390625,-0.07851505279541016,2023-10-21T15:31:47.266800Z,1697902307266
0.1607823371887207,0.22396278381347656,-0.07857155799865723,2023-10-21T15:31:47.287066Z,1697902307286
0.16734075546264648,0.23562002182006836,-0.07894015312194824,2023-10-21T15:31:47.307271Z,1697902307307
0.17438459396362305,0.2481684684753418,-0.07914471626281738,2023-10-21T15:31:47.330779Z,1697902307330
0.18108367919921875,0.26038551330566406,-0.07879877090454102,2023-10-21T15:31:47.347863Z,1697902307347
0.18675470352172852,0.27124691009521484,-0.0776512622833252,2023-10-21T15:31:47.368161Z,1697902307368
0.1910552978515625,0.2801995277404785,-0.07567262649536133,2023-10-21T15:31:47.388347Z,1697902307388
0.19373846054077148,0.2868485450744629,-0.07292699813842773,2023-10-21T15:31:47.408581Z,1697902307408
0.19483089447021484,0.2912025451660156,-0.06959545612335205,2023-10-21T15:31:47.430655Z,1697902307430
0.1950063705444336,0.2942008972167969,-0.06605660915374756,2023-10-21T15:31:47.449109Z,1697902307449
0.19523096084594727,0.2971620559692383,-0.06272017955780029,2023-10-21T15:31:47.469421Z,1697902307469
0.1961078643798828,0.3008384704589844,-0.05980110168457031,2023-10-21T15:31:47.489653Z,1697902307489
0.19737958908081055,0.30471134185791016,-0.05723690986633301,2023-10-21T15:31:47.509934Z,1697902307509
0.1981196403503418,0.3072938919067383,-0.05477285385131836,2023-10-21T15:31:47.530559Z,1697902307530
0.19708633422851562,0.3066682815551758,-0.052112698554992676,2023-10-21T15:31:47.550461Z,1697902307550
0.19373321533203125,0.30202674865722656,-0.04918372631072998,2023-10-21T15:31:47.570770Z,1697902307570
0.18843841552734375,0.2940082550048828,-0.0461353063583374,2023-10-21T15:31:47.591035Z,1697902307590
0.1822190284729004,0.28421783447265625,-0.04323720932006836,2023-10-21T15:31:47.614097Z,1697902307614
0.17577695846557617,0.2737312316894531,-0.04064345359802246,2023-10-21T15:31:47.631468Z,1697902307631
0.16840839385986328,0.2614564895629883,-0.03816699981689453,2023-10-21T15:31:47.651790Z,1697902307651
0.1578655242919922,0.2440509796142578,-0.035271406173706055,2023-10-21T15:31:47.672057Z,1697902307672
0.14176416397094727,0.21810436248779297,-0.03142082691192627,2023-10-21T15:31:47.692254Z,1697902307692
0.1195526123046875,0.18302631378173828,-0.026477456092834473,2023-10-21T15:31:47.713619Z,1697902307713
0.09276771545410156,0.14126205444335938,-0.02070462703704834,2023-10-21T15:31:47.732807Z,1697902307732
0.06444931030273438,0.09749507904052734,-0.014656543731689453,2023-10-21T15:31:47.753182Z,1697902307753
0.03758430480957031,0.056359291076660156,-0.008823156356811523,2023-10-21T15:31:47.773336Z,1697902307773
0.01421499252319336,0.021074295043945312,-0.0034934282302856445,2023-10-21T15:31:47.793525Z,1697902307793
-0.0048580169677734375,-0.007101535797119141,0.0012652873992919922,2023-10-21T15:31:47.814122Z,1697902307813
-0.019550323486328125,-0.02814483642578125,0.005461573600769043,2023-10-21T15:31:47.834188Z,1697902307834
-0.02999591827392578,-0.042508602142333984,0.009047746658325195,2023-10-21T15:31:47.854519Z,1697902307854
-0.03555440902709961,-0.04964256286621094,0.011631488800048828,2023-10-21T15:31:47.874633Z,1697902307874
-0.03532838821411133,-0.04867267608642578,0.012554407119750977,2023-10-21T15:31:47.897031Z,1697902307896
-0.02889251708984375,-0.039338111877441406,0.011137008666992188,2023-10-21T15:31:47.915172Z,1697902307915
-0.016547679901123047,-0.022301197052001953,0.006893634796142578,2023-10-21T15:31:47.935508Z,1697902307935
3.571510314941406E-4,4.773139953613281E-4,-1.6117095947265625E-4,2023-10-21T15:31:47.955804Z,1697902307955
0.01945638656616211,0.02583026885986328,-0.009310245513916016,2023-10-21T15:31:47.975971Z,1697902307975
0.03824329376220703,0.05054330825805664,-0.019433021545410156,2023-10-21T15:31:47.996890Z,1697902307996
0.055309295654296875,0.07290315628051758,-0.029668569564819336,2023-10-21T15:31:48.016567Z,1697902308016
0.07097578048706055,0.0934286117553711,-0.03998303413391113,2023-10-21T15:31:48.036816Z,1697902308036
0.08727025985717773,0.1147918701171875,-0.05136466026306152,2023-10-21T15:31:48.057120Z,1697902308057
0.10598611831665039,0.13927555084228516,-0.06483197212219238,2023-10-21T15:31:48.080326Z,1697902308080
0.1281299591064453,0.16809892654418945,-0.08104681968688965,2023-10-21T15:31:48.097542Z,1697902308097
0.15307188034057617,0.20040035247802734,-0.09968209266662598,2023-10-21T15:31:48.117877Z,1697902308117
0.17964696884155273,0.23480558395385742,-0.12005949020385742,2023-10-21T15:31:48.138140Z,1697902308138
0.20728826522827148,0.270904541015625,-0.14186477661132812,2023-10-21T15:31:48.158371Z,1697902308158
0.23679780960083008,0.310147762298584,-0.16567659378051758,2023-10-21T15:31:48.180072Z,1697902308180
0.2692451477050781,0.35432958602905273,-0.19220542907714844,2023-10-21T15:31:48.198821Z,1697902308198
0.30411481857299805,0.40307092666625977,-0.22088003158569336,2023-10-21T15:31:48.219192Z,1697902308219
0.33916711807250977,0.4537677764892578,-0.24977660179138184,2023-10-21T15:31:48.239367Z,1697902308239
0.3709230422973633,0.5020890235900879,-0.27602148056030273,2023-10-21T15:31:48.259603Z,1697902308259
0.3968372344970703,0.5447554588317871,-0.29740238189697266,2023-10-21T15:31:48.280046Z,1697902308280
0.4156479835510254,0.5798425674438477,-0.3126537799835205,2023-10-21T15:31:48.300233Z,1697902308300
0.42775487899780273,0.6071176528930664,-0.32167744636535645,2023-10-21T15:31:48.320491Z,1697902308320
0.43412113189697266,0.626645565032959,-0.32476043701171875,2023-10-21T15:31:48.340703Z,1697902308340
0.4354991912841797,0.6381030082702637,-0.3222532272338867,2023-10-21T15:31:48.363432Z,1697902308363
0.43175697326660156,0.6400690078735352,-0.31415486335754395,2023-10-21T15:31:48.381237Z,1697902308381
0.4224972724914551,0.6312441825866699,-0.3006899356842041,2023-10-21T15:31:48.401562Z,1697902308401
0.4077444076538086,0.6115970611572266,-0.2826707363128662,2023-10-21T15:31:48.421810Z,1697902308421
0.388338565826416,0.5825471878051758,-0.2615058422088623,2023-10-21T15:31:48.441982Z,1697902308441
0.36612701416015625,0.5472230911254883,-0.23915791511535645,2023-10-21T15:31:48.463112Z,1697902308463
0.3435850143432617,0.5097537040710449,-0.21768641471862793,2023-10-21T15:31:48.482588Z,1697902308482
0.3237729072570801,0.4750709533691406,-0.19919085502624512,2023-10-21T15:31:48.502894Z,1697902308502
0.30974864959716797,0.4479665756225586,-0.1854236125946045,2023-10-21T15:31:48.523073Z,1697902308523
0.3039431571960449,0.4320650100708008,-0.17759037017822266,2023-10-21T15:31:48.546539Z,1697902308546
0.30681276321411133,0.42790889739990234,-0.17570877075195312,2023-10-21T15:31:48.563611Z,1697902308563
0.31696176528930664,0.43329906463623047,-0.17878270149230957,2023-10-21T15:31:48.583957Z,1697902308583
0.33130884170532227,0.4435701370239258,-0.18488740921020508,2023-10-21T15:31:48.604221Z,1697902308604
0.34716033935546875,0.45445871353149414,-0.1923353672027588,2023-10-21T15:31:48.624395Z,1697902308624
0.3628959655761719,0.46309661865234375,-0.20001769065856934,2023-10-21T15:31:48.646531Z,1697902308646
0.37726926803588867,0.4673271179199219,-0.207075834274292,2023-10-21T15:31:48.664939Z,1697902308664
0.3886251449584961,0.46501779556274414,-0.21256470680236816,2023-10-21T15:31:48.685225Z,1697902308685
0.39444875717163086,0.45375823974609375,-0.21518278121948242,2023-10-21T15:31:48.705475Z,1697902308705
0.3918027877807617,0.43145275115966797,-0.21346616744995117,2023-10-21T15:31:48.725688Z,1697902308725
0.3785824775695801,0.39748048782348633,-0.20632648468017578,2023-10-21T15:31:48.746319Z,1697902308746
0.3544015884399414,0.3534388542175293,-0.19347429275512695,2023-10-21T15:31:48.766272Z,1697902308766
0.32042407989501953,0.30251359939575195,-0.17543625831604004,2023-10-21T15:31:48.786542Z,1697902308786
0.27872562408447266,0.24846744537353516,-0.1532142162322998,2023-10-21T15:31:48.806817Z,1697902308806
0.23066282272338867,0.1938495635986328,-0.12737274169921875,2023-10-21T15:31:48.829539Z,1697902308829
0.17645549774169922,0.13974618911743164,-0.09790992736816406,2023-10-21T15:31:48.847323Z,1697902308847
0.11667823791503906,0.08713197708129883,-0.06504440307617188,2023-10-21T15:31:48.867612Z,1697902308867
0.05397319793701172,0.038066864013671875,-0.030212879180908203,2023-10-21T15:31:48.887871Z,1697902308887
-0.007107734680175781,-0.004746437072753906,0.003991127014160156,2023-10-21T15:31:48.908147Z,1697902308908
-0.05999183654785156,-0.0380558967590332,0.03375864028930664,2023-10-21T15:31:48.929573Z,1697902308929
-0.09872865676879883,-0.05975818634033203,0.0556187629699707,2023-10-21T15:31:48.948612Z,1697902308948
-0.11789560317993164,-0.0684499740600586,0.0663900375366211,2023-10-21T15:31:48.968926Z,1697902308968
-0.11572694778442383,-0.06479167938232422,0.06494998931884766,2023-10-21T15:31:48.989161Z,1697902308989
-0.09405946731567383,-0.051004886627197266,0.05237436294555664,2023-10-21T15:31:49.009301Z,1697902309009
-0.058260440826416016,-0.030702590942382812,0.03204202651977539,2023-10-21T15:31:49.029646Z,1697902309029
-0.015633583068847656,-0.00803232192993164,0.008461475372314453,2023-10-21T15:31:49.049952Z,1697902309049
0.026648998260498047,0.013404369354248047,-0.014162540435791016,2023-10-21T15:31:49.070256Z,1697902309070
0.06259012222290039,0.030973196029663086,-0.03261137008666992,2023-10-21T15:31:49.090426Z,1697902309090
0.08802604675292969,0.043088674545288086,-0.04490518569946289,2023-10-21T15:31:49.112810Z,1697902309112
0.09976673126220703,0.048571109771728516,-0.04973602294921875,2023-10-21T15:31:49.130990Z,1697902309130
0.09514808654785156,0.046321868896484375,-0.04621720314025879,2023-10-21T15:31:49.151297Z,1697902309151
0.07246208190917969,0.03546929359436035,-0.03417515754699707,2023-10-21T15:31:49.171548Z,1697902309171
0.034867286682128906,0.017269134521484375,-0.01592111587524414,2023-10-21T15:31:49.191808Z,1697902309191
-0.008072853088378906,-0.004077434539794922,0.0035631656646728516,2023-10-21T15:31:49.212713Z,1697902309212
-0.03938484191894531,-0.020507335662841797,0.016826152801513672,2023-10-21T15:31:49.232325Z,1697902309232
-0.039628028869628906,-0.021531105041503906,0.016443967819213867,2023-10-21T15:31:49.252638Z,1697902309252
0.007456779479980469,0.0042781829833984375,-0.003026247024536133,2023-10-21T15:31:49.272889Z,1697902309272
0.10692024230957031,0.06544780731201172,-0.04287886619567871,2023-10-21T15:31:49.296019Z,1697902309295
0.2517366409301758,0.16573429107666016,-0.1013638973236084,2023-10-21T15:31:49.313374Z,1697902309313
0.4286518096923828,0.30473947525024414,-0.17696261405944824,2023-10-21T15:31:49.333700Z,1697902309333
0.6257543563842773,0.48008060455322266,-0.27132129669189453,2023-10-21T15:31:49.353944Z,1697902309353
0.8396515846252441,0.6915884017944336,-0.391357421875,2023-10-21T15:31:49.374163Z,1697902309374
1.0633583068847656,0.9327983856201172,-0.5435726642608643,2023-10-21T15:31:49.396049Z,1697902309396
1.2813544273376465,1.184497356414795,-0.7286136150360107,2023-10-21T15:31:49.414693Z,1697902309414
1.4715495109558105,1.41127347946167,-0.9342694282531738,2023-10-21T15:31:49.434989Z,1697902309434
1.6089301109313965,1.5707030296325684,-1.1339988708496094,2023-10-21T15:31:49.455255Z,1697902309455
1.6961860656738281,1.649512767791748,-1.3107528686523438,2023-10-21T15:31:49.475439Z,1697902309475
1.7528257369995117,1.6665043830871582,-1.4671616554260254,2023-10-21T15:31:49.495852Z,1697902309495
1.8005990982055664,1.6527938842773438,-1.6168146133422852,2023-10-21T15:31:49.516040Z,1697902309515
1.8483729362487793,1.6286396980285645,-1.7662792205810547,2023-10-21T15:31:49.536360Z,1697902309536
1.8876194953918457,1.5958075523376465,-1.9062695503234863,2023-10-21T15:31:49.556524Z,1697902309556
1.9067535400390625,1.5447120666503906,-2.019343852996826,2023-10-21T15:31:49.579202Z,1697902309579
1.9062938690185547,1.474625587463379,-2.098954200744629,2023-10-21T15:31:49.597042Z,1697902309597
1.8916335105895996,1.3927812576293945,-2.148469924926758,2023-10-21T15:31:49.617367Z,1697902309617
1.8736867904663086,1.3172893524169922,-2.1864423751831055,2023-10-21T15:31:49.637617Z,1697902309637
1.8716435432434082,1.2695751190185547,-2.2448720932006836,2023-10-21T15:31:49.657834Z,1697902309657
1.883894920349121,1.2514424324035645,-2.336245536804199,2023-10-21T15:31:49.679799Z,1697902309679
1.8979730606079102,1.24497652053833,-2.4488983154296875,2023-10-21T15:31:49.698498Z,1697902309698
1.9021968841552734,1.225743055343628,-2.561764717102051,2023-10-21T15:31:49.718719Z,1697902309718
1.8938932418823242,1.1775786876678467,-2.6610445976257324,2023-10-21T15:31:49.738943Z,1697902309738
1.8799505233764648,1.097611904144287,-2.746493339538574,2023-10-21T15:31:49.762377Z,1697902309762
1.8604369163513184,0.9903903007507324,-2.8186941146850586,2023-10-21T15:31:49.779453Z,1697902309779
1.8316411972045898,0.8582630157470703,-2.8714218139648438,2023-10-21T15:31:49.799728Z,1697902309799
1.7971410751342773,0.7057585716247559,-2.9016618728637695,2023-10-21T15:31:49.819966Z,1697902309819
1.7622275352478027,0.5391006469726562,-2.9081249237060547,2023-10-21T15:31:49.840201Z,1697902309840
1.7285723686218262,0.36412250995635986,-2.88626766204834,2023-10-21T15:31:49.862301Z,1697902309862
1.6898040771484375,0.18580591678619385,-2.824687957763672,2023-10-21T15:31:49.880745Z,1697902309880
1.641110897064209,0.011154033243656158,-2.7150707244873047,2023-10-21T15:31:49.901050Z,1697902309901
1.5819106101989746,-0.14822238683700562,-2.559117317199707,2023-10-21T15:31:49.921233Z,1697902309921
1.5143322944641113,-0.27821266651153564,-2.3720035552978516,2023-10-21T15:31:49.941512Z,1697902309941
1.4484162330627441,-0.3708266019821167,-2.18155574798584,2023-10-21T15:31:49.962134Z,1697902309962
1.3807106018066406,-0.4272695779800415,-1.9975976943969727,2023-10-21T15:31:49.982093Z,1697902309982
1.3048591613769531,-0.4558156728744507,-1.8166680335998535,2023-10-21T15:31:50.002425Z,1697902310002
1.2179985046386719,-0.46642088890075684,-1.6349334716796875,2023-10-21T15:31:50.022588Z,1697902310022
1.1278839111328125,-0.4686417579650879,-1.4605069160461426,2023-10-21T15:31:50.045462Z,1697902310045
1.0518059730529785,-0.471423864364624,-1.3121886253356934,2023-10-21T15:31:50.063110Z,1697902310063
1.0007667541503906,-0.4785957336425781,-1.202519416809082,2023-10-21T15:31:50.083427Z,1697902310083
0.9743003845214844,-0.49059200286865234,-1.1308245658874512,2023-10-21T15:31:50.103667Z,1697902310103
0.9716811180114746,-0.5087924003601074,-1.0943965911865234,2023-10-21T15:31:50.123923Z,1697902310123
0.9939379692077637,-0.5376412868499756,-1.0894112586975098,2023-10-21T15:31:50.145686Z,1697902310145
1.0333061218261719,-0.5783348083496094,-1.1010727882385254,2023-10-21T15:31:50.164476Z,1697902310164
1.0905227661132812,-0.630634069442749,-1.1215543746948242,2023-10-21T15:31:50.184741Z,1697902310184
1.1612958908081055,-0.6855676174163818,-1.1425466537475586,2023-10-21T15:31:50.204975Z,1697902310204
1.2337827682495117,-0.727231502532959,-1.154055118560791,2023-10-21T15:31:50.225125Z,1697902310225
1.291543960571289,-0.7410573959350586,-1.1463074684143066,2023-10-21T15:31:50.245480Z,1697902310245
1.3167829513549805,-0.7194118499755859,-1.1110339164733887,2023-10-21T15:31:50.265806Z,1697902310265
1.311563491821289,-0.6706416606903076,-1.0535449981689453,2023-10-21T15:31:50.286077Z,1697902310286
1.2883682250976562,-0.6073684692382812,-0.9852757453918457,2023-10-21T15:31:50.306323Z,1697902310306
1.2541389465332031,-0.5380363464355469,-0.9125070571899414,2023-10-21T15:31:50.328532Z,1697902310328
1.2097525596618652,-0.4662501811981201,-0.8367486000061035,2023-10-21T15:31:50.346831Z,1697902310346
1.152374267578125,-0.3923475742340088,-0.7580595016479492,2023-10-21T15:31:50.367139Z,1697902310367
1.0799274444580078,-0.3169076442718506,-0.6774330139160156,2023-10-21T15:31:50.387295Z,1697902310387
0.9919834136962891,-0.24195218086242676,-0.5963840484619141,2023-10-21T15:31:50.407591Z,1697902310407
0.890625,-0.17101311683654785,-0.5165810585021973,2023-10-21T15:31:50.428530Z,1697902310428
0.7791223526000977,-0.10754311084747314,-0.4390730857849121,2023-10-21T15:31:50.448158Z,1697902310448
0.6617984771728516,-0.05419379472732544,-0.36484241485595703,2023-10-21T15:31:50.468449Z,1697902310468
0.5433416366577148,-0.012665897607803345,-0.29485368728637695,2023-10-21T15:31:50.488640Z,1697902310488
0.4277915954589844,0.016307145357131958,-0.22983074188232422,2023-10-21T15:31:50.511865Z,1697902310511
0.3192119598388672,0.0328250527381897,-0.17077875137329102,2023-10-21T15:31:50.529175Z,1697902310529
0.22269535064697266,0.0381779670715332,-0.11935710906982422,2023-10-21T15:31:50.549473Z,1697902310549
0.14541339874267578,0.03552556037902832,-0.07853412628173828,2023-10-21T15:31:50.569752Z,1697902310569
0.0931549072265625,0.029909610748291016,-0.05092954635620117,2023-10-21T15:31:50.589979Z,1697902310589
0.06698799133300781,0.026822566986083984,-0.0371556282043457,2023-10-21T15:31:50.611754Z,1697902310611
0.06126117706298828,0.029453039169311523,-0.034470558166503906,2023-10-21T15:31:50.630518Z,1697902310630
0.06757545471191406,0.03790760040283203,-0.03851175308227539,2023-10-21T15:31:50.650810Z,1697902310650
0.0810403823852539,0.051928043365478516,-0.046689510345458984,2023-10-21T15:31:50.671057Z,1697902310671
0.09961843490600586,0.07174396514892578,-0.05796527862548828,2023-10-21T15:31:50.691249Z,1697902310691
0.12151050567626953,0.09706258773803711,-0.07142877578735352,2023-10-21T15:31:50.711696Z,1697902310711
0.14279413223266602,0.124969482421875,-0.08486366271972656,2023-10-21T15:31:50.731879Z,1697902310731
0.15764808654785156,0.14932870864868164,-0.09472107887268066,2023-10-21T15:31:50.752093Z,1697902310752
0.16188669204711914,0.16402149200439453,-0.09819388389587402,2023-10-21T15:31:50.772358Z,1697902310772
0.154388427734375,0.16562652587890625,-0.09432697296142578,2023-10-21T15:31:50.795061Z,1697902310795
0.1376018524169922,0.15516138076782227,-0.0845496654510498,2023-10-21T15:31:50.812842Z,1697902310812
0.11619091033935547,0.13707876205444336,-0.07178664207458496,2023-10-21T15:31:50.833194Z,1697902310833
0.09485626220703125,0.11674928665161133,-0.058969974517822266,2023-10-21T15:31:50.853447Z,1697902310853
0.07538414001464844,0.0965123176574707,-0.04713845252990723,2023-10-21T15:31:50.873658Z,1697902310873
0.05798959732055664,0.07694053649902344,-0.036385536193847656,2023-10-21T15:31:50.896344Z,1697902310896
0.04333019256591797,0.05932044982910156,-0.027158260345458984,2023-10-21T15:31:50.914309Z,1697902310914
0.03305387496948242,0.04649019241333008,-0.020589590072631836,2023-10-21T15:31:50.934514Z,1697902310934
0.02916097640991211,0.04196596145629883,-0.017958879470825195,2023-10-21T15:31:50.954735Z,1697902310954
0.031768798828125,0.04661846160888672,-0.019268512725830078,2023-10-21T15:31:50.978201Z,1697902310978
0.03930330276489258,0.058634281158447266,-0.023423194885253906,2023-10-21T15:31:50.995326Z,1697902310995
0.049297332763671875,0.074554443359375,-0.02884078025817871,2023-10-21T15:31:51.015585Z,1697902311015
0.05950021743774414,0.09097623825073242,-0.03419303894042969,2023-10-21T15:31:51.035826Z,1697902311035
0.06817913055419922,0.10511255264282227,-0.03858137130737305,2023-10-21T15:31:51.056031Z,1697902311055
0.07473325729370117,0.11590099334716797,-0.04183506965637207,2023-10-21T15:31:51.078105Z,1697902311078
0.0793004035949707,0.12347793579101562,-0.04419827461242676,2023-10-21T15:31:51.096599Z,1697902311096
0.08180046081542969,0.12766218185424805,-0.045709848403930664,2023-10-21T15:31:51.116894Z,1697902311116
0.0819253921508789,0.1279001235961914,-0.04618072509765625,2023-10-21T15:31:51.137082Z,1697902311137
0.07927179336547852,0.12347650527954102,-0.04527640342712402,2023-10-21T15:31:51.157418Z,1697902311157
0.07372522354125977,0.11415576934814453,-0.04275345802307129,2023-10-21T15:31:51.177942Z,1697902311177
0.0658121109008789,0.10083150863647461,-0.0387423038482666,2023-10-21T15:31:51.197978Z,1697902311197
0.05731773376464844,0.08644962310791016,-0.034200429916381836,2023-10-21T15:31:51.218201Z,1697902311218
0.05119800567626953,0.07562017440795898,-0.03089165687561035,2023-10-21T15:31:51.238421Z,1697902311238
0.050310611724853516,0.07241535186767578,-0.030617713928222656,2023-10-21T15:31:51.261338Z,1697902311261
0.05581998825073242,0.0780181884765625,-0.03419995307922363,2023-10-21T15:31:51.278948Z,1697902311278
0.06691884994506836,0.09067106246948242,-0.04122805595397949,2023-10-21T15:31:51.299335Z,1697902311299
0.08222436904907227,0.10802459716796875,-0.050913333892822266,2023-10-21T15:31:51.319520Z,1697902311319
0.10098505020141602,0.12882518768310547,-0.06282806396484375,2023-10-21T15:31:51.339717Z,1697902311339
0.1226806640625,0.15230369567871094,-0.07672595977783203,2023-10-21T15:31:51.361334Z,1697902311361
0.14644670486450195,0.17743158340454102,-0.09220194816589355,2023-10-21T15:31:51.380304Z,1697902311380
0.17110300064086914,0.20294666290283203,-0.10870885848999023,2023-10-21T15:31:51.400566Z,1697902311400
0.1948089599609375,0.2269153594970703,-0.12526702880859375,2023-10-21T15:31:51.420819Z,1697902311420
0.21508264541625977,0.24677801132202148,-0.14037084579467773,2023-10-21T15:31:51.440945Z,1697902311440
0.2302718162536621,0.26096343994140625,-0.1528613567352295,2023-10-21T15:31:51.461318Z,1697902311461
0.2406473159790039,0.2698984146118164,-0.16264724731445312,2023-10-21T15:31:51.481648Z,1697902311481
0.24864625930786133,0.2761707305908203,-0.17100238800048828,2023-10-21T15:31:51.501864Z,1697902311501
0.25743579864501953,0.2829408645629883,-0.1797924041748047,2023-10-21T15:31:51.522125Z,1697902311522
0.26885223388671875,0.2918853759765625,-0.19011640548706055,2023-10-21T15:31:51.544476Z,1697902311544
0.2832150459289551,0.3031187057495117,-0.20209598541259766,2023-10-21T15:31:51.562647Z,1697902311562
0.29979753494262695,0.31580162048339844,-0.2151622772216797,2023-10-21T15:31:51.582943Z,1697902311582
0.31740856170654297,0.32880067825317383,-0.22847509384155273,2023-10-21T15:31:51.603196Z,1697902311603
0.33534812927246094,0.3415994644165039,-0.24159526824951172,2023-10-21T15:31:51.623371Z,1697902311623
0.35360240936279297,0.3544316291809082,-0.2545924186706543,2023-10-21T15:31:51.644328Z,1697902311644
0.3720536231994629,0.3675236701965332,-0.2675490379333496,2023-10-21T15:31:51.663964Z,1697902311663
0.38996219635009766,0.3806486129760742,-0.2802557945251465,2023-10-21T15:31:51.684278Z,1697902311684
0.4052724838256836,0.39232349395751953,-0.2916245460510254,2023-10-21T15:31:51.704496Z,1697902311704
0.41422033309936523,0.3994417190551758,-0.29937267303466797,2023-10-21T15:31:51.727607Z,1697902311727
0.4130105972290039,0.39877796173095703,-0.30098438262939453,2023-10-21T15:31:51.745011Z,1697902311744
0.4007253646850586,0.3894920349121094,-0.29566001892089844,2023-10-21T15:31:51.765324Z,1697902311765
0.3801283836364746,0.3736386299133301,-0.2848372459411621,2023-10-21T15:31:51.785620Z,1697902311785
0.35640764236450195,0.35529184341430664,-0.2716360092163086,2023-10-21T15:31:51.805782Z,1697902311805
0.33367061614990234,0.3376317024230957,-0.25859975814819336,2023-10-21T15:31:51.827668Z,1697902311827
0.3132610321044922,0.321622371673584,-0.24657392501831055,2023-10-21T15:31:51.846375Z,1697902311846
0.29520416259765625,0.30716657638549805,-0.23553133010864258,2023-10-21T15:31:51.866689Z,1697902311866
0.2794342041015625,0.2941246032714844,-0.22532939910888672,2023-10-21T15:31:51.886930Z,1697902311886
0.26639604568481445,0.28295469284057617,-0.2162613868713379,2023-10-21T15:31:51.907067Z,1697902311907
0.2574949264526367,0.27516841888427734,-0.2094130516052246,2023-10-21T15:31:51.927558Z,1697902311927
0.2543501853942871,0.2725348472595215,-0.20610523223876953,2023-10-21T15:31:51.947691Z,1697902311947
0.25699615478515625,0.27515220642089844,-0.2063755989074707,2023-10-21T15:31:51.967935Z,1697902311967
0.26352882385253906,0.28114891052246094,-0.20879316329956055,2023-10-21T15:31:51.988173Z,1697902311988
0.27048826217651367,0.2871437072753906,-0.21082067489624023,2023-10-21T15:31:52.010789Z,1697902312010
0.2747340202331543,0.2902355194091797,-0.2103595733642578,2023-10-21T15:31:52.028653Z,1697902312028
0.27533388137817383,0.28975439071655273,-0.2070322036743164,2023-10-21T15:31:52.048957Z,1697902312048
0.27300357818603516,0.2866225242614746,-0.20163869857788086,2023-10-21T15:31:52.069278Z,1697902312069
0.268953800201416,0.28214025497436523,-0.19521808624267578,2023-10-21T15:31:52.089453Z,1697902312089
0.2644515037536621,0.2775697708129883,-0.18871212005615234,2023-10-21T15:31:52.110763Z,1697902312110
0.26042747497558594,0.2737884521484375,-0.18273687362670898,2023-10-21T15:31:52.130061Z,1697902312129
0.25738525390625,0.2712674140930176,-0.1776142120361328,2023-10-21T15:31:52.150350Z,1697902312150
0.2554512023925781,0.2701406478881836,-0.1734180450439453,2023-10-21T15:31:52.170536Z,1697902312170
0.2544689178466797,0.2702507972717285,-0.1700286865234375,2023-10-21T15:31:52.194072Z,1697902312194
0.2542734146118164,0.2714681625366211,-0.16731977462768555,2023-10-21T15:31:52.211056Z,1697902312211
0.2555208206176758,0.27448511123657227,-0.16564393043518066,2023-10-21T15:31:52.231435Z,1697902312231
0.2586503028869629,0.27973270416259766,-0.1651754379272461,2023-10-21T15:31:52.251684Z,1697902312251
0.26320981979370117,0.28666210174560547,-0.16548943519592285,2023-10-21T15:31:52.271880Z,1697902312271
0.26815223693847656,0.29410648345947266,-0.1658310890197754,2023-10-21T15:31:52.293864Z,1697902312293
0.2718687057495117,0.30032920837402344,-0.16518926620483398,2023-10-21T15:31:52.312404Z,1697902312312
0.2724928855895996,0.30333375930786133,-0.1625354290008545,2023-10-21T15:31:52.332710Z,1697902312332
0.26864004135131836,0.3015632629394531,-0.15720725059509277,2023-10-21T15:31:52.352919Z,1697902312352
0.2601585388183594,0.2947111129760742,-0.14931201934814453,2023-10-21T15:31:52.373142Z,1697902312373
0.24812602996826172,0.2837982177734375,-0.1396646499633789,2023-10-21T15:31:52.393818Z,1697902312393
0.2344827651977539,0.2708282470703125,-0.12948393821716309,2023-10-21T15:31:52.413737Z,1697902312413
0.22056818008422852,0.25723695755004883,-0.11959266662597656,2023-10-21T15:31:52.434063Z,1697902312433
0.2071385383605957,0.24386167526245117,-0.11040925979614258,2023-10-21T15:31:52.454275Z,1697902312454
0.19486522674560547,0.23150205612182617,-0.1022796630859375,2023-10-21T15:31:52.477171Z,1697902312477
0.1841421127319336,0.22068548202514648,-0.09539127349853516,2023-10-21T15:31:52.494749Z,1697902312494
0.17527532577514648,0.21183061599731445,-0.08985614776611328,2023-10-21T15:31:52.515075Z,1697902312515
0.16846227645874023,0.20522642135620117,-0.0857231616973877,2023-10-21T15:31:52.535315Z,1697902312535
0.1639237403869629,0.20116472244262695,-0.08302116394042969,2023-10-21T15:31:52.555612Z,1697902312555
0.16182518005371094,0.19986486434936523,-0.08176660537719727,2023-10-21T15:31:52.577125Z,1697902312577
0.1623072624206543,0.2014923095703125,-0.08196163177490234,2023-10-21T15:31:52.596106Z,1697902312596
0.16507816314697266,0.20566892623901367,-0.08339381217956543,2023-10-21T15:31:52.616419Z,1697902312616
0.16950225830078125,0.2115640640258789,-0.0856785774230957,2023-10-21T15:31:52.636592Z,1697902312636
0.17482805252075195,0.21821117401123047,-0.08839106559753418,2023-10-21T15:31:52.656820Z,1697902312656
0.1805095672607422,0.22485971450805664,-0.09120011329650879,2023-10-21T15:31:52.677195Z,1697902312677
0.18640804290771484,0.231201171875,-0.09398341178894043,2023-10-21T15:31:52.697470Z,1697902312697
0.19303226470947266,0.23766756057739258,-0.09691524505615234,2023-10-21T15:31:52.717715Z,1697902312717
0.20077991485595703,0.2445507049560547,-0.10013604164123535,2023-10-21T15:31:52.737928Z,1697902312737
0.20927858352661133,0.25125885009765625,-0.1034238338470459,2023-10-21T15:31:52.760093Z,1697902312760
0.2177443504333496,0.2568206787109375,-0.10640287399291992,2023-10-21T15:31:52.778479Z,1697902312778
0.22548389434814453,0.2604832649230957,-0.10879731178283691,2023-10-21T15:31:52.798788Z,1697902312798
0.23255443572998047,0.26245784759521484,-0.11075115203857422,2023-10-21T15:31:52.818996Z,1697902312818
0.23967647552490234,0.263704776763916,-0.11272883415222168,2023-10-21T15:31:52.839239Z,1697902312839
0.24784326553344727,0.26537370681762695,-0.11526155471801758,2023-10-21T15:31:52.860137Z,1697902312860
0.25733280181884766,0.267758846282959,-0.1184990406036377,2023-10-21T15:31:52.879803Z,1697902312879
0.2674999237060547,0.27022457122802734,-0.12213015556335449,2023-10-21T15:31:52.900117Z,1697902312900
0.2764101028442383,0.2709922790527344,-0.12527227401733398,2023-10-21T15:31:52.920338Z,1697902312920
0.2819962501525879,0.26834964752197266,-0.12697315216064453,2023-10-21T15:31:52.943815Z,1697902312943
0.28324413299560547,0.26169586181640625,-0.1267397403717041,2023-10-21T15:31:52.960853Z,1697902312960
0.27962779998779297,0.25089073181152344,-0.12432527542114258,2023-10-21T15:31:52.981074Z,1697902312981
0.27083778381347656,0.2359905242919922,-0.11960434913635254,2023-10-21T15:31:53.001350Z,1697902313001
0.2564826011657715,0.2169628143310547,-0.11242818832397461,2023-10-21T15:31:53.021565Z,1697902313021
0.23700189590454102,0.19448089599609375,-0.10301494598388672,2023-10-21T15:31:53.043747Z,1697902313043
0.21325302124023438,0.16951894760131836,-0.09177494049072266,2023-10-21T15:31:53.062151Z,1697902313062
0.18635177612304688,0.14322137832641602,-0.07923603057861328,2023-10-21T15:31:53.082477Z,1697902313082
0.15700960159301758,0.11639022827148438,-0.06580328941345215,2023-10-21T15:31:53.102690Z,1697902313102
0.1259913444519043,0.08984518051147461,-0.05191636085510254,2023-10-21T15:31:53.122833Z,1697902313122
0.09387493133544922,0.06424427032470703,-0.037950992584228516,2023-10-21T15:31:53.143322Z,1697902313143
0.061188697814941406,0.04010772705078125,-0.024221420288085938,2023-10-21T15:31:53.163516Z,1697902313163
0.028462886810302734,0.017847061157226562,-0.011010169982910156,2023-10-21T15:31:53.183742Z,1697902313183
-0.004166603088378906,-0.002498149871826172,0.0015707015991210938,2023-10-21T15:31:53.204034Z,1697902313203
-0.03693962097167969,-0.021172046661376953,0.013551950454711914,2023-10-21T15:31:53.226611Z,1697902313226
-0.07073497772216797,-0.03879594802856445,0.025171518325805664,2023-10-21T15:31:53.244491Z,1697902313244
-0.10616683959960938,-0.055787086486816406,0.03653740882873535,2023-10-21T15:31:53.264819Z,1697902313264
-0.14323043823242188,-0.07221555709838867,0.04755711555480957,2023-10-21T15:31:53.285077Z,1697902313285
-0.1814126968383789,-0.0879364013671875,0.05800199508666992,2023-10-21T15:31:53.305235Z,1697902313305
-0.21990013122558594,-0.10274529457092285,0.06760025024414062,2023-10-21T15:31:53.326998Z,1697902313326
-0.25643444061279297,-0.11584997177124023,0.0757298469543457,2023-10-21T15:31:53.345851Z,1697902313345
-0.2880516052246094,-0.12627744674682617,0.08172225952148438,2023-10-21T15:31:53.366173Z,1697902313366
-0.31176185607910156,-0.13312172889709473,0.08507084846496582,2023-10-21T15:31:53.386392Z,1697902313386
-0.3260040283203125,-0.13612699508666992,0.08574080467224121,2023-10-21T15:31:53.409839Z,1697902313409
-0.3311786651611328,-0.135756254196167,0.08416914939880371,2023-10-21T15:31:53.427040Z,1697902313426
-0.3293018341064453,-0.1330268383026123,0.08115005493164062,2023-10-21T15:31:53.447205Z,1697902313447
-0.32303524017333984,-0.12914299964904785,0.07754206657409668,2023-10-21T15:31:53.467503Z,1697902313467
-0.31393909454345703,-0.12482810020446777,0.07383871078491211,2023-10-21T15:31:53.487736Z,1697902313487
-0.30233287811279297,-0.12026309967041016,0.0701683759689331,2023-10-21T15:31:53.509689Z,1697902313509
-0.2877235412597656,-0.11527895927429199,0.06646478176116943,2023-10-21T15:31:53.528253Z,1697902313528
-0.2702674865722656,-0.10994434356689453,0.06278097629547119,2023-10-21T15:31:53.548536Z,1697902313548
-0.24904155731201172,-0.10389828681945801,0.058892250061035156,2023-10-21T15:31:53.568838Z,1697902313568
-0.21887969970703125,-0.09494829177856445,0.05354881286621094,2023-10-21T15:31:53.589026Z,1697902313588
-0.17119121551513672,-0.07863616943359375,0.044293880462646484,2023-10-21T15:31:53.609672Z,1697902313609
-0.09937000274658203,-0.049263954162597656,0.02790975570678711,2023-10-21T15:31:53.629588Z,1697902313629
0.0011529922485351562,6.270408630371094E-4,-3.6072731018066406E-4,2023-10-21T15:31:53.649927Z,1697902313649
0.13103294372558594,0.0787811279296875,-0.046845436096191406,2023-10-21T15:31:53.670131Z,1697902313670
0.28307056427001953,0.18843603134155273,-0.11750483512878418,2023-10-21T15:31:53.693064Z,1697902313693
0.450009822845459,0.33030176162719727,-0.21957039833068848,2023-10-21T15:31:53.710600Z,1697902313710
0.6205930709838867,0.49806785583496094,-0.35851240158081055,2023-10-21T15:31:53.730934Z,1697902313730
0.7853412628173828,0.6799445152282715,-0.5387411117553711,2023-10-21T15:31:53.751162Z,1697902313751
0.9227809906005859,0.8444375991821289,-0.7461028099060059,2023-10-21T15:31:53.771450Z,1697902313771
1.018993854522705,0.9588847160339355,-0.9552698135375977,2023-10-21T15:31:53.792854Z,1697902313792
1.0745339393615723,1.0064239501953125,-1.141495704650879,2023-10-21T15:31:53.811954Z,1697902313811
1.1067166328430176,0.9999713897705078,-1.301945686340332,2023-10-21T15:31:53.832300Z,1697902313832
1.132080078125,0.9617767333984375,-1.4449281692504883,2023-10-21T15:31:53.852497Z,1697902313852
1.145751953125,0.8981380462646484,-1.5596694946289062,2023-10-21T15:31:53.872597Z,1697902313872
1.1434388160705566,0.8131680488586426,-1.6342110633850098,2023-10-21T15:31:53.892917Z,1697902313892
1.1191229820251465,0.7084240913391113,-1.6543693542480469,2023-10-21T15:31:53.913238Z,1697902313913
1.0715713500976562,0.591684103012085,-1.6153864860534668,2023-10-21T15:31:53.933518Z,1697902313933
0.9977879524230957,0.4725382328033447,-1.5143613815307617,2023-10-21T15:31:53.953813Z,1697902313953
0.909632682800293,0.3675503730773926,-1.3791685104370117,2023-10-21T15:31:53.976127Z,1697902313976
0.8193526268005371,0.2850973606109619,-1.2387933731079102,2023-10-21T15:31:53.994316Z,1697902313994
0.7354116439819336,0.2234196662902832,-1.1123619079589844,2023-10-21T15:31:54.014562Z,1697902314014
0.6557726860046387,0.17240774631500244,-0.9960107803344727,2023-10-21T15:31:54.034875Z,1697902314034
0.5752153396606445,0.12323224544525146,-0.8788242340087891,2023-10-21T15:31:54.055081Z,1697902314055
0.5010719299316406,0.07633894681930542,-0.7704105377197266,2023-10-21T15:31:54.076284Z,1697902314076
0.43683767318725586,0.03295215964317322,-0.6766767501831055,2023-10-21T15:31:54.095660Z,1697902314095
0.3817329406738281,-0.0061584413051605225,-0.5958709716796875,2023-10-21T15:31:54.115913Z,1697902314115
0.3357219696044922,-0.040992558002471924,-0.5268411636352539,2023-10-21T15:31:54.136174Z,1697902314136
0.30097055435180664,-0.07263839244842529,-0.4718055725097656,2023-10-21T15:31:54.159313Z,1697902314159
0.2776813507080078,-0.10270357131958008,-0.4310169219970703,2023-10-21T15:31:54.176737Z,1697902314176
0.26653528213500977,-0.13412189483642578,-0.40558719635009766,2023-10-21T15:31:54.196961Z,1697902314196
0.26212263107299805,-0.16705584526062012,-0.3870391845703125,2023-10-21T15:31:54.217235Z,1697902314217
0.2595863342285156,-0.1992030143737793,-0.3677201271057129,2023-10-21T15:31:54.237503Z,1697902314237
0.24993324279785156,-0.22156095504760742,-0.33498477935791016,2023-10-21T15:31:54.259387Z,1697902314259
0.23290729522705078,-0.22936773300170898,-0.2917327880859375,2023-10-21T15:31:54.278081Z,1697902314277
0.20581912994384766,-0.2173171043395996,-0.23917579650878906,2023-10-21T15:31:54.298324Z,1697902314298
0.16646289825439453,-0.1833491325378418,-0.17978715896606445,2023-10-21T15:31:54.318540Z,1697902314318
0.11870765686035156,-0.1342926025390625,-0.12003850936889648,2023-10-21T15:31:54.338774Z,1697902314338
0.07160663604736328,-0.08276891708374023,-0.06848478317260742,2023-10-21T15:31:54.359443Z,1697902314359
0.040696144104003906,-0.047901153564453125,-0.037255287170410156,2023-10-21T15:31:54.379317Z,1697902314379
0.03135108947753906,-0.03744935989379883,-0.027874469757080078,2023-10-21T15:31:54.399541Z,1697902314399
0.044686317443847656,-0.053893089294433594,-0.039220333099365234,2023-10-21T15:31:54.419883Z,1697902314419
0.08258676528930664,-0.10018491744995117,-0.07275724411010742,2023-10-21T15:31:54.442364Z,1697902314442
0.1512441635131836,-0.18438339233398438,-0.13591480255126953,2023-10-21T15:31:54.460360Z,1697902314460
0.25044679641723633,-0.30792808532714844,-0.2312908172607422,2023-10-21T15:31:54.480677Z,1697902314480
0.37490415573120117,-0.4667320251464844,-0.35488367080688477,2023-10-21T15:31:54.500904Z,1697902314500
0.5124893188476562,-0.6454343795776367,-0.49207067489624023,2023-10-21T15:31:54.521207Z,1697902314521
0.6465616226196289,-0.8161396980285645,-0.6226620674133301,2023-10-21T15:31:54.542296Z,1697902314542
0.7632546424865723,-0.950221061706543,-0.7310528755187988,2023-10-21T15:31:54.561672Z,1697902314561
0.8534269332885742,-1.03220796585083,-0.8072614669799805,2023-10-21T15:31:54.581996Z,1697902314581
0.9162845611572266,-1.063504695892334,-0.8494815826416016,2023-10-21T15:31:54.602245Z,1697902314602
0.9560461044311523,-1.056288719177246,-0.8629851341247559,2023-10-21T15:31:54.625554Z,1697902314625
0.9743170738220215,-1.0181002616882324,-0.8516850471496582,2023-10-21T15:31:54.642692Z,1697902314642
0.9714503288269043,-0.9538722038269043,-0.8192157745361328,2023-10-21T15:31:54.663020Z,1697902314662
0.9477066993713379,-0.8678627014160156,-0.7687830924987793,2023-10-21T15:31:54.683300Z,1697902314683
0.9059391021728516,-0.7669558525085449,-0.704622745513916,2023-10-21T15:31:54.703578Z,1697902314703
0.8507881164550781,-0.6593022346496582,-0.632209300994873,2023-10-21T15:31:54.725797Z,1697902314725
0.7853121757507324,-0.5511503219604492,-0.5561490058898926,2023-10-21T15:31:54.744079Z,1697902314744
0.7092571258544922,-0.44571733474731445,-0.47898387908935547,2023-10-21T15:31:54.764322Z,1697902314764
0.6206779479980469,-0.3445892333984375,-0.4013662338256836,2023-10-21T15:31:54.784650Z,1697902314784
0.5217247009277344,-0.25129127502441406,-0.32512807846069336,2023-10-21T15:31:54.804882Z,1697902314804
0.41809940338134766,-0.1701667308807373,-0.252838134765625,2023-10-21T15:31:54.825670Z,1697902314825
0.3141040802001953,-0.10379958152770996,-0.18567895889282227,2023-10-21T15:31:54.845360Z,1697902314845
0.216217041015625,-0.054537057876586914,-0.12589788436889648,2023-10-21T15:31:54.865672Z,1697902314865
0.13010787963867188,-0.022530198097229004,-0.07524251937866211,2023-10-21T15:31:54.886014Z,1697902314885
0.057692527770996094,-0.005413711071014404,-0.03345537185668945,2023-10-21T15:31:54.908781Z,1697902314908
1.850128173828125E-4,-2.652406692504883E-6,-1.0919570922851562E-4,2023-10-21T15:31:54.926502Z,1697902314926
-0.03601264953613281,-0.0024660229682922363,0.021631717681884766,2023-10-21T15:31:54.946793Z,1697902314946
-0.041769981384277344,-0.006406068801879883,0.02580547332763672,2023-10-21T15:31:54.967056Z,1697902314966
-0.015192985534667969,-0.0036553144454956055,0.009677410125732422,2023-10-21T15:31:54.987285Z,1697902314987
0.03309440612792969,0.010904788970947266,-0.02175617218017578,2023-10-21T15:31:55.007691Z,1697902315007
0.08685684204101562,0.03645157814025879,-0.05898141860961914,2023-10-21T15:31:55.027811Z,1697902315027
0.1339125633239746,0.06836175918579102,-0.09399604797363281,2023-10-21T15:31:55.048054Z,1697902315048
0.17050838470458984,0.10263681411743164,-0.1236886978149414,2023-10-21T15:31:55.068359Z,1697902315068
0.200958251953125,0.13945293426513672,-0.15044784545898438,2023-10-21T15:31:55.088676Z,1697902315088
0.23312091827392578,0.1831374168395996,-0.17961359024047852,2023-10-21T15:31:55.108852Z,1697902315108
0.2684922218322754,0.23479080200195312,-0.21196413040161133,2023-10-21T15:31:55.130412Z,1697902315130
0.2998204231262207,0.28730201721191406,-0.24147319793701172,2023-10-21T15:31:55.149359Z,1697902315149
0.3171262741088867,0.32857370376586914,-0.25972604751586914,2023-10-21T15:31:55.169619Z,1697902315169
0.3164830207824707,0.35091733932495117,-0.2631077766418457,2023-10-21T15:31:55.192570Z,1697902315192
0.3028435707092285,0.3567924499511719,-0.2554011344909668,2023-10-21T15:31:55.210144Z,1697902315210
0.2850027084350586,0.3548731803894043,-0.24358081817626953,2023-10-21T15:31:55.230435Z,1697902315230
0.26967334747314453,0.3531532287597656,-0.23307371139526367,2023-10-21T15:31:55.250686Z,1697902315250
0.2583894729614258,0.3541069030761719,-0.22505474090576172,2023-10-21T15:31:55.270907Z,1697902315270
0.24976778030395508,0.35669708251953125,-0.21840381622314453,2023-10-21T15:31:55.291751Z,1697902315291
0.2419447898864746,0.3594503402709961,-0.21189117431640625,2023-10-21T15:31:55.311479Z,1697902315311
0.23473358154296875,0.3627943992614746,-0.2056260108947754,2023-10-21T15:31:55.331783Z,1697902315331
0.22895574569702148,0.3676638603210449,-0.20012521743774414,2023-10-21T15:31:55.351970Z,1697902315351
0.22586393356323242,0.37524843215942383,-0.1960592269897461,2023-10-21T15:31:55.375295Z,1697902315375
0.2258620262145996,0.38544368743896484,-0.1932997703552246,2023-10-21T15:31:55.392492Z,1697902315392
