ACC_X,ACC_Y,ACC_Z,DATE,UNIX_TIMESTAMP
0.07881736755371094,0.24768733978271484,0.050713539123535156,2023-10-21T15:38:42.871088Z,1697902722871
0.06944489479064941,0.22543716430664062,0.04661440849304199,2023-10-21T15:38:42.891256Z,1697902722891
0.03475522994995117,0.11572742462158203,0.02294135093688965,2023-10-21T15:38:42.911502Z,1697902722911
0.01053476333618164,0.03335094451904297,0.006059169769287109,2023-10-21T15:38:42.931719Z,1697902722931
0.03545355796813965,0.10158634185791016,0.016978979110717773,2023-10-21T15:38:42.951965Z,1697902722951
0.022298336029052734,0.06325149536132812,0.01008915901184082,2023-10-21T15:38:42.972256Z,1697902722972
0.03838491439819336,0.10892009735107422,0.016366004943847656,2023-10-21T15:38:42.992602Z,1697902722992
0.049543142318725586,0.14691448211669922,0.022498130798339844,2023-10-21T15:38:43.012936Z,1697902723012
0.04669070243835449,0.14399242401123047,0.02347707748413086,2023-10-21T15:38:43.033046Z,1697902723033
0.05108499526977539,0.16693687438964844,0.02875041961669922,2023-10-21T15:38:43.056191Z,1697902723056
0.04269289970397949,0.13197898864746094,0.02295839786529541,2023-10-21T15:38:43.073686Z,1697902723073
0.04427051544189453,0.13783931732177734,0.02382838726043701,2023-10-21T15:38:43.093988Z,1697902723093
0.045964956283569336,0.1440258026123047,0.02489650249481201,2023-10-21T15:38:43.114274Z,1697902723114
0.04206347465515137,0.13348674774169922,0.02324366569519043,2023-10-21T15:38:43.134507Z,1697902723134
0.024454355239868164,0.07982254028320312,0.013963699340820312,2023-10-21T15:38:43.155839Z,1697902723155
3.647804260253906E-5,1.2302398681640625E-4,2.205371856689453E-5,2023-10-21T15:38:43.175094Z,1697902723175
-0.0296933650970459,-0.10301685333251953,-0.01799178123474121,2023-10-21T15:38:43.195333Z,1697902723195
-0.054448843002319336,-0.19484901428222656,-0.03350269794464111,2023-10-21T15:38:43.215532Z,1697902723215
-0.056664228439331055,-0.21242809295654297,-0.03455686569213867,2023-10-21T15:38:43.235707Z,1697902723235
-0.03823518753051758,-0.15367507934570312,-0.02245151996612549,2023-10-21T15:38:43.256024Z,1697902723255
-0.010776519775390625,-0.046851158142089844,-0.005739450454711914,2023-10-21T15:38:43.276304Z,1697902723276
0.012029170989990234,0.05544471740722656,0.0053997039794921875,2023-10-21T15:38:43.296606Z,1697902723296
0.027057290077209473,0.12953662872314453,0.010075688362121582,2023-10-21T15:38:43.316819Z,1697902723316
0.04420280456542969,0.21419811248779297,0.013268530368804932,2023-10-21T15:38:43.339301Z,1697902723339
0.0713801383972168,0.3324317932128906,0.015994638204574585,2023-10-21T15:38:43.357340Z,1697902723357
0.11703372001647949,0.4956789016723633,0.017404019832611084,2023-10-21T15:38:43.377684Z,1697902723377
0.179948091506958,0.6853399276733398,0.015223711729049683,2023-10-21T15:38:43.397948Z,1697902723397
0.23273849487304688,0.8228187561035156,0.012589335441589355,2023-10-21T15:38:43.418145Z,1697902723418
0.24566388130187988,0.8364591598510742,0.012033909559249878,2023-10-21T15:38:43.439224Z,1697902723439
0.22692513465881348,0.7484121322631836,0.01300780475139618,2023-10-21T15:38:43.458682Z,1697902723458
0.19057512283325195,0.6095695495605469,0.013934418559074402,2023-10-21T15:38:43.479031Z,1697902723478
0.15748047828674316,0.49429893493652344,0.013278335332870483,2023-10-21T15:38:43.499211Z,1697902723499
0.14081907272338867,0.4356231689453125,0.010675236582756042,2023-10-21T15:38:43.522391Z,1697902723522
0.12938594818115234,0.3972434997558594,0.007431909441947937,2023-10-21T15:38:43.539734Z,1697902723539
0.06572842597961426,0.23421955108642578,0.021175086498260498,2023-10-21T15:38:43.560052Z,1697902723560
0.06743431091308594,0.241058349609375,0.020241498947143555,2023-10-21T15:38:43.580346Z,1697902723580
0.06809067726135254,0.2450714111328125,0.01901102066040039,2023-10-21T15:38:43.600519Z,1697902723600
0.06810927391052246,0.24751663208007812,0.01758885383605957,2023-10-21T15:38:43.623533Z,1697902723623
0.06815433502197266,0.25026702880859375,0.01609015464782715,2023-10-21T15:38:43.641095Z,1697902723641
0.06883597373962402,0.25516796112060547,0.014623045921325684,2023-10-21T15:38:43.661356Z,1697902723661
0.0702965259552002,0.2626943588256836,0.013193488121032715,2023-10-21T15:38:43.681665Z,1697902723681
0.07258105278015137,0.2732048034667969,0.011770367622375488,2023-10-21T15:38:43.701770Z,1697902723701
0.07554483413696289,0.2864084243774414,0.010289907455444336,2023-10-21T15:38:43.722259Z,1697902723722
0.07855582237243652,0.300018310546875,0.008646994829177856,2023-10-21T15:38:43.742463Z,1697902723742
0.08117246627807617,0.31224822998046875,0.00681382417678833,2023-10-21T15:38:43.762678Z,1697902723762
0.08334040641784668,0.3229103088378906,0.004848048090934753,2023-10-21T15:38:43.782920Z,1697902723782
0.08545517921447754,0.3338956832885742,0.002801075577735901,2023-10-21T15:38:43.805808Z,1697902723805
0.08803844451904297,0.34763622283935547,6.184577941894531E-4,2023-10-21T15:38:43.823548Z,1697902723823
0.09107613563537598,0.3645191192626953,-0.0017684251070022583,2023-10-21T15:38:43.843784Z,1697902723843
0.09404993057250977,0.38317203521728516,-0.0043680667877197266,2023-10-21T15:38:43.863992Z,1697902723863
0.09615397453308105,0.4011192321777344,-0.0071140676736831665,2023-10-21T15:38:43.884301Z,1697902723884
0.09682941436767578,0.4162330627441406,-0.009869277477264404,2023-10-21T15:38:43.905564Z,1697902723905
0.09643173217773438,0.4292116165161133,-0.012646764516830444,2023-10-21T15:38:43.924833Z,1697902723924
0.0959312915802002,0.44328975677490234,-0.01557573676109314,2023-10-21T15:38:43.945080Z,1697902723945
0.0958259105682373,0.46065235137939453,-0.01877957582473755,2023-10-21T15:38:43.965320Z,1697902723965
0.09609544277191162,0.4813861846923828,-0.022326171398162842,2023-10-21T15:38:43.985726Z,1697902723985
0.09626293182373047,0.5028581619262695,-0.026084840297698975,2023-10-21T15:38:44.005834Z,1697902724005
0.09575831890106201,0.5215692520141602,-0.029758572578430176,2023-10-21T15:38:44.026127Z,1697902724026
0.09447765350341797,0.5360183715820312,-0.033182740211486816,2023-10-21T15:38:44.046386Z,1697902724046
0.09269082546234131,0.5461702346801758,-0.03635823726654053,2023-10-21T15:38:44.066583Z,1697902724066
0.09095478057861328,0.5534734725952148,-0.039406538009643555,2023-10-21T15:38:44.088993Z,1697902724088
0.08966672420501709,0.5593357086181641,-0.04246336221694946,2023-10-21T15:38:44.107149Z,1697902724107
0.08865916728973389,0.5635976791381836,-0.04537487030029297,2023-10-21T15:38:44.129461Z,1697902724129
0.08780133724212646,0.5670509338378906,-0.04807889461517334,2023-10-21T15:38:44.147732Z,1697902724147
0.08736026287078857,0.5719976425170898,-0.05072551965713501,2023-10-21T15:38:44.167875Z,1697902724167
0.08770871162414551,0.5808734893798828,-0.053516387939453125,2023-10-21T15:38:44.188697Z,1697902724188
0.08903539180755615,0.5944967269897461,-0.05651158094406128,2023-10-21T15:38:44.208483Z,1697902724208
0.09110414981842041,0.610560417175293,-0.05938535928726196,2023-10-21T15:38:44.228747Z,1697902724228
0.0936424732208252,0.6260738372802734,-0.06168568134307861,2023-10-21T15:38:44.248937Z,1697902724248
0.09647321701049805,0.638580322265625,-0.06301248073577881,2023-10-21T15:38:44.271726Z,1697902724271
0.09954392910003662,0.6466655731201172,-0.06312775611877441,2023-10-21T15:38:44.289470Z,1697902724289
0.10267281532287598,0.6489877700805664,-0.061874568462371826,2023-10-21T15:38:44.309827Z,1697902724309
0.10542774200439453,0.6438894271850586,-0.059133052825927734,2023-10-21T15:38:44.330112Z,1697902724330
0.1070241928100586,0.6285533905029297,-0.054785966873168945,2023-10-21T15:38:44.350312Z,1697902724350
0.10662996768951416,0.6006250381469727,-0.04889625310897827,2023-10-21T15:38:44.372086Z,1697902724372
0.10400533676147461,0.5609207153320312,-0.04194772243499756,2023-10-21T15:38:44.390838Z,1697902724390
0.09958279132843018,0.5135574340820312,-0.03471684455871582,2023-10-21T15:38:44.411226Z,1697902724411
0.09438610076904297,0.4652748107910156,-0.028001248836517334,2023-10-21T15:38:44.431370Z,1697902724431
0.08931183815002441,0.42144203186035156,-0.02223306894302368,2023-10-21T15:38:44.451556Z,1697902724451
0.08481669425964355,0.38452720642089844,-0.0174524188041687,2023-10-21T15:38:44.471858Z,1697902724471
0.08086705207824707,0.3541536331176758,-0.013468831777572632,2023-10-21T15:38:44.492268Z,1697902724492
0.07739424705505371,0.32941627502441406,-0.010101020336151123,2023-10-21T15:38:44.512433Z,1697902724512
0.07466268539428711,0.3105640411376953,-0.007255285978317261,2023-10-21T15:38:44.532667Z,1697902724532
0.07323193550109863,0.29897117614746094,-0.00484815239906311,2023-10-21T15:38:44.555062Z,1697902724555
0.07356381416320801,0.2956256866455078,-0.0027587711811065674,2023-10-21T15:38:44.573171Z,1697902724573
0.07539010047912598,0.29886531829833984,-8.095167577266693E-4,2023-10-21T15:38:44.593558Z,1697902724593
0.07794308662414551,0.3053627014160156,0.0011295415461063385,2023-10-21T15:38:44.613836Z,1697902724613
0.08028841018676758,0.3114290237426758,0.0030781179666519165,2023-10-21T15:38:44.633963Z,1697902724633
0.08161020278930664,0.3139019012451172,0.004956677556037903,2023-10-21T15:38:44.654998Z,1697902724654
0.08134102821350098,0.31058502197265625,0.006618767976760864,2023-10-21T15:38:44.674530Z,1697902724674
0.07931065559387207,0.30075645446777344,0.007905453443527222,2023-10-21T15:38:44.694867Z,1697902724694
0.07572174072265625,0.28517818450927734,0.00870022177696228,2023-10-21T15:38:44.715070Z,1697902724715
0.07115674018859863,0.2661895751953125,0.008983522653579712,2023-10-21T15:38:44.738386Z,1697902724738
0.06598639488220215,0.24547195434570312,0.008783221244812012,2023-10-21T15:38:44.755565Z,1697902724755
0.06029677391052246,0.2236623764038086,0.00817146897315979,2023-10-21T15:38:44.775958Z,1697902724775
0.05392026901245117,0.20026206970214844,0.0072186291217803955,2023-10-21T15:38:44.796136Z,1697902724796
0.046906471252441406,0.1752767562866211,0.006020665168762207,2023-10-21T15:38:44.816366Z,1697902724816
0.03967022895812988,0.14978504180908203,0.004711449146270752,2023-10-21T15:38:44.838214Z,1697902724838
0.03305649757385254,0.12656116485595703,0.0034562349319458008,2023-10-21T15:38:44.856905Z,1697902724856
0.027952194213867188,0.10883712768554688,0.002385661005973816,2023-10-21T15:38:44.877237Z,1697902724877
0.024561166763305664,0.09756851196289062,0.001503273844718933,2023-10-21T15:38:44.897442Z,1697902724897
0.022439002990722656,0.09132957458496094,7.47382640838623E-4,2023-10-21T15:38:44.917671Z,1697902724917
0.020678997039794922,0.08664894104003906,5.934247747063637E-5,2023-10-21T15:38:44.938184Z,1697902724938
0.01882338523864746,0.08156204223632812,-5.490332841873169E-4,2023-10-21T15:38:44.958296Z,1697902724958
0.017143964767456055,0.07703590393066406,-0.001070648431777954,2023-10-21T15:38:44.978586Z,1697902724978
0.01651144027709961,0.07700443267822266,-0.0016040056943893433,2023-10-21T15:38:44.998838Z,1697902724998
0.017541885375976562,0.08486175537109375,-0.002330690622329712,2023-10-21T15:38:45.021412Z,1697902725021
0.020354151725769043,0.10210132598876953,-0.0034334659576416016,2023-10-21T15:38:45.039251Z,1697902725039
0.02462303638458252,0.1281414031982422,-0.0050199031829833984,2023-10-21T15:38:45.059569Z,1697902725059
0.02993178367614746,0.161895751953125,-0.007114589214324951,2023-10-21T15:38:45.079824Z,1697902725079
0.03616595268249512,0.20375728607177734,-0.009768515825271606,2023-10-21T15:38:45.100065Z,1697902725100
0.043221354484558105,0.25404834747314453,-0.013020992279052734,2023-10-21T15:38:45.121323Z,1697902725121
0.050789713859558105,0.3117351531982422,-0.01681286096572876,2023-10-21T15:38:45.140654Z,1697902725140
0.05825960636138916,0.3736124038696289,-0.020921647548675537,2023-10-21T15:38:45.160911Z,1697902725160
0.06487929821014404,0.4353456497192383,-0.024999022483825684,2023-10-21T15:38:45.181107Z,1697902725181
0.07001245021820068,0.49309825897216797,-0.028714299201965332,2023-10-21T15:38:45.201324Z,1697902725201
0.07338213920593262,0.5451383590698242,-0.031886935234069824,2023-10-21T15:38:45.221630Z,1697902725221
0.0749671459197998,0.5909805297851562,-0.03446555137634277,2023-10-21T15:38:45.241950Z,1697902725241
0.07484877109527588,0.6304569244384766,-0.03641146421432495,2023-10-21T15:38:45.262273Z,1697902725262
0.07315921783447266,0.6632833480834961,-0.03768110275268555,2023-10-21T15:38:45.282431Z,1697902725282
0.07013839483261108,0.6893939971923828,-0.038249850273132324,2023-10-21T15:38:45.304462Z,1697902725304
0.0661730170249939,0.7095880508422852,-0.038202881813049316,2023-10-21T15:38:45.322940Z,1697902725322
0.061693787574768066,0.7258701324462891,-0.03771007061004639,2023-10-21T15:38:45.343228Z,1697902725343
0.05711787939071655,0.7403202056884766,-0.03696095943450928,2023-10-21T15:38:45.363572Z,1697902725363
0.05269467830657959,0.753570556640625,-0.036070287227630615,2023-10-21T15:38:45.383699Z,1697902725383
0.04853862524032593,0.7644891738891602,-0.035055965185165405,2023-10-21T15:38:45.404378Z,1697902725404
0.044712960720062256,0.7703237533569336,-0.0338631272315979,2023-10-21T15:38:45.424382Z,1697902725424
0.04129093885421753,0.7683582305908203,-0.032502681016922,2023-10-21T15:38:45.444591Z,1697902725444
0.0384029746055603,0.7569065093994141,-0.031073540449142456,2023-10-21T15:38:45.464773Z,1697902725464
0.03610891103744507,0.7350492477416992,-0.02970951795578003,2023-10-21T15:38:45.487711Z,1697902725487
0.034296244382858276,0.7021989822387695,-0.02848723530769348,2023-10-21T15:38:45.505317Z,1697902725505
0.03274455666542053,0.6586189270019531,-0.027384161949157715,2023-10-21T15:38:45.525632Z,1697902725525
0.03122800588607788,0.6053485870361328,-0.02631080150604248,2023-10-21T15:38:45.545895Z,1697902725545
0.029539823532104492,0.5443592071533203,-0.025135070085525513,2023-10-21T15:38:45.566136Z,1697902725566
0.027516722679138184,0.47791290283203125,-0.02368849515914917,2023-10-21T15:38:45.587681Z,1697902725587
0.025057435035705566,0.40817737579345703,-0.02182173728942871,2023-10-21T15:38:45.606644Z,1697902725606
0.022203385829925537,0.33870601654052734,-0.01955801248550415,2023-10-21T15:38:45.627010Z,1697902725626
0.019219517707824707,0.2745513916015625,-0.017118096351623535,2023-10-21T15:38:45.647155Z,1697902725647
0.016551494598388672,0.22166061401367188,-0.014893889427185059,2023-10-21T15:38:45.667319Z,1697902725667
0.014712631702423096,0.18501567840576172,-0.013342440128326416,2023-10-21T15:38:45.687705Z,1697902725687
0.014184534549713135,0.16768360137939453,-0.012904524803161621,2023-10-21T15:38:45.708012Z,1697902725707
0.015421807765960693,0.17150497436523438,-0.013986945152282715,2023-10-21T15:38:45.728278Z,1697902725728
0.018866360187530518,0.1973705291748047,-0.016927778720855713,2023-10-21T15:38:45.748531Z,1697902725748
0.0249025821685791,0.24495315551757812,-0.021900653839111328,2023-10-21T15:38:45.771202Z,1697902725771
0.03362774848937988,0.3107595443725586,-0.028665781021118164,2023-10-21T15:38:45.789044Z,1697902725789
0.044703006744384766,0.3878030776977539,-0.03645527362823486,2023-10-21T15:38:45.809353Z,1697902725809
0.057357072830200195,0.46702098846435547,-0.04412531852722168,2023-10-21T15:38:45.829613Z,1697902725829
0.0706174373626709,0.540379524230957,-0.05059939622879028,2023-10-21T15:38:45.849798Z,1697902725849
0.08341538906097412,0.6020603179931641,-0.05512028932571411,2023-10-21T15:38:45.870821Z,1697902725870
0.09498107433319092,0.6501874923706055,-0.05746662616729736,2023-10-21T15:38:45.890409Z,1697902725890
0.1048576831817627,0.6853857040405273,-0.05774039030075073,2023-10-21T15:38:45.910711Z,1697902725910
0.11277186870574951,0.7085943222045898,-0.05612295866012573,2023-10-21T15:38:45.930857Z,1697902725930
0.11841213703155518,0.7196569442749023,-0.052738070487976074,2023-10-21T15:38:45.954158Z,1697902725954
0.12154042720794678,0.7180938720703125,-0.04779553413391113,2023-10-21T15:38:45.971378Z,1697902725971
0.12228834629058838,0.7055215835571289,-0.04177922010421753,2023-10-21T15:38:45.991702Z,1697902725991
0.12128496170043945,0.686060905456543,-0.035352110862731934,2023-10-21T15:38:46.011946Z,1697902726011
0.11936533451080322,0.6643590927124023,-0.029072672128677368,2023-10-21T15:38:46.032178Z,1697902726032
0.11700034141540527,0.6424169540405273,-0.023135900497436523,2023-10-21T15:38:46.054072Z,1697902726053
0.11435151100158691,0.6200695037841797,-0.01758602261543274,2023-10-21T15:38:46.072735Z,1697902726072
0.11127519607543945,0.5954799652099609,-0.012417301535606384,2023-10-21T15:38:46.093034Z,1697902726092
0.1075512170791626,0.5669136047363281,-0.00770433247089386,2023-10-21T15:38:46.113228Z,1697902726113
0.10287725925445557,0.5329561233520508,-0.0035331696271896362,2023-10-21T15:38:46.133428Z,1697902726133
0.0968775749206543,0.49251747131347656,1.6746518667787313E-5,2023-10-21T15:38:46.153959Z,1697902726153
0.08907842636108398,0.4443531036376953,0.0028590261936187744,2023-10-21T15:38:46.174096Z,1697902726174
0.07900595664978027,0.3870735168457031,0.004880353808403015,2023-10-21T15:38:46.194421Z,1697902726194
0.06635618209838867,0.3198575973510742,0.005955040454864502,2023-10-21T15:38:46.214618Z,1697902726214
0.050795793533325195,0.2413501739501953,0.005921006202697754,2023-10-21T15:38:46.237327Z,1697902726237
0.03205442428588867,0.1503925323486328,0.004574179649353027,2023-10-21T15:38:46.255164Z,1697902726255
0.010048151016235352,0.046608924865722656,0.0016877949237823486,2023-10-21T15:38:46.275467Z,1697902726275
-0.014760732650756836,-0.06775760650634766,-0.002826184034347534,2023-10-21T15:38:46.295701Z,1697902726295
-0.04110288619995117,-0.1868610382080078,-0.00868290662765503,2023-10-21T15:38:46.315883Z,1697902726315
-0.06709814071655273,-0.30234527587890625,-0.01512157917022705,2023-10-21T15:38:46.337380Z,1697902726337
-0.09087777137756348,-0.4061708450317383,-0.021113067865371704,2023-10-21T15:38:46.356435Z,1697902726356
-0.11093711853027344,-0.49201202392578125,-0.025719672441482544,2023-10-21T15:38:46.376750Z,1697902726376
-0.12646746635437012,-0.5566434860229492,-0.02843990921974182,2023-10-21T15:38:46.396983Z,1697902726396
-0.13708090782165527,-0.5987691879272461,-0.029155373573303223,2023-10-21T15:38:46.417252Z,1697902726417
-0.1421504020690918,-0.6161880493164062,-0.02787560224533081,2023-10-21T15:38:46.437524Z,1697902726437
-0.14069509506225586,-0.605377197265625,-0.024681448936462402,2023-10-21T15:38:46.457758Z,1697902726457
-0.13179373741149902,-0.5633420944213867,-0.019912391901016235,2023-10-21T15:38:46.478097Z,1697902726478
-0.11534667015075684,-0.49044132232666016,-0.014345884323120117,2023-10-21T15:38:46.498259Z,1697902726498
-0.09245967864990234,-0.3916349411010742,-0.008994251489639282,2023-10-21T15:38:46.520252Z,1697902726520
-0.0651242733001709,-0.2752809524536133,-0.004697710275650024,2023-10-21T15:38:46.538812Z,1697902726538
-0.0355684757232666,-0.15036392211914062,-0.0017979145050048828,2023-10-21T15:38:46.559154Z,1697902726559
-0.005864381790161133,-0.024855613708496094,-1.963973045349121E-4,2023-10-21T15:38:46.579374Z,1697902726579
0.022671222686767578,0.09664535522460938,4.574917256832123E-4,2023-10-21T15:38:46.599580Z,1697902726599
0.04938840866088867,0.21226882934570312,5.010552704334259E-4,2023-10-21T15:38:46.620555Z,1697902726620
0.07393193244934082,0.32100391387939453,1.5205750241875648E-4,2023-10-21T15:38:46.640161Z,1697902726640
0.09598541259765625,0.42147159576416016,-4.830574616789818E-4,2023-10-21T15:38:46.660463Z,1697902726660
0.11528754234313965,0.5121145248413086,-0.0013319794088602066,2023-10-21T15:38:46.680667Z,1697902726680
0.13176798820495605,0.5919809341430664,-0.002352781593799591,2023-10-21T15:38:46.704136Z,1697902726704
0.14534521102905273,0.6601772308349609,-0.00348566472530365,2023-10-21T15:38:46.721197Z,1697902726721
0.15599870681762695,0.7160024642944336,-0.004705809056758881,2023-10-21T15:38:46.741447Z,1697902726741
0.16396784782409668,0.7598781585693359,-0.006061859428882599,2023-10-21T15:38:46.761709Z,1697902726761
0.16983246803283691,0.793731689453125,-0.007703036069869995,2023-10-21T15:38:46.781912Z,1697902726781
0.17418360710144043,0.8199615478515625,-0.009781710803508759,2023-10-21T15:38:46.803508Z,1697902726803
0.17722177505493164,0.8397350311279297,-0.012308657169342041,2023-10-21T15:38:46.822494Z,1697902726822
0.17858457565307617,0.8518705368041992,-0.015093326568603516,2023-10-21T15:38:46.842819Z,1697902726842
0.17766118049621582,0.8538570404052734,-0.017812520265579224,2023-10-21T15:38:46.862995Z,1697902726862
0.17406105995178223,0.8434438705444336,-0.020201116800308228,2023-10-21T15:38:46.883216Z,1697902726883
0.16777551174163818,0.8196859359741211,-0.02214100956916809,2023-10-21T15:38:46.903502Z,1697902726903
0.15913081169128418,0.7830801010131836,-0.023643195629119873,2023-10-21T15:38:46.923833Z,1697902726923
0.14839613437652588,0.7345504760742188,-0.024690747261047363,2023-10-21T15:38:46.944066Z,1697902726944
0.13564252853393555,0.674586296081543,-0.025173217058181763,2023-10-21T15:38:46.964250Z,1697902726964
0.12073671817779541,0.6028528213500977,-0.02484831213951111,2023-10-21T15:38:46.986901Z,1697902726986
0.10363924503326416,0.5192651748657227,-0.023474514484405518,2023-10-21T15:38:47.004846Z,1697902727004
0.08475089073181152,0.4256620407104492,-0.02097499370574951,2023-10-21T15:38:47.025153Z,1697902727025
0.06512868404388428,0.3273639678955078,-0.01754814386367798,2023-10-21T15:38:47.045398Z,1697902727045
0.046417832374572754,0.2329854965209961,-0.013617217540740967,2023-10-21T15:38:47.065615Z,1697902727065
0.03025674819946289,0.15134048461914062,-0.009667813777923584,2023-10-21T15:38:47.086370Z,1697902727086
0.01769256591796875,0.08804512023925781,-0.006138026714324951,2023-10-21T15:38:47.106180Z,1697902727106
0.008886575698852539,0.04395008087158203,-0.0033179521560668945,2023-10-21T15:38:47.126470Z,1697902727126
0.0037767887115478516,0.01855182647705078,-0.0014991164207458496,2023-10-21T15:38:47.146712Z,1697902727146
0.0024213790893554688,0.011808395385742188,-0.0010090470314025879,2023-10-21T15:38:47.169823Z,1697902727169
0.005159497261047363,0.024965286254882812,-0.002224445343017578,2023-10-21T15:38:47.187227Z,1697902727187
0.012141704559326172,0.05827522277832031,-0.0053536295890808105,2023-10-21T15:38:47.207513Z,1697902727207
0.02288508415222168,0.10897254943847656,-0.010213136672973633,2023-10-21T15:38:47.227772Z,1697902727227
0.03639817237854004,0.17207050323486328,-0.016237735748291016,2023-10-21T15:38:47.248027Z,1697902727247
0.051236867904663086,0.24085235595703125,-0.022559642791748047,2023-10-21T15:38:47.269897Z,1697902727269
0.06585216522216797,0.30861568450927734,-0.02824646234512329,2023-10-21T15:38:47.288559Z,1697902727288
0.07905149459838867,0.37067604064941406,-0.03262287378311157,2023-10-21T15:38:47.308839Z,1697902727308
0.09040665626525879,0.4259042739868164,-0.0354839563369751,2023-10-21T15:38:47.329051Z,1697902727329
0.0999441146850586,0.4748516082763672,-0.03690057992935181,2023-10-21T15:38:47.349294Z,1697902727349
0.10785186290740967,0.5181388854980469,-0.0370098352432251,2023-10-21T15:38:47.369799Z,1697902727369
0.11419558525085449,0.5553350448608398,-0.0359114408493042,2023-10-21T15:38:47.389865Z,1697902727389
0.1190485954284668,0.5859127044677734,-0.033744871616363525,2023-10-21T15:38:47.410161Z,1697902727410
0.12263059616088867,0.6102542877197266,-0.03073751926422119,2023-10-21T15:38:47.430425Z,1697902727430
0.12495803833007812,0.6280431747436523,-0.027068793773651123,2023-10-21T15:38:47.452984Z,1697902727452
0.12593555450439453,0.6384792327880859,-0.022871345281600952,2023-10-21T15:38:47.470880Z,1697902727470
0.1255171298980713,0.6407957077026367,-0.018283724784851074,2023-10-21T15:38:47.491224Z,1697902727491
0.12370932102203369,0.6344490051269531,-0.013482049107551575,2023-10-21T15:38:47.511475Z,1697902727511
0.1204531192779541,0.6187572479248047,-0.00866815447807312,2023-10-21T15:38:47.531670Z,1697902727531
0.11545979976654053,0.5921926498413086,-0.004051782190799713,2023-10-21T15:38:47.553036Z,1697902727552
0.10824501514434814,0.5528268814086914,1.3224361464381218E-4,2023-10-21T15:38:47.572295Z,1697902727572
0.0983576774597168,0.49931812286376953,0.0035676583647727966,2023-10-21T15:38:47.592559Z,1697902727592
0.08560371398925781,0.4317770004272461,0.005941957235336304,2023-10-21T15:38:47.612751Z,1697902727612
0.07028162479400635,0.35250091552734375,0.007037520408630371,2023-10-21T15:38:47.636344Z,1697902727636
0.052884697914123535,0.2641277313232422,0.006766766309738159,2023-10-21T15:38:47.653266Z,1697902727653
0.03381502628326416,0.16838836669921875,0.0051690638065338135,2023-10-21T15:38:47.673601Z,1697902727673
0.01322472095489502,0.06568241119384766,0.0023103058338165283,2023-10-21T15:38:47.693837Z,1697902727693
-0.008568167686462402,-0.04239845275878906,-0.0016523897647857666,2023-10-21T15:38:47.714112Z,1697902727714
-0.03069484233856201,-0.15096092224121094,-0.006319761276245117,2023-10-21T15:38:47.736099Z,1697902727736
-0.0518496036529541,-0.2527656555175781,-0.010991007089614868,2023-10-21T15:38:47.754601Z,1697902727754
-0.07071399688720703,-0.34090232849121094,-0.014883697032928467,2023-10-21T15:38:47.774932Z,1697902727774
-0.08619904518127441,-0.4102296829223633,-0.017450153827667236,2023-10-21T15:38:47.795148Z,1697902727795
-0.09751749038696289,-0.4572906494140625,-0.018452823162078857,2023-10-21T15:38:47.815332Z,1697902727815
-0.10420942306518555,-0.48031139373779297,-0.017939597368240356,2023-10-21T15:38:47.835922Z,1697902727835
-0.1056528091430664,-0.4770927429199219,-0.01599559187889099,2023-10-21T15:38:47.855920Z,1697902727855
-0.10103583335876465,-0.44586753845214844,-0.012861669063568115,2023-10-21T15:38:47.876267Z,1697902727876
-0.08966255187988281,-0.3864879608154297,-0.009053096175193787,2023-10-21T15:38:47.896434Z,1697902727896
-0.07160735130310059,-0.30214691162109375,-0.005341127514839172,2023-10-21T15:38:47.919444Z,1697902727919
-0.048038482666015625,-0.19924163818359375,-0.002437204122543335,2023-10-21T15:38:47.936949Z,1697902727936
-0.020663976669311523,-0.0846261978149414,-6.434768438339233E-4,2023-10-21T15:38:47.957328Z,1697902727957
0.008849143981933594,0.03592872619628906,1.4233961701393127E-4,2023-10-21T15:38:47.977574Z,1697902727977
0.03929424285888672,0.15865802764892578,1.6622059047222137E-4,2023-10-21T15:38:47.997798Z,1697902727997
0.06962990760803223,0.28034305572509766,-3.811027854681015E-4,2023-10-21T15:38:48.019209Z,1697902728019
0.09874320030212402,0.39764404296875,-0.001376822590827942,2023-10-21T15:38:48.038450Z,1697902728038
0.12534713745117188,0.5069284439086914,-0.002626728266477585,2023-10-21T15:38:48.058622Z,1697902728058
0.1482224464416504,0.6046924591064453,-0.003879040479660034,2023-10-21T15:38:48.078851Z,1697902728078
0.16684889793395996,0.6895561218261719,-0.004901692271232605,2023-10-21T15:38:48.099007Z,1697902728098
0.18126487731933594,0.7614345550537109,-0.005612827837467194,2023-10-21T15:38:48.119359Z,1697902728119
0.19175291061401367,0.8205671310424805,-0.006074979901313782,2023-10-21T15:38:48.139653Z,1697902728139
0.19849252700805664,0.8666391372680664,-0.006434299051761627,2023-10-21T15:38:48.159893Z,1697902728159
0.20180821418762207,0.900360107421875,-0.006827078759670258,2023-10-21T15:38:48.180150Z,1697902728180
0.20205426216125488,0.9228248596191406,-0.0073205530643463135,2023-10-21T15:38:48.202580Z,1697902728202
0.1994342803955078,0.9347028732299805,-0.007873989641666412,2023-10-21T15:38:48.220655Z,1697902728220
0.19401156902313232,0.9354639053344727,-0.008380144834518433,2023-10-21T15:38:48.240965Z,1697902728240
0.1858386993408203,0.9232444763183594,-0.008775673806667328,2023-10-21T15:38:48.261193Z,1697902728261
0.1753406524658203,0.8973989486694336,-0.009110525250434875,2023-10-21T15:38:48.281400Z,1697902728281
0.16319942474365234,0.8584327697753906,-0.009562186896800995,2023-10-21T15:38:48.302460Z,1697902728302
0.14990651607513428,0.8070259094238281,-0.010197862982749939,2023-10-21T15:38:48.322010Z,1697902728321
0.13551175594329834,0.7430152893066406,-0.01093176007270813,2023-10-21T15:38:48.342316Z,1697902728342
0.11961698532104492,0.664973258972168,-0.011436372995376587,2023-10-21T15:38:48.362519Z,1697902728362
0.10187935829162598,0.571782112121582,-0.011380627751350403,2023-10-21T15:38:48.385679Z,1697902728385
0.08255410194396973,0.4656190872192383,-0.01060090959072113,2023-10-21T15:38:48.403002Z,1697902728402
0.0625838041305542,0.35271739959716797,-0.00915217399597168,2023-10-21T15:38:48.423289Z,1697902728423
0.043216824531555176,0.24178791046142578,-0.007186293601989746,2023-10-21T15:38:48.443591Z,1697902728443
0.025652527809143066,0.14160919189453125,-0.004855036735534668,2023-10-21T15:38:48.463794Z,1697902728463
0.010736942291259766,0.05821514129638672,-0.002301722764968872,2023-10-21T15:38:48.485536Z,1697902728485
-9.77635383605957E-4,-0.00519561767578125,2.3573637008666992E-4,2023-10-21T15:38:48.504410Z,1697902728504
-0.008785486221313477,-0.04568767547607422,0.002311110496520996,2023-10-21T15:38:48.524602Z,1697902728524
-0.01166844367980957,-0.05944252014160156,0.0033128857612609863,2023-10-21T15:38:48.544854Z,1697902728544
-0.00857245922088623,-0.04277801513671875,0.0025794506072998047,2023-10-21T15:38:48.565063Z,1697902728565
7.531642913818359E-4,0.0036792755126953125,-2.3651123046875E-4,2023-10-21T15:38:48.585456Z,1697902728585
0.015297174453735352,0.07315349578857422,-0.004890084266662598,2023-10-21T15:38:48.605691Z,1697902728605
0.033080101013183594,0.1548328399658203,-0.010571956634521484,2023-10-21T15:38:48.626003Z,1697902728625
0.052042484283447266,0.23866653442382812,-0.016297578811645508,2023-10-21T15:38:48.646242Z,1697902728646
0.0706024169921875,0.3180112838745117,-0.02128201723098755,2023-10-21T15:38:48.668946Z,1697902728668
0.08784747123718262,0.3899984359741211,-0.02512723207473755,2023-10-21T15:38:48.686736Z,1697902728686
0.10319805145263672,0.45341014862060547,-0.027701914310455322,2023-10-21T15:38:48.707060Z,1697902728707
0.11611032485961914,0.5067911148071289,-0.02897733449935913,2023-10-21T15:38:48.727279Z,1697902728727
0.1260831356048584,0.5482892990112305,-0.028989076614379883,2023-10-21T15:38:48.747558Z,1697902728747
0.1329193115234375,0.576838493347168,-0.027907758951187134,2023-10-21T15:38:48.768939Z,1697902728768
0.13698935508728027,0.5936946868896484,-0.026062190532684326,2023-10-21T15:38:48.788136Z,1697902728788
0.1390247344970703,0.6017341613769531,-0.02382984757423401,2023-10-21T15:38:48.808383Z,1697902728808
0.13982677459716797,0.6044225692749023,-0.02147802710533142,2023-10-21T15:38:48.828626Z,1697902728828
0.13986468315124512,0.6037931442260742,-0.019091010093688965,2023-10-21T15:38:48.848921Z,1697902728848
0.13926029205322266,0.6002264022827148,-0.016633421182632446,2023-10-21T15:38:48.869113Z,1697902728869
0.13782143592834473,0.5926694869995117,-0.014019057154655457,2023-10-21T15:38:48.889426Z,1697902728889
0.13515901565551758,0.5792522430419922,-0.011204704642295837,2023-10-21T15:38:48.909672Z,1697902728909
0.13079094886779785,0.5579023361206055,-0.008240699768066406,2023-10-21T15:38:48.929921Z,1697902728929
0.12401938438415527,0.5260391235351562,-0.005243159830570221,2023-10-21T15:38:48.952070Z,1697902728952
0.11411452293395996,0.48127079010009766,-0.0023958198726177216,2023-10-21T15:38:48.970470Z,1697902728970
0.1007535457611084,0.42292308807373047,4.4925836846232414E-5,2023-10-21T15:38:48.990798Z,1697902728990
0.08409380912780762,0.3519620895385742,0.0018394440412521362,2023-10-21T15:38:49.011059Z,1697902729010
0.06438708305358887,0.26921749114990234,0.0027821287512779236,2023-10-21T15:38:49.031282Z,1697902729031
0.04167628288269043,0.17435264587402344,0.0026895850896835327,2023-10-21T15:38:49.051912Z,1697902729051
0.015999794006347656,0.0670156478881836,0.00136604905128479,2023-10-21T15:38:49.071796Z,1697902729071
-0.01183629035949707,-0.04963397979736328,-0.0012353956699371338,2023-10-21T15:38:49.092097Z,1697902729092
-0.04012417793273926,-0.16831493377685547,-0.004778563976287842,2023-10-21T15:38:49.112255Z,1697902729112
-0.06663393974304199,-0.2793140411376953,-0.008513867855072021,2023-10-21T15:38:49.135335Z,1697902729135
-0.08934712409973145,-0.3737201690673828,-0.011565327644348145,2023-10-21T15:38:49.152777Z,1697902729152
-0.10708856582641602,-0.4462318420410156,-0.013354182243347168,2023-10-21T15:38:49.173103Z,1697902729173
-0.11949753761291504,-0.4950227737426758,-0.01375618577003479,2023-10-21T15:38:49.193346Z,1697902729193
-0.1262679100036621,-0.5188722610473633,-0.012899532914161682,2023-10-21T15:38:49.213549Z,1697902729213
-0.1266462802886963,-0.5153226852416992,-0.010963574051856995,2023-10-21T15:38:49.235080Z,1697902729235
-0.11947226524353027,-0.4810504913330078,-0.008214041590690613,2023-10-21T15:38:49.254121Z,1697902729254
-0.10412812232971191,-0.41542816162109375,-0.005191914737224579,2023-10-21T15:38:49.274447Z,1697902729274
-0.0813746452331543,-0.3227043151855469,-0.0026098862290382385,2023-10-21T15:38:49.294658Z,1697902729294
-0.053231239318847656,-0.21081161499023438,-9.521394968032837E-4,2023-10-21T15:38:49.314830Z,1697902729314
-0.022361278533935547,-0.08890247344970703,-1.990199089050293E-4,2023-10-21T15:38:49.335200Z,1697902729335
0.009053945541381836,0.03632640838623047,4.864204674959183E-5,2023-10-21T15:38:49.355481Z,1697902729355
0.03984785079956055,0.1621417999267578,2.580322325229645E-4,2023-10-21T15:38:49.375808Z,1697902729375
0.06933712959289551,0.28739261627197266,7.326547056436539E-4,2023-10-21T15:38:49.396006Z,1697902729395
0.09657979011535645,0.40927791595458984,0.0015997886657714844,2023-10-21T15:38:49.418423Z,1697902729418
0.12039542198181152,0.5232610702514648,0.0028783418238162994,2023-10-21T15:38:49.436497Z,1697902729436
0.13991522789001465,0.6249456405639648,0.004515707492828369,2023-10-21T15:38:49.456761Z,1697902729456
0.15526843070983887,0.7131729125976562,0.006377719342708588,2023-10-21T15:38:49.476986Z,1697902729476
0.1670699119567871,0.7885046005249023,0.008243463933467865,2023-10-21T15:38:49.497351Z,1697902729497
0.1758366823196411,0.8513784408569336,0.009862750768661499,2023-10-21T15:38:49.518339Z,1697902729518
0.1817333698272705,0.9013872146606445,0.011038929224014282,2023-10-21T15:38:49.537794Z,1697902729537
0.18472576141357422,0.9375314712524414,0.01165124773979187,2023-10-21T15:38:49.558157Z,1697902729558
0.18474626541137695,0.9587583541870117,0.011666253209114075,2023-10-21T15:38:49.578351Z,1697902729578
0.18186986446380615,0.9648218154907227,0.011140018701553345,2023-10-21T15:38:49.601662Z,1697902729601
0.17628633975982666,0.9562892913818359,0.010170437395572662,2023-10-21T15:38:49.618800Z,1697902729618
0.16831672191619873,0.9342269897460938,0.008882753551006317,2023-10-21T15:38:49.639136Z,1697902729639
0.15831315517425537,0.8995342254638672,0.007393352687358856,2023-10-21T15:38:49.659415Z,1697902729659
0.14680218696594238,0.8532600402832031,0.005765371024608612,2023-10-21T15:38:49.679657Z,1697902729679
0.1341845989227295,0.7955446243286133,0.004039444029331207,2023-10-21T15:38:49.701497Z,1697902729701
0.12063837051391602,0.725825309753418,0.002265181392431259,2023-10-21T15:38:49.720161Z,1697902729720
0.1060110330581665,0.6428909301757812,5.900952965021133E-4,2023-10-21T15:38:49.740505Z,1697902729740
0.08995652198791504,0.5458250045776367,-8.182432502508163E-4,2023-10-21T15:38:49.760744Z,1697902729760
0.07242918014526367,0.43648338317871094,-0.0018139258027076721,2023-10-21T15:38:49.781006Z,1697902729780
0.05372750759124756,0.31919288635253906,-0.0023087412118911743,2023-10-21T15:38:49.801288Z,1697902729801
0.03447878360748291,0.2005167007446289,-0.0022132322192192078,2023-10-21T15:38:49.821528Z,1697902729821
0.015525102615356445,0.08781623840332031,-0.0013871490955352783,2023-10-21T15:38:49.841830Z,1697902729841
-0.0023343563079833984,-0.012774467468261719,2.767890691757202E-4,2023-10-21T15:38:49.862010Z,1697902729861
-0.018553853034973145,-0.09782791137695312,0.0027616918087005615,2023-10-21T15:38:49.884704Z,1697902729884
-0.03249180316925049,-0.16477394104003906,0.005824536085128784,2023-10-21T15:38:49.902537Z,1697902729902
-0.04294848442077637,-0.2095317840576172,0.008931934833526611,2023-10-21T15:38:49.922836Z,1697902729922
-0.04804086685180664,-0.2260265350341797,0.0112781822681427,2023-10-21T15:38:49.943133Z,1697902729943
-0.04586386680603027,-0.2088756561279297,0.011876404285430908,2023-10-21T15:38:49.963305Z,1697902729963
-0.035820960998535156,-0.15861034393310547,0.010007262229919434,2023-10-21T15:38:49.984489Z,1697902729984
-0.019109010696411133,-0.08262348175048828,0.005617082118988037,2023-10-21T15:38:50.003861Z,1697902730003
0.0019268989562988281,0.008161544799804688,-5.802512168884277E-4,2023-10-21T15:38:50.024246Z,1697902730024
0.024810791015625,0.10331535339355469,-0.007461369037628174,2023-10-21T15:38:50.044390Z,1697902730044
0.0477747917175293,0.19633007049560547,-0.014055132865905762,2023-10-21T15:38:50.064574Z,1697902730064
0.069732666015625,0.2843742370605469,-0.01979309320449829,2023-10-21T15:38:50.084899Z,1697902730084
0.09010481834411621,0.36711883544921875,-0.024457275867462158,2023-10-21T15:38:50.105170Z,1697902730105
0.10814666748046875,0.4430103302001953,-0.027863383293151855,2023-10-21T15:38:50.125480Z,1697902730125
0.12293434143066406,0.5083789825439453,-0.029758155345916748,2023-10-21T15:38:50.145675Z,1697902730145
0.13368940353393555,0.5589962005615234,-0.029994606971740723,2023-10-21T15:38:50.167769Z,1697902730167
0.1402904987335205,0.5930299758911133,-0.028753280639648438,2023-10-21T15:38:50.186247Z,1697902730186
0.14350438117980957,0.6131811141967773,-0.02658703923225403,2023-10-21T15:38:50.206532Z,1697902730206
0.14427685737609863,0.6234340667724609,-0.02400827407836914,2023-10-21T15:38:50.226786Z,1697902730226
0.143416166305542,0.6271305084228516,-0.021335244178771973,2023-10-21T15:38:50.246976Z,1697902730246
0.14139509201049805,0.6255149841308594,-0.018645405769348145,2023-10-21T15:38:50.267717Z,1697902730267
0.1384751796722412,0.6185216903686523,-0.015890061855316162,2023-10-21T15:38:50.287522Z,1697902730287
0.13454079627990723,0.6046514511108398,-0.012998878955841064,2023-10-21T15:38:50.307823Z,1697902730307
0.12926340103149414,0.5821704864501953,-0.009954988956451416,2023-10-21T15:38:50.328075Z,1697902730328
0.12209081649780273,0.5493087768554688,-0.0068403929471969604,2023-10-21T15:38:50.350999Z,1697902730350
0.11249279975891113,0.5049200057983398,-0.0038364455103874207,2023-10-21T15:38:50.368571Z,1697902730368
0.10012555122375488,0.4486875534057617,-0.0011850018054246902,2023-10-21T15:38:50.388943Z,1697902730388
0.08495879173278809,0.38091468811035156,8.989050984382629E-4,2023-10-21T15:38:50.409214Z,1697902730409
0.06716513633728027,0.30208683013916016,0.002236180007457733,2023-10-21T15:38:50.429387Z,1697902730429
0.04675579071044922,0.2113170623779297,0.0026522353291511536,2023-10-21T15:38:50.450823Z,1697902730450
0.023709535598754883,0.10774993896484375,0.0019166171550750732,2023-10-21T15:38:50.469995Z,1697902730469
-0.0014095306396484375,-0.006440162658691406,-1.4673173427581787E-4,2023-10-21T15:38:50.490295Z,1697902730490
-0.02701568603515625,-0.12403202056884766,-0.003351867198944092,2023-10-21T15:38:50.510420Z,1697902730510
-0.050890445709228516,-0.23480510711669922,-0.007036745548248291,2023-10-21T15:38:50.530616Z,1697902730530
-0.07097363471984863,-0.32912540435791016,-0.010338813066482544,2023-10-21T15:38:50.550942Z,1697902730550
-0.08592963218688965,-0.40012073516845703,-0.012613058090209961,2023-10-21T15:38:50.571253Z,1697902730571
-0.09513938426971436,-0.4433145523071289,-0.013592749834060669,2023-10-21T15:38:50.591535Z,1697902730591
-0.09862208366394043,-0.4572591781616211,-0.01329091191291809,2023-10-21T15:38:50.611783Z,1697902730611
-0.0962831974029541,-0.44148731231689453,-0.011852443218231201,2023-10-21T15:38:50.634111Z,1697902730634
-0.08767557144165039,-0.3961000442504883,-0.009516626596450806,2023-10-21T15:38:50.652297Z,1697902730652
-0.07247471809387207,-0.32244396209716797,-0.006707310676574707,2023-10-21T15:38:50.672603Z,1697902730672
-0.05104804039001465,-0.22412490844726562,-0.003949075937271118,2023-10-21T15:38:50.692843Z,1697902730692
-0.025040626525878906,-0.10879325866699219,-0.0016379356384277344,2023-10-21T15:38:50.713072Z,1697902730712
0.003476381301879883,0.014977455139160156,2.0234286785125732E-4,2023-10-21T15:38:50.734086Z,1697902730733
0.03271293640136719,0.1401529312133789,0.001795932650566101,2023-10-21T15:38:50.753829Z,1697902730753
0.06127500534057617,0.26171207427978516,0.003366023302078247,2023-10-21T15:38:50.773940Z,1697902730773
0.0877847671508789,0.37552833557128906,0.004982873797416687,2023-10-21T15:38:50.794219Z,1697902730794
0.11108922958374023,0.4789104461669922,0.006622761487960815,2023-10-21T15:38:50.817201Z,1697902730817
0.1304178237915039,0.5705060958862305,0.008235648274421692,2023-10-21T15:38:50.834636Z,1697902730834
0.14581584930419922,0.6511259078979492,0.009790599346160889,2023-10-21T15:38:50.854967Z,1697902730854
0.15781259536743164,0.722468376159668,0.011237666010856628,2023-10-21T15:38:50.875204Z,1697902730875
0.16675329208374023,0.7846603393554688,0.012511998414993286,2023-10-21T15:38:50.895439Z,1697902730895
0.17280316352844238,0.836918830871582,0.013503879308700562,2023-10-21T15:38:50.917281Z,1697902730917
0.17598235607147217,0.8776445388793945,0.014109790325164795,2023-10-21T15:38:50.935978Z,1697902730935
0.17629289627075195,0.9053564071655273,0.014219298958778381,2023-10-21T15:38:50.956323Z,1697902730956
0.1738497018814087,0.9191865921020508,0.013741955161094666,2023-10-21T15:38:50.976505Z,1697902730976
0.1687396764755249,0.9182243347167969,0.012732073664665222,2023-10-21T15:38:50.996693Z,1697902730996
0.16115665435791016,0.9018878936767578,0.01129758358001709,2023-10-21T15:38:51.017240Z,1697902731017
0.15139544010162354,0.8696880340576172,0.009514354169368744,2023-10-21T15:38:51.037317Z,1697902731037
0.13992226123809814,0.8219461441040039,0.007381856441497803,2023-10-21T15:38:51.057581Z,1697902731057
0.12704288959503174,0.7587566375732422,0.0049077048897743225,2023-10-21T15:38:51.077797Z,1697902731077
0.11269843578338623,0.6798286437988281,0.0022456273436546326,2023-10-21T15:38:51.100460Z,1697902731100
0.09668385982513428,0.5854091644287109,-2.513076178729534E-4,2023-10-21T15:38:51.118489Z,1697902731118
0.07893598079681396,0.4771394729614258,-0.0021829381585121155,2023-10-21T15:38:51.138683Z,1697902731138
0.05994570255279541,0.35990238189697266,-0.0032639503479003906,2023-10-21T15:38:51.158941Z,1697902731158
0.04070436954498291,0.24140071868896484,-0.0033758729696273804,2023-10-21T15:38:51.179228Z,1697902731179
0.022306203842163086,0.12990570068359375,-0.0025307685136795044,2023-10-21T15:38:51.200571Z,1697902731200
0.0057256221771240234,0.03254985809326172,-8.351951837539673E-4,2023-10-21T15:38:51.219743Z,1697902731219
-0.008237600326538086,-0.045510292053222656,0.001476675271987915,2023-10-21T15:38:51.240034Z,1697902731239
-0.019009709358215332,-0.10174083709716797,0.004014819860458374,2023-10-21T15:38:51.260194Z,1697902731260
-0.025630474090576172,-0.13275432586669922,0.0061605870723724365,2023-10-21T15:38:51.280494Z,1697902731280
-0.0267716646194458,-0.13429832458496094,0.007110655307769775,2023-10-21T15:38:51.300701Z,1697902731300
-0.021343350410461426,-0.10384559631347656,0.006111562252044678,2023-10-21T15:38:51.321100Z,1697902731321
-0.009279727935791016,-0.04386425018310547,0.0028009414672851562,2023-10-21T15:38:51.341311Z,1697902731341
0.007913589477539062,0.036407470703125,-0.0024660825729370117,2023-10-21T15:38:51.361546Z,1697902731361
0.027896404266357422,0.1251697540283203,-0.008790254592895508,2023-10-21T15:38:51.383994Z,1697902731383
0.04860568046569824,0.2132244110107422,-0.015201866626739502,2023-10-21T15:38:51.402088Z,1697902731402
0.06862044334411621,0.2953519821166992,-0.020987093448638916,2023-10-21T15:38:51.422388Z,1697902731422
0.08701014518737793,0.3692045211791992,-0.02574324607849121,2023-10-21T15:38:51.442618Z,1697902731442
0.10343766212463379,0.43517208099365234,-0.02934354543685913,2023-10-21T15:38:51.462815Z,1697902731462
0.11751365661621094,0.49285125732421875,-0.031675755977630615,2023-10-21T15:38:51.483517Z,1697902731483
0.12877845764160156,0.5406208038330078,-0.03262019157409668,2023-10-21T15:38:51.503354Z,1697902731503
0.136918306350708,0.5767335891723633,-0.03218597173690796,2023-10-21T15:38:51.523684Z,1697902731523
0.14217185974121094,0.6015710830688477,-0.03061014413833618,2023-10-21T15:38:51.543910Z,1697902731543
0.14536428451538086,0.6184425354003906,-0.02831175923347473,2023-10-21T15:38:51.566753Z,1697902731566
0.14728021621704102,0.6305532455444336,-0.025635600090026855,2023-10-21T15:38:51.584418Z,1697902731584
0.14841961860656738,0.6395654678344727,-0.02274841070175171,2023-10-21T15:38:51.604739Z,1697902731604
0.14899277687072754,0.6454877853393555,-0.019711613655090332,2023-10-21T15:38:51.624977Z,1697902731624
0.14900851249694824,0.6473789215087891,-0.016537100076675415,2023-10-21T15:38:51.645200Z,1697902731645
0.14785194396972656,0.6420469284057617,-0.013200342655181885,2023-10-21T15:38:51.666625Z,1697902731666
0.1444542407989502,0.6252593994140625,-0.009700283408164978,2023-10-21T15:38:51.685732Z,1697902731685
0.13761425018310547,0.5929040908813477,-0.0061484649777412415,2023-10-21T15:38:51.706048Z,1697902731705
0.12656521797180176,0.5430002212524414,-0.00277559831738472,2023-10-21T15:38:51.726254Z,1697902731726
0.11115503311157227,0.4759092330932617,9.754206985235214E-5,2023-10-21T15:38:51.746476Z,1697902731746
0.09188127517700195,0.39377880096435547,0.0021687299013137817,2023-10-21T15:38:51.766774Z,1697902731766
0.06926560401916504,0.29804134368896484,0.003209419548511505,2023-10-21T15:38:51.787102Z,1697902731787
0.04355192184448242,0.1885366439819336,0.0030163824558258057,2023-10-21T15:38:51.807364Z,1697902731807
0.015095233917236328,0.0657968521118164,0.0013916343450546265,2023-10-21T15:38:51.827633Z,1697902731827
-0.014957427978515625,-0.06564807891845703,-0.0017028450965881348,2023-10-21T15:38:51.849883Z,1697902731849
-0.0443730354309082,-0.19596385955810547,-0.00585484504699707,2023-10-21T15:38:51.868104Z,1697902731868
-0.07072758674621582,-0.3139333724975586,-0.010207116603851318,2023-10-21T15:38:51.888407Z,1697902731888
-0.09214162826538086,-0.4102649688720703,-0.013815104961395264,2023-10-21T15:38:51.908660Z,1697902731908
-0.10759949684143066,-0.4790763854980469,-0.016024410724639893,2023-10-21T15:38:51.928852Z,1697902731928
-0.1167299747467041,-0.5173015594482422,-0.01658591628074646,2023-10-21T15:38:51.949840Z,1697902731949
-0.11967635154724121,-0.5250968933105469,-0.015593498945236206,2023-10-21T15:38:51.969649Z,1697902731969
-0.11631298065185547,-0.5031766891479492,-0.013292193412780762,2023-10-21T15:38:51.989733Z,1697902731989
-0.10619974136352539,-0.45215511322021484,-0.010076403617858887,2023-10-21T15:38:52.009997Z,1697902732009
-0.08905529975891113,-0.37349796295166016,-0.0065536051988601685,2023-10-21T15:38:52.033222Z,1697902732033
-0.0655059814453125,-0.27133750915527344,-0.0034300535917282104,2023-10-21T15:38:52.050458Z,1697902732050
-0.03741765022277832,-0.1535663604736328,-0.0012449771165847778,2023-10-21T15:38:52.070873Z,1697902732070
-0.006864786148071289,-0.028011322021484375,-1.2092664837837219E-4,2023-10-21T15:38:52.091128Z,1697902732091
0.024463653564453125,0.09952735900878906,1.3203173875808716E-4,2023-10-21T15:38:52.111310Z,1697902732111
0.05517220497131348,0.2245349884033203,-2.377443015575409E-4,2023-10-21T15:38:52.133043Z,1697902732132
0.08402180671691895,0.34319400787353516,-0.001037605106830597,2023-10-21T15:38:52.151855Z,1697902732151
0.11017346382141113,0.4531879425048828,-0.0021342597901821136,2023-10-21T15:38:52.172099Z,1697902732172
0.13319063186645508,0.5533609390258789,-0.0034134723246097565,2023-10-21T15:38:52.192394Z,1697902732192
0.15313029289245605,0.6440486907958984,-0.004792124032974243,2023-10-21T15:38:52.212509Z,1697902732212
0.17003393173217773,0.7250757217407227,-0.006226338446140289,2023-10-21T15:38:52.233115Z,1697902732233
0.1837446689605713,0.7950859069824219,-0.007681749761104584,2023-10-21T15:38:52.253198Z,1697902732253
0.19408226013183594,0.8525543212890625,-0.009184285998344421,2023-10-21T15:38:52.273446Z,1697902732273
0.20094609260559082,0.896031379699707,-0.01081278920173645,2023-10-21T15:38:52.293619Z,1697902732293
0.20445752143859863,0.9253950119018555,-0.012669175863265991,2023-10-21T15:38:52.316332Z,1697902732316
0.20487308502197266,0.9416589736938477,-0.014858722686767578,2023-10-21T15:38:52.334184Z,1697902732334
0.20232009887695312,0.9453210830688477,-0.017322242259979248,2023-10-21T15:38:52.354488Z,1697902732354
0.19685649871826172,0.9360799789428711,-0.019894137978553772,2023-10-21T15:38:52.374734Z,1697902732374
0.18858647346496582,0.9130382537841797,-0.022342920303344727,2023-10-21T15:38:52.394951Z,1697902732394
0.17792677879333496,0.8761787414550781,-0.02455192804336548,2023-10-21T15:38:52.416201Z,1697902732416
0.16530704498291016,0.8260211944580078,-0.026448339223861694,2023-10-21T15:38:52.435503Z,1697902732435
0.1510220766067505,0.7633256912231445,-0.027901530265808105,2023-10-21T15:38:52.455845Z,1697902732455
0.1352083683013916,0.688664436340332,-0.02865096926689148,2023-10-21T15:38:52.476017Z,1697902732475
0.11801934242248535,0.6032466888427734,-0.028343886137008667,2023-10-21T15:38:52.496258Z,1697902732496
0.09979641437530518,0.5095958709716797,-0.026770412921905518,2023-10-21T15:38:52.516492Z,1697902732516
0.08114004135131836,0.4119243621826172,-0.023945093154907227,2023-10-21T15:38:52.536846Z,1697902732536
0.0628199577331543,0.3156709671020508,-0.0201416015625,2023-10-21T15:38:52.557091Z,1697902732557
0.04564332962036133,0.2261800765991211,-0.015733957290649414,2023-10-21T15:38:52.577345Z,1697902732577
0.030373096466064453,0.14807701110839844,-0.011158943176269531,2023-10-21T15:38:52.599300Z,1697902732599
0.01770949363708496,0.08489227294921875,-0.006876111030578613,2023-10-21T15:38:52.617848Z,1697902732617
0.008585691452026367,0.040488243103027344,-0.0034923553466796875,2023-10-21T15:38:52.638178Z,1697902732638
0.004122734069824219,0.019150733947753906,-0.0017431974411010742,2023-10-21T15:38:52.658498Z,1697902732658
0.005179166793823242,0.023714065551757812,-0.0022499561309814453,2023-10-21T15:38:52.678593Z,1697902732678
0.011838197708129883,0.05346965789794922,-0.005235195159912109,2023-10-21T15:38:52.699425Z,1697902732699
0.023290157318115234,0.10374927520751953,-0.010359346866607666,2023-10-21T15:38:52.719257Z,1697902732719
0.038140296936035156,0.16754913330078125,-0.01685810089111328,2023-10-21T15:38:52.739495Z,1697902732739
0.05492997169494629,0.2379903793334961,-0.02384793758392334,2023-10-21T15:38:52.759699Z,1697902732759
0.0723416805267334,0.3094758987426758,-0.030527174472808838,2023-10-21T15:38:52.782680Z,1697902732782
0.08939123153686523,0.3784198760986328,-0.03628993034362793,2023-10-21T15:38:52.800221Z,1697902732800
0.10527181625366211,0.4420280456542969,-0.0406651496887207,2023-10-21T15:38:52.820527Z,1697902732820
0.11935925483703613,0.49775123596191406,-0.04326760768890381,2023-10-21T15:38:52.840794Z,1697902732840
0.13111162185668945,0.5430154800415039,-0.043911635875701904,2023-10-21T15:38:52.861037Z,1697902732860
0.14018678665161133,0.5761861801147461,-0.04270237684249878,2023-10-21T15:38:52.883060Z,1697902732883
0.14659476280212402,0.5974760055541992,-0.04002737998962402,2023-10-21T15:38:52.901597Z,1697902732901
0.1503756046295166,0.6075801849365234,-0.036302804946899414,2023-10-21T15:38:52.921879Z,1697902732921
0.15174198150634766,0.6076889038085938,-0.0319058895111084,2023-10-21T15:38:52.942088Z,1697902732942
0.1511237621307373,0.5992975234985352,-0.027184098958969116,2023-10-21T15:38:52.962404Z,1697902732962
0.14935803413391113,0.5851068496704102,-0.02250269055366516,2023-10-21T15:38:52.982605Z,1697902732982
0.14717459678649902,0.5675840377807617,-0.018175631761550903,2023-10-21T15:38:53.002905Z,1697902733002
0.1446995735168457,0.5475711822509766,-0.014357894659042358,2023-10-21T15:38:53.023215Z,1697902733023
0.1412210464477539,0.5234003067016602,-0.011040732264518738,2023-10-21T15:38:53.043400Z,1697902733043
0.13559722900390625,0.4920816421508789,-0.008132204413414001,2023-10-21T15:38:53.065745Z,1697902733065
0.12680983543395996,0.4511690139770508,-0.005563899874687195,2023-10-21T15:38:53.083958Z,1697902733083
0.11431050300598145,0.39957618713378906,-0.0033281296491622925,2023-10-21T15:38:53.104226Z,1697902733104
0.09794163703918457,0.3372039794921875,-0.0014631226658821106,2023-10-21T15:38:53.124555Z,1697902733124
0.07760047912597656,0.2638692855834961,-4.853610880672932E-5,2023-10-21T15:38:53.144742Z,1697902733144
0.05319380760192871,0.17916488647460938,7.539652287960052E-4,2023-10-21T15:38:53.165555Z,1697902733165
0.02508378028869629,0.08394622802734375,7.297024130821228E-4,2023-10-21T15:38:53.185289Z,1697902733185
-0.005458831787109375,-0.01820659637451172,-2.3777037858963013E-4,2023-10-21T15:38:53.205615Z,1697902733205
-0.03640866279602051,-0.12131500244140625,-0.0020550191402435303,2023-10-21T15:38:53.225758Z,1697902733225
-0.0653226375579834,-0.21797847747802734,-0.0043802410364151,2023-10-21T15:38:53.248900Z,1697902733248
-0.09009480476379395,-0.3016357421875,-0.006755024194717407,2023-10-21T15:38:53.266331Z,1697902733266
-0.10916423797607422,-0.36691761016845703,-0.008731886744499207,2023-10-21T15:38:53.286637Z,1697902733286
-0.12157940864562988,-0.40999507904052734,-0.009934693574905396,2023-10-21T15:38:53.306881Z,1697902733306
-0.12644386291503906,-0.4273223876953125,-0.01003982126712799,2023-10-21T15:38:53.327083Z,1697902733327
-0.12298440933227539,-0.416290283203125,-0.008903831243515015,2023-10-21T15:38:53.348889Z,1697902733348
-0.11078953742980957,-0.3758716583251953,-0.006767690181732178,2023-10-21T15:38:53.367625Z,1697902733367
-0.09049367904663086,-0.30835914611816406,-0.004267528653144836,2023-10-21T15:38:53.387922Z,1697902733387
-0.06370282173156738,-0.21877098083496094,-0.0020986944437026978,2023-10-21T15:38:53.408167Z,1697902733408
-0.03254437446594238,-0.1130838394165039,-6.694570183753967E-4,2023-10-21T15:38:53.428397Z,1697902733428
7.32421875E-4,0.0025787353515625,7.146969437599182E-6,2023-10-21T15:38:53.448880Z,1697902733448
0.03408026695251465,0.12280464172363281,1.8836650997400284E-4,2023-10-21T15:38:53.468993Z,1697902733468
0.06547927856445312,0.24200916290283203,2.1348986774683E-4,2023-10-21T15:38:53.489282Z,1697902733489
0.0931553840637207,0.3550605773925781,4.21011820435524E-4,2023-10-21T15:38:53.509540Z,1697902733509
0.11584782600402832,0.4576835632324219,0.0010935831815004349,2023-10-21T15:38:53.532306Z,1697902733532
0.13309359550476074,0.5470209121704102,0.002386268228292465,2023-10-21T15:38:53.550009Z,1697902733549
0.1452031135559082,0.6218900680541992,0.004237085580825806,2023-10-21T15:38:53.570338Z,1697902733570
0.1530756950378418,0.6828689575195312,0.00633559376001358,2023-10-21T15:38:53.590557Z,1697902733590
0.15769553184509277,0.731266975402832,0.00824669748544693,2023-10-21T15:38:53.610794Z,1697902733610
0.159887433052063,0.7687778472900391,0.009556993842124939,2023-10-21T15:38:53.632019Z,1697902733631
0.16027367115020752,0.7971725463867188,0.010011211037635803,2023-10-21T15:38:53.651318Z,1697902733651
0.15917813777923584,0.8174247741699219,0.009533300995826721,2023-10-21T15:38:53.671637Z,1697902733671
0.156646728515625,0.8295631408691406,0.008209221065044403,2023-10-21T15:38:53.691826Z,1697902733691
0.15255892276763916,0.8328266143798828,0.006209351122379303,2023-10-21T15:38:53.715318Z,1697902733715
0.14683151245117188,0.8262100219726562,0.003749370574951172,2023-10-21T15:38:53.732339Z,1697902733732
0.13970983028411865,0.8099079132080078,9.93942841887474E-4,2023-10-21T15:38:53.752716Z,1697902733752
0.13173925876617432,0.7855701446533203,-0.001958504319190979,2023-10-21T15:38:53.772946Z,1697902733772
0.12329673767089844,0.7541522979736328,-0.004974968731403351,2023-10-21T15:38:53.793176Z,1697902733793
0.11430275440216064,0.7142524719238281,-0.00784832239151001,2023-10-21T15:38:53.814897Z,1697902733814
0.10423362255096436,0.6619100570678711,-0.01026277244091034,2023-10-21T15:38:53.833675Z,1697902733833
0.09253120422363281,0.5931739807128906,-0.011875584721565247,2023-10-21T15:38:53.853993Z,1697902733853
0.0791245698928833,0.5078659057617188,-0.012482017278671265,2023-10-21T15:38:53.874266Z,1697902733874
0.06451606750488281,0.4104595184326172,-0.012076318264007568,2023-10-21T15:38:53.894445Z,1697902733894
0.04954218864440918,0.3088054656982422,-0.010776221752166748,2023-10-21T15:38:53.915096Z,1697902733915
0.03512299060821533,0.21197223663330078,-0.008751094341278076,2023-10-21T15:38:53.934990Z,1697902733934
0.02196323871612549,0.12705135345458984,-0.006177425384521484,2023-10-21T15:38:53.955310Z,1697902733955
0.010497331619262695,0.057808876037597656,-0.0032756924629211426,2023-10-21T15:38:53.975499Z,1697902733975
9.111166000366211E-4,0.004757881164550781,-3.083944320678711E-4,2023-10-21T15:38:53.998460Z,1697902733998
-0.006464958190917969,-0.031983375549316406,0.0023466944694519043,2023-10-21T15:38:54.016036Z,1697902734016
-0.010826349258422852,-0.050736427307128906,0.004129469394683838,2023-10-21T15:38:54.036349Z,1697902734036
-0.010720968246459961,-0.047641754150390625,0.004249989986419678,2023-10-21T15:38:54.056579Z,1697902734056
-0.004707813262939453,-0.019891738891601562,0.0019200444221496582,2023-10-21T15:38:54.076843Z,1697902734076
0.007934331893920898,0.03197002410888672,-0.0032886862754821777,2023-10-21T15:38:54.098350Z,1697902734098
0.026538610458374023,0.10225582122802734,-0.011021733283996582,2023-10-21T15:38:54.117367Z,1697902734117
0.04919934272766113,0.18164825439453125,-0.02017223834991455,2023-10-21T15:38:54.137683Z,1697902734137
0.07343864440917969,0.26015758514404297,-0.029333829879760742,2023-10-21T15:38:54.157865Z,1697902734157
0.09706616401672363,0.3304481506347656,-0.037384867668151855,2023-10-21T15:38:54.178105Z,1697902734178
0.11906313896179199,0.39026927947998047,-0.04386734962463379,2023-10-21T15:38:54.198454Z,1697902734198
0.13923287391662598,0.44026756286621094,-0.048725008964538574,2023-10-21T15:38:54.218715Z,1697902734218
0.15777206420898438,0.4822816848754883,-0.052080392837524414,2023-10-21T15:38:54.238984Z,1697902734238
0.1744384765625,0.5166082382202148,-0.05395245552062988,2023-10-21T15:38:54.259185Z,1697902734259
0.18874549865722656,0.5426263809204102,-0.0543980598449707,2023-10-21T15:38:54.281824Z,1697902734281
0.20022869110107422,0.5598945617675781,-0.05364346504211426,2023-10-21T15:38:54.299763Z,1697902734299
0.20904850959777832,0.569976806640625,-0.052138686180114746,2023-10-21T15:38:54.320093Z,1697902734320
0.21612048149108887,0.576350212097168,-0.0503849983215332,2023-10-21T15:38:54.340314Z,1697902734340
0.22294974327087402,0.5835657119750977,-0.04877418279647827,2023-10-21T15:38:54.360569Z,1697902734360
0.23077034950256348,0.594731330871582,-0.04747968912124634,2023-10-21T15:38:54.380779Z,1697902734380
0.23957443237304688,0.6095361709594727,-0.046388447284698486,2023-10-21T15:38:54.401184Z,1697902734401
0.2480769157409668,0.624603271484375,-0.0452197790145874,2023-10-21T15:38:54.421377Z,1697902734421
0.25422215461730957,0.6347179412841797,-0.04364806413650513,2023-10-21T15:38:54.441588Z,1697902734441
0.25632190704345703,0.6356544494628906,-0.04150748252868652,2023-10-21T15:38:54.464840Z,1697902734464
0.25353121757507324,0.6253824234008789,-0.03882575035095215,2023-10-21T15:38:54.482158Z,1697902734482
0.24586892127990723,0.6042842864990234,-0.035728394985198975,2023-10-21T15:38:54.502448Z,1697902734502
0.23360919952392578,0.573359489440918,-0.03230905532836914,2023-10-21T15:38:54.522733Z,1697902734522
0.21677327156066895,0.5327386856079102,-0.028540730476379395,2023-10-21T15:38:54.542944Z,1697902734542
0.19485831260681152,0.4809226989746094,-0.024355143308639526,2023-10-21T15:38:54.565357Z,1697902734565
0.1676490306854248,0.4166707992553711,-0.019827544689178467,2023-10-21T15:38:54.583502Z,1697902734583
0.13576149940490723,0.3406963348388672,-0.015198945999145508,2023-10-21T15:38:54.603793Z,1697902734603
0.10139250755310059,0.2576618194580078,-0.010818272829055786,2023-10-21T15:38:54.624082Z,1697902734624
0.0677955150604248,0.17501258850097656,-0.006972998380661011,2023-10-21T15:38:54.644193Z,1697902734644
0.03840494155883789,0.1010446548461914,-0.0038511157035827637,2023-10-21T15:38:54.664699Z,1697902734664
0.015641212463378906,0.04206085205078125,-0.0015443265438079834,2023-10-21T15:38:54.684857Z,1697902734684
2.3412704467773438E-4,6.437301635742188E-4,-2.250075340270996E-5,2023-10-21T15:38:54.705139Z,1697902734705
-0.00781869888305664,-0.02209949493408203,7.713437080383301E-4,2023-10-21T15:38:54.725393Z,1697902734725
-0.00826883316040039,-0.024033546447753906,8.303821086883545E-4,2023-10-21T15:38:54.748159Z,1697902734748
-6.666183471679688E-4,-0.0019979476928710938,6.890296936035156E-5,2023-10-21T15:38:54.765890Z,1697902734765
0.013988733291625977,0.04336738586425781,-0.001500636339187622,2023-10-21T15:38:54.786219Z,1697902734786
0.033330678939819336,0.10735893249511719,-0.0036793947219848633,2023-10-21T15:38:54.806459Z,1697902734806
0.05397629737854004,0.18134403228759766,-0.00603911280632019,2023-10-21T15:38:54.826601Z,1697902734826
0.07325863838195801,0.25761890411376953,-0.008180171251296997,2023-10-21T15:38:54.847752Z,1697902734847
0.0891427993774414,0.32916259765625,-0.009855538606643677,2023-10-21T15:38:54.867171Z,1697902734867
0.10037517547607422,0.39073848724365234,-0.011000454425811768,2023-10-21T15:38:54.887442Z,1697902734887
0.10665035247802734,0.43968963623046875,-0.011703699827194214,2023-10-21T15:38:54.907720Z,1697902734907
0.1083531379699707,0.4751739501953125,-0.01213747262954712,2023-10-21T15:38:54.927826Z,1697902734927
0.10593867301940918,0.49604034423828125,-0.012450814247131348,2023-10-21T15:38:54.948158Z,1697902734948
0.10007119178771973,0.5018033981323242,-0.012775003910064697,2023-10-21T15:38:54.968479Z,1697902734968
0.09212470054626465,0.49567222595214844,-0.013288915157318115,2023-10-21T15:38:54.988726Z,1697902734988
0.0838385820388794,0.48421382904052734,-0.014196187257766724,2023-10-21T15:38:55.008954Z,1697902735008
0.07675731182098389,0.4753713607788086,-0.015681833028793335,2023-10-21T15:38:55.031097Z,1697902735031
0.07146799564361572,0.4736623764038086,-0.017838507890701294,2023-10-21T15:38:55.049516Z,1697902735049
0.06793630123138428,0.48058605194091797,-0.020659536123275757,2023-10-21T15:38:55.069837Z,1697902735069
0.06584131717681885,0.4955453872680664,-0.024083703756332397,2023-10-21T15:38:55.090046Z,1697902735089
0.06481850147247314,0.5172233581542969,-0.02799522876739502,2023-10-21T15:38:55.110310Z,1697902735110
0.06442296504974365,0.5435009002685547,-0.03221315145492554,2023-10-21T15:38:55.131047Z,1697902735131
0.06423604488372803,0.5719070434570312,-0.03654354810714722,2023-10-21T15:38:55.150853Z,1697902735150
0.06382977962493896,0.5989351272583008,-0.04071134328842163,2023-10-21T15:38:55.171190Z,1697902735171
0.06290942430496216,0.6212310791015625,-0.04444456100463867,2023-10-21T15:38:55.191436Z,1697902735191
0.06125837564468384,0.6351613998413086,-0.04742676019668579,2023-10-21T15:38:55.214316Z,1697902735214
0.05879086256027222,0.638005256652832,-0.04943954944610596,2023-10-21T15:38:55.231874Z,1697902735231
0.05538380146026611,0.6255998611450195,-0.05018305778503418,2023-10-21T15:38:55.252207Z,1697902735252
0.05099231004714966,0.5943603515625,-0.04935431480407715,2023-10-21T15:38:55.272457Z,1697902735272
0.0459023118019104,0.5449371337890625,-0.04695206880569458,2023-10-21T15:38:55.292732Z,1697902735292
0.040540874004364014,0.4822988510131836,-0.04325377941131592,2023-10-21T15:38:55.314631Z,1697902735314
0.03538787364959717,0.4146709442138672,-0.03878378868103027,2023-10-21T15:38:55.333242Z,1697902735333
0.03069615364074707,0.3486909866333008,-0.03396177291870117,2023-10-21T15:38:55.353525Z,1697902735353
0.026608765125274658,0.2894001007080078,-0.02918875217437744,2023-10-21T15:38:55.373714Z,1697902735373
0.023244917392730713,0.2398824691772461,-0.024835586547851562,2023-10-21T15:38:55.393925Z,1697902735393
0.020745396614074707,0.2021808624267578,-0.021245241165161133,2023-10-21T15:38:55.414294Z,1697902735414
0.01921403408050537,0.1767892837524414,-0.01858806610107422,2023-10-21T15:38:55.434584Z,1697902735434
0.019004106521606445,0.16561508178710938,-0.01713395118713379,2023-10-21T15:38:55.454851Z,1697902735454
0.020520925521850586,0.17029094696044922,-0.016999661922454834,2023-10-21T15:38:55.475033Z,1697902735474
0.023796677589416504,0.18933677673339844,-0.017840683460235596,2023-10-21T15:38:55.497276Z,1697902735497
0.028361082077026367,0.2178630828857422,-0.01890575885772705,2023-10-21T15:38:55.515599Z,1697902735515
0.0333249568939209,0.2486886978149414,-0.01933419704437256,2023-10-21T15:38:55.535891Z,1697902735535
0.03802156448364258,0.27684879302978516,-0.01871436834335327,2023-10-21T15:38:55.556127Z,1697902735556
0.042148590087890625,0.3001117706298828,-0.017071127891540527,2023-10-21T15:38:55.576430Z,1697902735576
0.04569530487060547,0.31855106353759766,-0.014668583869934082,2023-10-21T15:38:55.597351Z,1697902735597
0.0488051176071167,0.3332252502441406,-0.011814981698989868,2023-10-21T15:38:55.616902Z,1697902735616
0.05177009105682373,0.3459482192993164,-0.008752703666687012,2023-10-21T15:38:55.637253Z,1697902735637
0.054949402809143066,0.3586702346801758,-0.00561930239200592,2023-10-21T15:38:55.657371Z,1697902735657
0.05877351760864258,0.3739013671875,-0.0024778470396995544,2023-10-21T15:38:55.680645Z,1697902735680
0.06366598606109619,0.3941154479980469,6.972644478082657E-4,2023-10-21T15:38:55.697928Z,1697902735697
0.06986379623413086,0.42052364349365234,0.003998257219791412,2023-10-21T15:38:55.718320Z,1697902735718
0.07721710205078125,0.45188236236572266,0.007541432976722717,2023-10-21T15:38:55.738593Z,1697902735738
0.08536183834075928,0.48586082458496094,0.011404767632484436,2023-10-21T15:38:55.758724Z,1697902735758
0.09384405612945557,0.5198192596435547,0.015601187944412231,2023-10-21T15:38:55.780274Z,1697902735780
0.1023714542388916,0.5520000457763672,0.02009028196334839,2023-10-21T15:38:55.799297Z,1697902735799
0.1109170913696289,0.5819759368896484,0.024775266647338867,2023-10-21T15:38:55.819574Z,1697902735819
0.11954677104949951,0.6100006103515625,0.02954050898551941,2023-10-21T15:38:55.839792Z,1697902735839
0.12817764282226562,0.6361227035522461,0.034238994121551514,2023-10-21T15:38:55.859976Z,1697902735859
0.13649225234985352,0.6593408584594727,0.038736581802368164,2023-10-21T15:38:55.880568Z,1697902735880
0.1438758373260498,0.6770782470703125,0.04288887977600098,2023-10-21T15:38:55.900661Z,1697902735900
0.14987754821777344,0.6871709823608398,0.04654228687286377,2023-10-21T15:38:55.920913Z,1697902735920
0.15456652641296387,0.6897258758544922,0.049605488777160645,2023-10-21T15:38:55.941095Z,1697902735941
0.15844082832336426,0.6868715286254883,0.05206608772277832,2023-10-21T15:38:55.963808Z,1697902735963
0.16208291053771973,0.6810951232910156,0.0539589524269104,2023-10-21T15:38:55.981652Z,1697902735981
0.16564226150512695,0.6731481552124023,0.055264949798583984,2023-10-21T15:38:56.001957Z,1697902736001
0.16884112358093262,0.6621694564819336,0.05590462684631348,2023-10-21T15:38:56.022170Z,1697902736022
0.17122149467468262,0.6468515396118164,0.05578899383544922,2023-10-21T15:38:56.042420Z,1697902736042
0.17245769500732422,0.6267671585083008,0.05494445562362671,2023-10-21T15:38:56.063659Z,1697902736063
0.17219161987304688,0.6016559600830078,0.053394198417663574,2023-10-21T15:38:56.083019Z,1697902736082
0.1701796054840088,0.5717649459838867,0.05117690563201904,2023-10-21T15:38:56.103300Z,1697902736103
0.16618990898132324,0.5374479293823242,0.04831337928771973,2023-10-21T15:38:56.123532Z,1697902736123
0.16005158424377441,0.49921321868896484,0.04486316442489624,2023-10-21T15:38:56.147022Z,1697902736146
0.15144681930541992,0.4569244384765625,0.04087942838668823,2023-10-21T15:38:56.164130Z,1697902736164
0.14012670516967773,0.4103832244873047,0.03647202253341675,2023-10-21T15:38:56.184389Z,1697902736184
0.12618112564086914,0.36006832122802734,0.03179103136062622,2023-10-21T15:38:56.204625Z,1697902736204
0.11024069786071777,0.30773067474365234,0.027046024799346924,2023-10-21T15:38:56.224800Z,1697902736224
0.09334230422973633,0.2559680938720703,0.02247411012649536,2023-10-21T15:38:56.247030Z,1697902736246
0.07638406753540039,0.20666122436523438,0.018204331398010254,2023-10-21T15:38:56.265346Z,1697902736265
0.060224056243896484,0.16141605377197266,0.014339804649353027,2023-10-21T15:38:56.285673Z,1697902736285
0.04549288749694824,0.12127017974853516,0.010921657085418701,2023-10-21T15:38:56.305897Z,1697902736305
0.03228950500488281,0.08595752716064453,0.007893204689025879,2023-10-21T15:38:56.326092Z,1697902736326
0.02026844024658203,0.054123878479003906,0.005105316638946533,2023-10-21T15:38:56.346719Z,1697902736346
0.009108304977416992,0.02451038360595703,0.002393662929534912,2023-10-21T15:38:56.366692Z,1697902736366
-9.775161743164062E-4,-0.0026607513427734375,-2.7066469192504883E-4,2023-10-21T15:38:56.387066Z,1697902736386
-0.009190559387207031,-0.025429725646972656,-0.002707362174987793,2023-10-21T15:38:56.407214Z,1697902736407
-0.014890670776367188,-0.04204845428466797,-0.0046765804290771484,2023-10-21T15:38:56.430205Z,1697902736430
-0.01801609992980957,-0.05214405059814453,-0.00604403018951416,2023-10-21T15:38:56.447730Z,1697902736447
-0.01906609535217285,-0.056786537170410156,-0.006834983825683594,2023-10-21T15:38:56.468020Z,1697902736467
-0.018744230270385742,-0.057663917541503906,-0.007176756858825684,2023-10-21T15:38:56.488314Z,1697902736488
-0.01763606071472168,-0.056265830993652344,-0.007208824157714844,2023-10-21T15:38:56.508516Z,1697902736508
-0.016049861907958984,-0.053299903869628906,-0.006991863250732422,2023-10-21T15:38:56.529890Z,1697902736529
-0.013976097106933594,-0.04846477508544922,-0.006468653678894043,2023-10-21T15:38:56.549083Z,1697902736549
-0.01126551628112793,-0.040874481201171875,-0.0055065155029296875,2023-10-21T15:38:56.569387Z,1697902736569
-0.00775456428527832,-0.029449462890625,-0.003967165946960449,2023-10-21T15:38:56.589654Z,1697902736589
-0.0034995079040527344,-0.013890266418457031,-0.0018534660339355469,2023-10-21T15:38:56.609771Z,1697902736609
0.001294851303100586,0.005356788635253906,7.00831413269043E-4,2023-10-21T15:38:56.630178Z,1697902736630
0.006285429000854492,0.026940345764160156,0.0034209489822387695,2023-10-21T15:38:56.650433Z,1697902736650
0.011303901672363281,0.04985332489013672,0.0060596466064453125,2023-10-21T15:38:56.670643Z,1697902736670
0.016057252883911133,0.07225513458251953,0.008285760879516602,2023-10-21T15:38:56.690866Z,1697902736690
0.020266056060791016,0.09226417541503906,0.00982356071472168,2023-10-21T15:38:56.713250Z,1697902736713
0.02379298210144043,0.10858440399169922,0.010534048080444336,2023-10-21T15:38:56.731416Z,1697902736731
0.026637554168701172,0.12074756622314453,0.010420024394989014,2023-10-21T15:38:56.751742Z,1697902736751
0.029013395309448242,0.12963390350341797,0.009629011154174805,2023-10-21T15:38:56.771952Z,1697902736771
0.0310823917388916,0.1362323760986328,0.008308649063110352,2023-10-21T15:38:56.792213Z,1697902736792
0.03301239013671875,0.14161109924316406,0.006583482027053833,2023-10-21T15:38:56.813156Z,1697902736813
0.03527402877807617,0.1479778289794922,0.004564493894577026,2023-10-21T15:38:56.832740Z,1697902736832
0.03860783576965332,0.15827083587646484,0.0022351592779159546,2023-10-21T15:38:56.853055Z,1697902736853
0.043683767318725586,0.17474079132080078,-6.197169423103333E-4,2023-10-21T15:38:56.873302Z,1697902736873
0.05084514617919922,0.1981048583984375,-0.004341751337051392,2023-10-21T15:38:56.896448Z,1697902736896
0.06009340286254883,0.22766971588134766,-0.00927010178565979,2023-10-21T15:38:56.913781Z,1697902736913
0.07106685638427734,0.2616157531738281,-0.015613794326782227,2023-10-21T15:38:56.934152Z,1697902736934
0.08324742317199707,0.2979288101196289,-0.023395299911499023,2023-10-21T15:38:56.954383Z,1697902736954
0.09605741500854492,0.3346090316772461,-0.03244352340698242,2023-10-21T15:38:56.974548Z,1697902736974
0.1090097427368164,0.37000465393066406,-0.04244339466094971,2023-10-21T15:38:56.996629Z,1697902736996
0.12164878845214844,0.40262794494628906,-0.05293869972229004,2023-10-21T15:38:57.015142Z,1697902737015
0.1330876350402832,0.4299135208129883,-0.06314408779144287,2023-10-21T15:38:57.035442Z,1697902737035
0.14227819442749023,0.4495048522949219,-0.07216513156890869,2023-10-21T15:38:57.055614Z,1697902737055
0.14863061904907227,0.46074962615966797,-0.07941126823425293,2023-10-21T15:38:57.075805Z,1697902737075
0.15253067016601562,0.46595191955566406,-0.08499395847320557,2023-10-21T15:38:57.096217Z,1697902737096
0.15475749969482422,0.46832942962646484,-0.08939075469970703,2023-10-21T15:38:57.116470Z,1697902737116
0.1558842658996582,0.47013378143310547,-0.09293520450592041,2023-10-21T15:38:57.136719Z,1697902737136
0.15615367889404297,0.4722909927368164,-0.09573841094970703,2023-10-21T15:38:57.156931Z,1697902737156
0.15560531616210938,0.47482967376708984,-0.09775280952453613,2023-10-21T15:38:57.179552Z,1697902737179
0.15458106994628906,0.4785728454589844,-0.09917068481445312,2023-10-21T15:38:57.197484Z,1697902737197
0.15335369110107422,0.4842557907104492,-0.10022377967834473,2023-10-21T15:38:57.217810Z,1697902737217
0.15200066566467285,0.4922142028808594,-0.10104727745056152,2023-10-21T15:38:57.238067Z,1697902737238
0.15023207664489746,0.5014810562133789,-0.10148096084594727,2023-10-21T15:38:57.258277Z,1697902737258
0.14777207374572754,0.5106792449951172,-0.10126614570617676,2023-10-21T15:38:57.279467Z,1697902737279
0.14438152313232422,0.5180282592773438,-0.10010874271392822,2023-10-21T15:38:57.298828Z,1697902737298
0.1399383544921875,0.5218706130981445,-0.09778594970703125,2023-10-21T15:38:57.319140Z,1697902737319
0.1345062255859375,0.521214485168457,-0.09427070617675781,2023-10-21T15:38:57.339370Z,1697902737339
0.12826943397521973,0.5159006118774414,-0.08969271183013916,2023-10-21T15:38:57.362824Z,1697902737362
0.1215364933013916,0.5064859390258789,-0.08432519435882568,2023-10-21T15:38:57.379879Z,1697902737379
0.11435556411743164,0.4929389953613281,-0.07831072807312012,2023-10-21T15:38:57.400161Z,1697902737400
0.10666966438293457,0.47501468658447266,-0.07178282737731934,2023-10-21T15:38:57.420566Z,1697902737420
0.09867358207702637,0.45340538024902344,-0.0650249719619751,2023-10-21T15:38:57.440703Z,1697902737440
0.09086847305297852,0.4303121566772461,-0.058521270751953125,2023-10-21T15:38:57.463075Z,1697902737463
0.08360898494720459,0.4075651168823242,-0.05259060859680176,2023-10-21T15:38:57.481189Z,1697902737481
0.07706749439239502,0.3864889144897461,-0.04738008975982666,2023-10-21T15:38:57.501495Z,1697902737501
0.07144808769226074,0.3685483932495117,-0.04304301738739014,2023-10-21T15:38:57.521687Z,1697902737521
0.0672682523727417,0.3567171096801758,-0.03989887237548828,2023-10-21T15:38:57.541905Z,1697902737541
0.0649329423904419,0.353363037109375,-0.0381627082824707,2023-10-21T15:38:57.562715Z,1697902737562
0.0643453598022461,0.35843563079833984,-0.03774988651275635,2023-10-21T15:38:57.582545Z,1697902737582
0.06491959095001221,0.36900901794433594,-0.0382688045501709,2023-10-21T15:38:57.602814Z,1697902737602
0.06598162651062012,0.38117408752441406,-0.03923606872558594,2023-10-21T15:38:57.623003Z,1697902737622
0.06692385673522949,0.3912315368652344,-0.04022800922393799,2023-10-21T15:38:57.646Z,1697902737645
0.06736993789672852,0.3966836929321289,-0.040926575660705566,2023-10-21T15:38:57.663532Z,1697902737663
0.06718564033508301,0.3966226577758789,-0.041184186935424805,2023-10-21T15:38:57.683875Z,1697902737683
0.06653857231140137,0.39205169677734375,-0.041043639183044434,2023-10-21T15:38:57.704115Z,1697902737704
0.06574368476867676,0.3849906921386719,-0.04064309597015381,2023-10-21T15:38:57.724392Z,1697902737724
0.06494772434234619,0.37654876708984375,-0.04005396366119385,2023-10-21T15:38:57.746133Z,1697902737746
0.0641937255859375,0.36744117736816406,-0.039333462715148926,2023-10-21T15:38:57.764928Z,1697902737764
0.06350016593933105,0.35828590393066406,-0.03854656219482422,2023-10-21T15:38:57.785166Z,1697902737785
0.06300878524780273,0.3503093719482422,-0.03782987594604492,2023-10-21T15:38:57.805447Z,1697902737805
0.06290972232818604,0.34482479095458984,-0.037332892417907715,2023-10-21T15:38:57.825607Z,1697902737825
0.0632011890411377,0.3419647216796875,-0.037055134773254395,2023-10-21T15:38:57.845904Z,1697902737845
0.06366157531738281,0.34066200256347656,-0.03689539432525635,2023-10-21T15:38:57.866271Z,1697902737866
0.06401121616363525,0.33962440490722656,-0.03674781322479248,2023-10-21T15:38:57.886468Z,1697902737886
0.06420612335205078,0.33863258361816406,-0.03665351867675781,2023-10-21T15:38:57.906695Z,1697902737906
0.0644073486328125,0.33827781677246094,-0.036727309226989746,2023-10-21T15:38:57.929576Z,1697902737929
0.06472766399383545,0.33874034881591797,-0.037000060081481934,2023-10-21T15:38:57.947219Z,1697902737947
0.06502401828765869,0.33893585205078125,-0.03730881214141846,2023-10-21T15:38:57.967560Z,1697902737967
0.06517791748046875,0.33802127838134766,-0.03753530979156494,2023-10-21T15:38:57.987787Z,1697902737987
0.0652703046798706,0.33629608154296875,-0.03770601749420166,2023-10-21T15:38:58.007968Z,1697902738007
0.06559979915618896,0.3353233337402344,-0.038010239601135254,2023-10-21T15:38:58.029094Z,1697902738029
0.0663614273071289,0.3362874984741211,-0.03858828544616699,2023-10-21T15:38:58.048590Z,1697902738048
0.06755471229553223,0.3394784927368164,-0.03944385051727295,2023-10-21T15:38:58.068836Z,1697902738068
0.06906664371490479,0.3446073532104492,-0.04047286510467529,2023-10-21T15:38:58.089076Z,1697902738089
0.07062661647796631,0.3505697250366211,-0.04145193099975586,2023-10-21T15:38:58.112205Z,1697902738112
0.07195329666137695,0.3561391830444336,-0.04218435287475586,2023-10-21T15:38:58.129583Z,1697902738129
0.07295608520507812,0.36095523834228516,-0.04262542724609375,2023-10-21T15:38:58.149902Z,1697902738149
0.07365953922271729,0.3652381896972656,-0.04285728931427002,2023-10-21T15:38:58.170170Z,1697902738170
0.07420063018798828,0.3697347640991211,-0.04304611682891846,2023-10-21T15:38:58.190376Z,1697902738190
0.07454752922058105,0.37432193756103516,-0.043256402015686035,2023-10-21T15:38:58.212287Z,1697902738212
0.07448065280914307,0.3777904510498047,-0.043419718742370605,2023-10-21T15:38:58.230941Z,1697902738230
0.07396996021270752,0.3796195983886719,-0.043526530265808105,2023-10-21T15:38:58.251218Z,1697902738251
0.0731804370880127,0.3801717758178711,-0.043660759925842285,2023-10-21T15:38:58.271445Z,1697902738271
0.07237911224365234,0.38029003143310547,-0.04395020008087158,2023-10-21T15:38:58.291670Z,1697902738291
0.07175242900848389,0.38066673278808594,-0.04449820518493652,2023-10-21T15:38:58.312285Z,1697902738312
0.07128047943115234,0.3811635971069336,-0.045278072357177734,2023-10-21T15:38:58.332281Z,1697902738332
0.07085466384887695,0.3813505172729492,-0.046215057373046875,2023-10-21T15:38:58.352553Z,1697902738352
0.07039082050323486,0.3809642791748047,-0.04722940921783447,2023-10-21T15:38:58.372773Z,1697902738372
0.06981241703033447,0.37969303131103516,-0.04822111129760742,2023-10-21T15:38:58.395362Z,1697902738395
0.06913769245147705,0.3776893615722656,-0.04914236068725586,2023-10-21T15:38:58.413284Z,1697902738413
0.06839644908905029,0.3752279281616211,-0.049965858459472656,2023-10-21T15:38:58.433605Z,1697902738433
0.06767475605010986,0.37293052673339844,-0.05072212219238281,2023-10-21T15:38:58.453805Z,1697902738453
0.06712186336517334,0.3717212677001953,-0.05152463912963867,2023-10-21T15:38:58.474159Z,1697902738474
0.06680095195770264,0.3720884323120117,-0.05242955684661865,2023-10-21T15:38:58.495126Z,1697902738495
0.06667494773864746,0.3739738464355469,-0.053429245948791504,2023-10-21T15:38:58.514606Z,1697902738514
0.06664860248565674,0.3768796920776367,-0.05444777011871338,2023-10-21T15:38:58.534944Z,1697902738534
0.0666816234588623,0.38045501708984375,-0.0554424524307251,2023-10-21T15:38:58.555097Z,1697902738555
0.06691861152648926,0.3851804733276367,-0.05649888515472412,2023-10-21T15:38:58.575394Z,1697902738575
0.06750237941741943,0.3914651870727539,-0.05770599842071533,2023-10-21T15:38:58.595790Z,1697902738595
0.06846225261688232,0.3991260528564453,-0.05905318260192871,2023-10-21T15:38:58.615952Z,1697902738615
0.06975030899047852,0.4076271057128906,-0.06046175956726074,2023-10-21T15:38:58.636213Z,1697902738636
0.07117581367492676,0.4157876968383789,-0.061768174171447754,2023-10-21T15:38:58.656434Z,1697902738656
0.07258844375610352,0.42268943786621094,-0.0628441572189331,2023-10-21T15:38:58.678548Z,1697902738678
0.07388389110565186,0.4277801513671875,-0.06363523006439209,2023-10-21T15:38:58.696989Z,1697902738696
0.0750359296798706,0.43103885650634766,-0.06415259838104248,2023-10-21T15:38:58.717292Z,1697902738717
0.0761263370513916,0.4330892562866211,-0.0644991397857666,2023-10-21T15:38:58.737550Z,1697902738737
0.07719385623931885,0.4344902038574219,-0.06475257873535156,2023-10-21T15:38:58.757842Z,1697902738757
0.0782616138458252,0.43569183349609375,-0.06496298313140869,2023-10-21T15:38:58.778844Z,1697902738778
0.07935810089111328,0.4371042251586914,-0.06515669822692871,2023-10-21T15:38:58.798356Z,1697902738798
0.08049535751342773,0.43898582458496094,-0.0653526782989502,2023-10-21T15:38:58.818588Z,1697902738818
0.08176970481872559,0.44188499450683594,-0.0656130313873291,2023-10-21T15:38:58.838795Z,1697902738838
0.0832902193069458,0.4462757110595703,-0.06599831581115723,2023-10-21T15:38:58.861705Z,1697902738861
0.0851360559463501,0.4523963928222656,-0.06652998924255371,2023-10-21T15:38:58.879353Z,1697902738879
0.08734071254730225,0.46029090881347656,-0.06719398498535156,2023-10-21T15:38:58.899659Z,1697902738899
0.08984410762786865,0.4695301055908203,-0.06790709495544434,2023-10-21T15:38:58.919914Z,1697902738919
0.09255075454711914,0.47966480255126953,-0.06858396530151367,2023-10-21T15:38:58.940121Z,1697902738940
0.09531068801879883,0.48995208740234375,-0.06909799575805664,2023-10-21T15:38:58.961771Z,1697902738961
0.09786224365234375,0.4992179870605469,-0.06926727294921875,2023-10-21T15:38:58.980786Z,1697902738980
0.09999847412109375,0.5066213607788086,-0.06899189949035645,2023-10-21T15:38:59.001017Z,1697902739000
0.10158979892730713,0.5118875503540039,-0.06827747821807861,2023-10-21T15:38:59.021154Z,1697902739021
0.1025841236114502,0.5152101516723633,-0.06720101833343506,2023-10-21T15:38:59.041350Z,1697902739041
0.10294342041015625,0.5166873931884766,-0.06580746173858643,2023-10-21T15:38:59.061719Z,1697902739061
0.10252666473388672,0.5156288146972656,-0.06402719020843506,2023-10-21T15:38:59.082099Z,1697902739082
0.10130047798156738,0.5116367340087891,-0.06182527542114258,2023-10-21T15:38:59.102287Z,1697902739102
0.09939146041870117,0.5050296783447266,-0.05928921699523926,2023-10-21T15:38:59.122507Z,1697902739122
0.09690070152282715,0.4961509704589844,-0.05650484561920166,2023-10-21T15:38:59.144980Z,1697902739144
0.09390544891357422,0.48531627655029297,-0.05353689193725586,2023-10-21T15:38:59.163031Z,1697902739162
0.09034895896911621,0.4722127914428711,-0.0503535270690918,2023-10-21T15:38:59.183374Z,1697902739183
0.08612537384033203,0.4560546875,-0.046857357025146484,2023-10-21T15:38:59.203577Z,1697902739203
0.08129072189331055,0.4365549087524414,-0.043030619621276855,2023-10-21T15:38:59.223770Z,1697902739223
0.0760413408279419,0.41406726837158203,-0.03896200656890869,2023-10-21T15:38:59.244699Z,1697902739244
0.07081747055053711,0.3905153274536133,-0.0349043607711792,2023-10-21T15:38:59.264355Z,1697902739264
0.06607341766357422,0.3685274124145508,-0.031126976013183594,2023-10-21T15:38:59.284671Z,1697902739284
0.06210768222808838,0.35024070739746094,-0.02779686450958252,2023-10-21T15:38:59.304896Z,1697902739304
0.05891072750091553,0.3360280990600586,-0.024872779846191406,2023-10-21T15:38:59.328083Z,1697902739328
0.05626487731933594,0.324737548828125,-0.022200584411621094,2023-10-21T15:38:59.345381Z,1697902739345
0.05392611026763916,0.31487178802490234,-0.019623875617980957,2023-10-21T15:38:59.365743Z,1697902739365
0.05182087421417236,0.3058004379272461,-0.01711404323577881,2023-10-21T15:38:59.385952Z,1697902739385
0.050032854080200195,0.29798221588134766,-0.014730632305145264,2023-10-21T15:38:59.406183Z,1697902739406
0.04862236976623535,0.29183292388916016,-0.012526363134384155,2023-10-21T15:38:59.427906Z,1697902739427
0.04747211933135986,0.28670310974121094,-0.010476440191268921,2023-10-21T15:38:59.446739Z,1697902739446
0.04629158973693848,0.28087902069091797,-0.008524537086486816,2023-10-21T15:38:59.467042Z,1697902739466
0.04479217529296875,0.2726011276245117,-0.006640180945396423,2023-10-21T15:38:59.487259Z,1697902739487
0.042759060859680176,0.2603931427001953,-0.004829272627830505,2023-10-21T15:38:59.507429Z,1697902739507
0.04012775421142578,0.24378395080566406,-0.0031427592039108276,2023-10-21T15:38:59.527914Z,1697902739527
0.03695249557495117,0.22313594818115234,-0.0016445443034172058,2023-10-21T15:38:59.548234Z,1697902739548
0.03344523906707764,0.20000839233398438,-4.152432084083557E-4,2023-10-21T15:38:59.568425Z,1697902739568
0.029945850372314453,0.1768321990966797,5.17774373292923E-4,2023-10-21T15:38:59.588607Z,1697902739588
0.026743769645690918,0.15563297271728516,0.001186467707157135,2023-10-21T15:38:59.611148Z,1697902739611
0.024008870124816895,0.1375732421875,0.0016643553972244263,2023-10-21T15:38:59.629144Z,1697902739629
0.021889209747314453,0.1234750747680664,0.002029910683631897,2023-10-21T15:38:59.649438Z,1697902739649
0.020515799522399902,0.11394214630126953,0.0023655444383621216,2023-10-21T15:38:59.669653Z,1697902739669
0.02005159854888916,0.10967636108398438,0.002747267484664917,2023-10-21T15:38:59.689865Z,1697902739689
0.020620107650756836,0.11116504669189453,0.0032492876052856445,2023-10-21T15:38:59.711173Z,1697902739711
0.022243261337280273,0.11841201782226562,0.003934413194656372,2023-10-21T15:38:59.730614Z,1697902739730
0.024834513664245605,0.13091754913330078,0.004845976829528809,2023-10-21T15:38:59.750789Z,1697902739750
0.02794039249420166,0.14633655548095703,0.005942404270172119,2023-10-21T15:38:59.770980Z,1697902739770
0.030902504920959473,0.16120624542236328,0.007104277610778809,2023-10-21T15:38:59.791109Z,1697902739791
0.03311920166015625,0.1722412109375,0.008159458637237549,2023-10-21T15:38:59.811509Z,1697902739811
0.03438925743103027,0.17821216583251953,0.008985340595245361,2023-10-21T15:38:59.831801Z,1697902739831
0.03485977649688721,0.17985153198242188,0.009550690650939941,2023-10-21T15:38:59.852020Z,1697902739851
0.034691572189331055,0.17815876007080078,0.00985860824584961,2023-10-21T15:38:59.872267Z,1697902739872
0.03392648696899414,0.17348480224609375,0.00991755723953247,2023-10-21T15:38:59.894235Z,1697902739894
0.03256666660308838,0.16593647003173828,0.009744584560394287,2023-10-21T15:38:59.912810Z,1697902739912
0.0306549072265625,0.1557331085205078,0.009358763694763184,2023-10-21T15:38:59.933127Z,1697902739933
0.02842247486114502,0.14398956298828125,0.008825123310089111,2023-10-21T15:38:59.953319Z,1697902739953
0.026302814483642578,0.1329059600830078,0.00827169418334961,2023-10-21T15:38:59.973564Z,1697902739973
0.02479374408721924,0.1250143051147461,0.007861614227294922,2023-10-21T15:38:59.994391Z,1697902739994
0.024333715438842773,0.12262535095214844,0.007759153842926025,2023-10-21T15:39:00.014211Z,1697902740014
0.025037527084350586,0.12636756896972656,0.00802236795425415,2023-10-21T15:39:00.034464Z,1697902740034
0.026683807373046875,0.13525772094726562,0.008604884147644043,2023-10-21T15:39:00.054704Z,1697902740054
0.028960108757019043,0.14776897430419922,0.009424924850463867,2023-10-21T15:39:00.077881Z,1697902740077
0.03156411647796631,0.16242408752441406,0.010385215282440186,2023-10-21T15:39:00.095160Z,1697902740095
0.034278273582458496,0.17812824249267578,0.011397480964660645,2023-10-21T15:39:00.115479Z,1697902740115
0.037027955055236816,0.19449901580810547,0.012400627136230469,2023-10-21T15:39:00.135737Z,1697902740135
0.039725661277770996,0.2111215591430664,0.013340115547180176,2023-10-21T15:39:00.155966Z,1697902740155
0.0423130989074707,0.22771072387695312,0.014167368412017822,2023-10-21T15:39:00.177478Z,1697902740177
0.044727206230163574,0.2439289093017578,0.014838159084320068,2023-10-21T15:39:00.196566Z,1697902740196
0.0469355583190918,0.25955772399902344,0.0153275728225708,2023-10-21T15:39:00.216804Z,1697902740216
0.048949480056762695,0.2746458053588867,0.015625357627868652,2023-10-21T15:39:00.237004Z,1697902740236
0.05072438716888428,0.2889699935913086,0.015713036060333252,2023-10-21T15:39:00.257349Z,1697902740257
0.052169084548950195,0.3020515441894531,0.015569329261779785,2023-10-21T15:39:00.277663Z,1697902740277
0.053125858306884766,0.31299591064453125,0.015173196792602539,2023-10-21T15:39:00.297839Z,1697902740297
0.05348765850067139,0.3210878372192383,0.01453438401222229,2023-10-21T15:39:00.318099Z,1697902740318
0.053223252296447754,0.3259105682373047,0.013672173023223877,2023-10-21T15:39:00.338380Z,1697902740338
0.05242645740509033,0.32764434814453125,0.01262366771697998,2023-10-21T15:39:00.361056Z,1697902740361
0.05137145519256592,0.3275442123413086,0.01143556833267212,2023-10-21T15:39:00.378893Z,1697902740378
0.05035114288330078,0.32717037200927734,0.010160356760025024,2023-10-21T15:39:00.399175Z,1697902740399
0.04950225353240967,0.32714271545410156,0.008818238973617554,2023-10-21T15:39:00.419428Z,1697902740419
0.048797607421875,0.3270416259765625,0.007412448525428772,2023-10-21T15:39:00.439667Z,1697902740439
0.04818391799926758,0.3262605667114258,0.005950525403022766,2023-10-21T15:39:00.460406Z,1697902740460
0.04774057865142822,0.3249521255493164,0.004441022872924805,2023-10-21T15:39:00.480221Z,1697902740480
0.04769265651702881,0.32431983947753906,0.002876192331314087,2023-10-21T15:39:00.500504Z,1697902740500
0.04821276664733887,0.3254117965698242,0.0012097805738449097,2023-10-21T15:39:00.520801Z,1697902740520
0.049364686012268066,0.3286876678466797,-6.157867610454559E-4,2023-10-21T15:39:00.543973Z,1697902740543
0.0510711669921875,0.3338298797607422,-0.0026423558592796326,2023-10-21T15:39:00.561355Z,1697902740561
0.05307972431182861,0.33945369720458984,-0.0048587024211883545,2023-10-21T15:39:00.581561Z,1697902740581
0.055117011070251465,0.3440093994140625,-0.007204756140708923,2023-10-21T15:39:00.601809Z,1697902740601
0.057021498680114746,0.34674549102783203,-0.009614109992980957,2023-10-21T15:39:00.621995Z,1697902740621
0.058769941329956055,0.34777355194091797,-0.012056946754455566,2023-10-21T15:39:00.643611Z,1697902740643
0.06042194366455078,0.3476371765136719,-0.014523476362228394,2023-10-21T15:39:00.662553Z,1697902740662
0.06203436851501465,0.3469247817993164,-0.017011284828186035,2023-10-21T15:39:00.682889Z,1697902740682
0.06358063220977783,0.34578990936279297,-0.019482791423797607,2023-10-21T15:39:00.703207Z,1697902740703
0.06496167182922363,0.34386634826660156,-0.02184349298477173,2023-10-21T15:39:00.723302Z,1697902740723
0.06593048572540283,0.33992481231689453,-0.02392178773880005,2023-10-21T15:39:00.743719Z,1697902740743
0.06629443168640137,0.33302974700927734,-0.025567233562469482,2023-10-21T15:39:00.763871Z,1697902740763
0.06606173515319824,0.3233213424682617,-0.026737987995147705,2023-10-21T15:39:00.784160Z,1697902740784
0.06551289558410645,0.3123750686645508,-0.027557313442230225,2023-10-21T15:39:00.804401Z,1697902740804
0.06492042541503906,0.30172252655029297,-0.028188347816467285,2023-10-21T15:39:00.826960Z,1697902740826
0.06441617012023926,0.2921600341796875,-0.028731107711791992,2023-10-21T15:39:00.844951Z,1697902740844
0.06398248672485352,0.2837657928466797,-0.029227256774902344,2023-10-21T15:39:00.865246Z,1697902740865
0.06341338157653809,0.27577972412109375,-0.029611945152282715,2023-10-21T15:39:00.885542Z,1697902740885
0.0625605583190918,0.26761722564697266,-0.029854416847229004,2023-10-21T15:39:00.905684Z,1697902740905
0.06149911880493164,0.25965309143066406,-0.030024170875549316,2023-10-21T15:39:00.926833Z,1697902740926
0.060636043548583984,0.25360870361328125,-0.030359387397766113,2023-10-21T15:39:00.946311Z,1697902740946
0.0604248046875,0.25139427185058594,-0.0311204195022583,2023-10-21T15:39:00.966576Z,1697902740966
0.06088590621948242,0.253173828125,-0.03234660625457764,2023-10-21T15:39:00.986817Z,1697902740986
0.06151914596557617,0.25696849822998047,-0.033772826194763184,2023-10-21T15:39:01.010273Z,1697902741010
0.061815738677978516,0.2606220245361328,-0.035080790519714355,2023-10-21T15:39:01.027333Z,1697902741027
0.06163215637207031,0.2632770538330078,-0.036118507385253906,2023-10-21T15:39:01.047643Z,1697902741047
0.06122088432312012,0.26560211181640625,-0.0369797945022583,2023-10-21T15:39:01.067905Z,1697902741067
0.061005592346191406,0.26905345916748047,-0.03789854049682617,2023-10-21T15:39:01.088107Z,1697902741088
0.06121373176574707,0.2744436264038086,-0.039013028144836426,2023-10-21T15:39:01.110191Z,1697902741110
0.06177091598510742,0.28129005432128906,-0.040274620056152344,2023-10-21T15:39:01.128629Z,1697902741128
0.062417030334472656,0.28829383850097656,-0.041494131088256836,2023-10-21T15:39:01.148955Z,1697902741148
0.06290769577026367,0.29409122467041016,-0.04250049591064453,2023-10-21T15:39:01.169179Z,1697902741169
0.06326460838317871,0.29843616485595703,-0.04329192638397217,2023-10-21T15:39:01.189350Z,1697902741189
0.06377696990966797,0.30231666564941406,-0.044086575508117676,2023-10-21T15:39:01.210149Z,1697902741210
0.06483602523803711,0.30737781524658203,-0.04520082473754883,2023-10-21T15:39:01.230154Z,1697902741230
0.06675481796264648,0.3150596618652344,-0.046915292739868164,2023-10-21T15:39:01.250282Z,1697902741250
0.06962943077087402,0.3259315490722656,-0.04935348033905029,2023-10-21T15:39:01.270444Z,1697902741270
0.07343935966491699,0.34002017974853516,-0.05253279209136963,2023-10-21T15:39:01.293434Z,1697902741293
0.07809591293334961,0.3569784164428711,-0.05639481544494629,2023-10-21T15:39:01.311015Z,1697902741310
0.08359670639038086,0.3768186569213867,-0.060944557189941406,2023-10-21T15:39:01.331296Z,1697902741331
0.09002351760864258,0.39986324310302734,-0.0662463903427124,2023-10-21T15:39:01.351523Z,1697902741351
0.0973668098449707,0.42598628997802734,-0.07227611541748047,2023-10-21T15:39:01.371768Z,1697902741371
0.10550594329833984,0.45467281341552734,-0.07892858982086182,2023-10-21T15:39:01.393292Z,1697902741393
0.11412191390991211,0.4846992492675781,-0.08592855930328369,2023-10-21T15:39:01.412337Z,1697902741412
0.12275362014770508,0.5143766403198242,-0.09290075302124023,2023-10-21T15:39:01.432636Z,1697902741432
0.1309375762939453,0.5420494079589844,-0.09945857524871826,2023-10-21T15:39:01.452810Z,1697902741452
0.13832831382751465,0.5664100646972656,-0.10532224178314209,2023-10-21T15:39:01.472993Z,1697902741472
0.1447582244873047,0.5868539810180664,-0.11038470268249512,2023-10-21T15:39:01.493364Z,1697902741493
0.1503133773803711,0.6038856506347656,-0.11477959156036377,2023-10-21T15:39:01.513708Z,1697902741513
0.15508723258972168,0.6180915832519531,-0.11864256858825684,2023-10-21T15:39:01.533890Z,1697902741533
0.15897274017333984,0.6293678283691406,-0.12193822860717773,2023-10-21T15:39:01.554137Z,1697902741554
0.16182208061218262,0.6374197006225586,-0.1245734691619873,2023-10-21T15:39:01.576538Z,1697902741576
0.16346073150634766,0.6418647766113281,-0.12644076347351074,2023-10-21T15:39:01.594694Z,1697902741594
0.16402316093444824,0.6435079574584961,-0.1276850700378418,2023-10-21T15:39:01.615038Z,1697902741614
0.16376686096191406,0.643524169921875,-0.1285254955291748,2023-10-21T15:39:01.635233Z,1697902741635
0.16278648376464844,0.6425075531005859,-0.12905550003051758,2023-10-21T15:39:01.655528Z,1697902741655
0.1610555648803711,0.6406259536743164,-0.12922215461730957,2023-10-21T15:39:01.676426Z,1697902741676
0.15842938423156738,0.6375541687011719,-0.12886595726013184,2023-10-21T15:39:01.696025Z,1697902741695
0.154801607131958,0.632777214050293,-0.12781023979187012,2023-10-21T15:39:01.716335Z,1697902741716
0.15019559860229492,0.6261320114135742,-0.12599849700927734,2023-10-21T15:39:01.736547Z,1697902741736
0.14484810829162598,0.6181507110595703,-0.12357926368713379,2023-10-21T15:39:01.759766Z,1697902741759
0.13901710510253906,0.6094903945922852,-0.12073636054992676,2023-10-21T15:39:01.777048Z,1697902741777
0.13295769691467285,0.600855827331543,-0.11765778064727783,2023-10-21T15:39:01.797371Z,1697902741797
0.12678265571594238,0.5922727584838867,-0.11438345909118652,2023-10-21T15:39:01.817605Z,1697902741817
0.12055015563964844,0.5837039947509766,-0.11092674732208252,2023-10-21T15:39:01.837841Z,1697902741837
0.1143655776977539,0.5752449035644531,-0.10733699798583984,2023-10-21T15:39:01.859571Z,1697902741859
0.10839664936065674,0.5673456192016602,-0.10376107692718506,2023-10-21T15:39:01.878453Z,1697902741878
0.10290312767028809,0.5609340667724609,-0.10040950775146484,2023-10-21T15:39:01.898709Z,1697902741898
0.09817147254943848,0.5571765899658203,-0.0975043773651123,2023-10-21T15:39:01.918996Z,1697902741918
0.0943523645401001,0.5567264556884766,-0.09510219097137451,2023-10-21T15:39:01.939180Z,1697902741939
0.09135496616363525,0.55889892578125,-0.09301722049713135,2023-10-21T15:39:01.959499Z,1697902741959
0.08888649940490723,0.5619182586669922,-0.09088563919067383,2023-10-21T15:39:01.979711Z,1697902741979
0.08664822578430176,0.5637645721435547,-0.0883408784866333,2023-10-21T15:39:01.999977Z,1697902741999
0.0844271183013916,0.5627861022949219,-0.0851292610168457,2023-10-21T15:39:02.020225Z,1697902742020
0.0821077823638916,0.55804443359375,-0.08116364479064941,2023-10-21T15:39:02.042701Z,1697902742042
0.079734206199646,0.5496816635131836,-0.07655799388885498,2023-10-21T15:39:02.060733Z,1697902742060
0.0773460865020752,0.5382242202758789,-0.0714566707611084,2023-10-21T15:39:02.081066Z,1697902742081
0.07494664192199707,0.5240840911865234,-0.06594741344451904,2023-10-21T15:39:02.101289Z,1697902742101
0.07238936424255371,0.5066995620727539,-0.05998194217681885,2023-10-21T15:39:02.121537Z,1697902742121
0.06958568096160889,0.48598289489746094,-0.05361604690551758,2023-10-21T15:39:02.142723Z,1697902742142
0.06657624244689941,0.4624319076538086,-0.04700148105621338,2023-10-21T15:39:02.162146Z,1697902742162
0.06353890895843506,0.4372291564941406,-0.04038769006729126,2023-10-21T15:39:02.182424Z,1697902742182
0.060574889183044434,0.41119384765625,-0.033964455127716064,2023-10-21T15:39:02.202605Z,1697902742202
0.057713985443115234,0.3848991394042969,-0.027848899364471436,2023-10-21T15:39:02.225850Z,1697902742225
0.05500364303588867,0.35900402069091797,-0.02213740348815918,2023-10-21T15:39:02.243140Z,1697902742243
0.05251872539520264,0.33434104919433594,-0.0168837308883667,2023-10-21T15:39:02.263443Z,1697902742263
0.050383687019348145,0.31176090240478516,-0.012134462594985962,2023-10-21T15:39:02.283664Z,1697902742283
0.048606157302856445,0.2912578582763672,-0.007872611284255981,2023-10-21T15:39:02.303935Z,1697902742303
0.04708361625671387,0.27222442626953125,-0.004076063632965088,2023-10-21T15:39:02.325921Z,1697902742325
0.04552900791168213,0.2530651092529297,-7.305573672056198E-4,2023-10-21T15:39:02.344490Z,1697902742344
0.04364144802093506,0.2324542999267578,0.0021133199334144592,2023-10-21T15:39:02.364758Z,1697902742364
0.04120612144470215,0.20982837677001953,0.004385560750961304,2023-10-21T15:39:02.384976Z,1697902742384
0.03811919689178467,0.18529319763183594,0.006015688180923462,2023-10-21T15:39:02.405195Z,1697902742405
0.03426408767700195,0.15889263153076172,0.006945252418518066,2023-10-21T15:39:02.425802Z,1697902742425
0.029474496841430664,0.13043212890625,0.007115662097930908,2023-10-21T15:39:02.445816Z,1697902742445
0.023563146591186523,0.0995950698852539,0.006469309329986572,2023-10-21T15:39:02.466110Z,1697902742466
0.01640629768371582,0.06632423400878906,0.004972994327545166,2023-10-21T15:39:02.486319Z,1697902742486
0.008040904998779297,0.031134605407714844,0.0026351213455200195,2023-10-21T15:39:02.509182Z,1697902742509
-0.0013201236724853516,-0.004901885986328125,-4.6062469482421875E-4,2023-10-21T15:39:02.527052Z,1697902742526
-0.011080265045166016,-0.039565086364746094,-0.00407719612121582,2023-10-21T15:39:02.547134Z,1697902742547
-0.020462512969970703,-0.0703878402709961,-0.007851958274841309,2023-10-21T15:39:02.567453Z,1697902742567
-0.02856278419494629,-0.094879150390625,-0.011319756507873535,2023-10-21T15:39:02.587635Z,1697902742587
-0.03459644317626953,-0.1112985610961914,-0.01404726505279541,2023-10-21T15:39:02.609304Z,1697902742609
-0.0379948616027832,-0.1187601089477539,-0.01568770408630371,2023-10-21T15:39:02.628208Z,1697902742628
-0.03838944435119629,-0.11698246002197266,-0.015996575355529785,2023-10-21T15:39:02.648486Z,1697902742648
-0.03553509712219238,-0.10596752166748047,-0.01483774185180664,2023-10-21T15:39:02.668720Z,1697902742668
-0.029597997665405273,-0.0867452621459961,-0.012301802635192871,2023-10-21T15:39:02.688853Z,1697902742688
-0.021390199661254883,-0.06188201904296875,-0.008797407150268555,2023-10-21T15:39:02.709190Z,1697902742709
-0.012278556823730469,-0.03520774841308594,-0.00496828556060791,2023-10-21T15:39:02.729567Z,1697902742729
-0.003834962844848633,-0.010937690734863281,-0.0015186071395874023,2023-10-21T15:39:02.749930Z,1697902742749
0.0028486251831054688,0.008105278015136719,0.001095890998840332,2023-10-21T15:39:02.770066Z,1697902742769
0.00740504264831543,0.021065711975097656,0.0027464628219604492,2023-10-21T15:39:02.792299Z,1697902742792
0.010224580764770508,0.02914142608642578,0.0036138296127319336,2023-10-21T15:39:02.810520Z,1697902742810
0.012326955795288086,0.035259246826171875,0.0040940046310424805,2023-10-21T15:39:02.830859Z,1697902742830
0.014728307723999023,0.042351722717285156,0.004527747631072998,2023-10-21T15:39:02.851099Z,1697902742851
0.018140554428100586,0.05249786376953125,0.005072891712188721,2023-10-21T15:39:02.871308Z,1697902742871
0.022731542587280273,0.06625938415527344,0.005666255950927734,2023-10-21T15:39:02.892185Z,1697902742892
0.028739213943481445,0.0844268798828125,0.006220340728759766,2023-10-21T15:39:02.911838Z,1697902742911
0.036624908447265625,0.10854244232177734,0.006643950939178467,2023-10-21T15:39:02.932169Z,1697902742932
0.046874284744262695,0.140380859375,0.006773442029953003,2023-10-21T15:39:02.952415Z,1697902742952
0.059542179107666016,0.18064594268798828,0.0063186585903167725,2023-10-21T15:39:02.975487Z,1697902742975
0.07401800155639648,0.22826290130615234,0.004941686987876892,2023-10-21T15:39:02.992889Z,1697902742992
0.08938407897949219,0.2813072204589844,0.0023847222328186035,2023-10-21T15:39:03.013207Z,1697902743013
0.10443472862243652,0.33679866790771484,-0.0014586448669433594,2023-10-21T15:39:03.033507Z,1697902743033
0.11786675453186035,0.3909282684326172,-0.0065182894468307495,2023-10-21T15:39:03.053654Z,1697902743053
0.12861037254333496,0.43991947174072266,-0.01255539059638977,2023-10-21T15:39:03.075404Z,1697902743075
0.13622570037841797,0.48143482208251953,-0.01927146315574646,2023-10-21T15:39:03.094233Z,1697902743094
0.14093375205993652,0.5151004791259766,-0.02641451358795166,2023-10-21T15:39:03.114509Z,1697902743114
0.14324355125427246,0.5415515899658203,-0.03378713130950928,2023-10-21T15:39:03.134734Z,1697902743134
0.1434483528137207,0.5607929229736328,-0.04111361503601074,2023-10-21T15:39:03.154888Z,1697902743154
0.1417856216430664,0.5726509094238281,-0.04807162284851074,2023-10-21T15:39:03.175328Z,1697902743175
0.13858628273010254,0.5773754119873047,-0.05438154935836792,2023-10-21T15:39:03.195548Z,1697902743195
0.13454604148864746,0.5770969390869141,-0.06000101566314697,2023-10-21T15:39:03.215821Z,1697902743215
0.13056397438049316,0.5754728317260742,-0.06513786315917969,2023-10-21T15:39:03.236086Z,1697902743236
0.12731075286865234,0.5760269165039062,-0.07005667686462402,2023-10-21T15:39:03.258466Z,1697902743258
0.12482976913452148,0.5799455642700195,-0.07478249073028564,2023-10-21T15:39:03.276582Z,1697902743276
0.1226966381072998,0.5861473083496094,-0.07903742790222168,2023-10-21T15:39:03.296905Z,1697902743296
0.12030553817749023,0.5923080444335938,-0.08235716819763184,2023-10-21T15:39:03.317140Z,1697902743317
0.11724913120269775,0.5964298248291016,-0.08437848091125488,2023-10-21T15:39:03.337350Z,1697902743337
0.11350321769714355,0.5980539321899414,-0.0850677490234375,2023-10-21T15:39:03.358490Z,1697902743358
0.10922634601593018,0.5976085662841797,-0.0845954418182373,2023-10-21T15:39:03.377920Z,1697902743377
0.1047201156616211,0.5962677001953125,-0.08324301242828369,2023-10-21T15:39:03.398256Z,1697902743398
0.10000193119049072,0.5935049057006836,-0.08102428913116455,2023-10-21T15:39:03.418415Z,1697902743418
0.09487247467041016,0.5871791839599609,-0.07776212692260742,2023-10-21T15:39:03.441649Z,1697902743441
0.08919346332550049,0.5750646591186523,-0.07336664199829102,2023-10-21T15:39:03.459008Z,1697902743458
0.08319103717803955,0.5571880340576172,-0.0681389570236206,2023-10-21T15:39:03.479244Z,1697902743479
0.0774298906326294,0.5363245010375977,-0.06268453598022461,2023-10-21T15:39:03.499487Z,1697902743499
0.07247138023376465,0.5161218643188477,-0.057610511779785156,2023-10-21T15:39:03.519722Z,1697902743519
0.06874251365661621,0.5002670288085938,-0.05336189270019531,2023-10-21T15:39:03.541790Z,1697902743541
0.06648051738739014,0.4915790557861328,-0.050164103507995605,2023-10-21T15:39:03.560237Z,1697902743560
0.06571424007415771,0.4914579391479492,-0.04801088571548462,2023-10-21T15:39:03.580565Z,1697902743580
0.06621658802032471,0.4989814758300781,-0.046658217906951904,2023-10-21T15:39:03.600779Z,1697902743600
0.06767547130584717,0.5121612548828125,-0.045815467834472656,2023-10-21T15:39:03.621009Z,1697902743620
0.06991386413574219,0.5296106338500977,-0.04531371593475342,2023-10-21T15:39:03.641546Z,1697902743641
0.07295548915863037,0.5511436462402344,-0.04515361785888672,2023-10-21T15:39:03.661576Z,1697902743661
0.07675445079803467,0.5759391784667969,-0.04527324438095093,2023-10-21T15:39:03.681931Z,1697902743681
0.0811532735824585,0.6023397445678711,-0.04555302858352661,2023-10-21T15:39:03.702105Z,1697902743702
0.08589041233062744,0.6281538009643555,-0.04583185911178589,2023-10-21T15:39:03.725159Z,1697902743725
0.09071886539459229,0.6513814926147461,-0.04599422216415405,2023-10-21T15:39:03.742629Z,1697902743742
0.0954887866973877,0.6705532073974609,-0.04601693153381348,2023-10-21T15:39:03.762971Z,1697902743762
0.10027813911437988,0.685643196105957,-0.04603642225265503,2023-10-21T15:39:03.783227Z,1697902743783
0.10534822940826416,0.6980485916137695,-0.046252667903900146,2023-10-21T15:39:03.803465Z,1697902743803
0.11105990409851074,0.70977783203125,-0.04679763317108154,2023-10-21T15:39:03.825189Z,1697902743825
0.11742258071899414,0.7208499908447266,-0.04753154516220093,2023-10-21T15:39:03.843974Z,1697902743843
0.1239633560180664,0.7288665771484375,-0.048036038875579834,2023-10-21T15:39:03.864268Z,1697902743864
0.12991547584533691,0.7306118011474609,-0.04787784814834595,2023-10-21T15:39:03.884485Z,1697902743884
0.13452208042144775,0.7236251831054688,-0.0467456579208374,2023-10-21T15:39:03.904646Z,1697902743904
0.1373603343963623,0.7076940536499023,-0.04462099075317383,2023-10-21T15:39:03.925009Z,1697902743924
0.1382453441619873,0.6838035583496094,-0.041615962982177734,2023-10-21T15:39:03.945299Z,1697902743945
0.1370840072631836,0.6530933380126953,-0.0378531813621521,2023-10-21T15:39:03.965575Z,1697902743965
0.13357830047607422,0.6153802871704102,-0.03337979316711426,2023-10-21T15:39:03.985775Z,1697902743985
0.12710237503051758,0.5686712265014648,-0.02820688486099243,2023-10-21T15:39:04.008166Z,1697902744008
0.11696195602416992,0.5104532241821289,-0.022453665733337402,2023-10-21T15:39:04.026400Z,1697902744026
0.10285687446594238,0.4397602081298828,-0.016471058130264282,2023-10-21T15:39:04.046661Z,1697902744046
0.08526992797851562,0.35863399505615234,-0.010802596807479858,2023-10-21T15:39:04.066832Z,1697902744066
0.06518745422363281,0.2708168029785156,-0.0059698522090911865,2023-10-21T15:39:04.087028Z,1697902744086
0.0435633659362793,0.17957115173339844,-0.002359926700592041,2023-10-21T15:39:04.108034Z,1697902744107
0.020888805389404297,0.08583927154541016,-2.739671617746353E-4,2023-10-21T15:39:04.127702Z,1697902744127
-0.002621889114379883,-0.010792732238769531,-8.778274059295654E-5,2023-10-21T15:39:04.148039Z,1697902744147
-0.026655197143554688,-0.11036109924316406,-0.002357885241508484,2023-10-21T15:39:04.168117Z,1697902744168
-0.05052947998046875,-0.2111978530883789,-0.007749110460281372,2023-10-21T15:39:04.191349Z,1697902744191
-0.07317233085632324,-0.3098640441894531,-0.01686757802963257,2023-10-21T15:39:04.208697Z,1697902744208
-0.09349966049194336,-0.402862548828125,-0.030105292797088623,2023-10-21T15:39:04.229021Z,1697902744228
-0.11053156852722168,-0.487396240234375,-0.047508180141448975,2023-10-21T15:39:04.249295Z,1697902744249
-0.12347877025604248,-0.5614528656005859,-0.06869804859161377,2023-10-21T15:39:04.269464Z,1697902744269
-0.13167893886566162,-0.6231479644775391,-0.09276068210601807,2023-10-21T15:39:04.291266Z,1697902744291
-0.13473546504974365,-0.6706819534301758,-0.1182488203048706,2023-10-21T15:39:04.310074Z,1697902744309
-0.13256704807281494,-0.7030258178710938,-0.1434239149093628,2023-10-21T15:39:04.330368Z,1697902744330
-0.12520360946655273,-0.7189426422119141,-0.1663212776184082,2023-10-21T15:39:04.350562Z,1697902744350
-0.11285388469696045,-0.7168550491333008,-0.1847529411315918,2023-10-21T15:39:04.370735Z,1697902744370
-0.09620225429534912,-0.6952333450317383,-0.19650983810424805,2023-10-21T15:39:04.391071Z,1697902744391
-0.07664656639099121,-0.6540584564208984,-0.19992375373840332,2023-10-21T15:39:04.411370Z,1697902744411
-0.05609661340713501,-0.5954771041870117,-0.19442296028137207,2023-10-21T15:39:04.431681Z,1697902744431
-0.03654897212982178,-0.5225629806518555,-0.18031859397888184,2023-10-21T15:39:04.451947Z,1697902744451
-0.01972031593322754,-0.43802452087402344,-0.15833520889282227,2023-10-21T15:39:04.474539Z,1697902744474
-0.00691339373588562,-0.34343624114990234,-0.12911319732666016,2023-10-21T15:39:04.492406Z,1697902744492
9.91974025964737E-4,-0.23923873901367188,-0.09298992156982422,2023-10-21T15:39:04.512765Z,1697902744512
0.0034376531839370728,-0.1259613037109375,-0.05036783218383789,2023-10-21T15:39:04.532964Z,1697902744532
3.196299076080322E-4,-0.0065021514892578125,-0.0026636123657226562,2023-10-21T15:39:04.553255Z,1697902744553
-0.007859647274017334,0.1135110855102539,0.04744744300842285,2023-10-21T15:39:04.574332Z,1697902744574
-0.02001243829727173,0.22708892822265625,0.09652924537658691,2023-10-21T15:39:04.593783Z,1697902744593
-0.03479456901550293,0.3287620544433594,0.1415843963623047,2023-10-21T15:39:04.614088Z,1697902744614
-0.05098533630371094,0.41640758514404297,0.18093323707580566,2023-10-21T15:39:04.634250Z,1697902744634
-0.06765234470367432,0.49047088623046875,0.21405482292175293,2023-10-21T15:39:04.657557Z,1697902744657
-0.0840902328491211,0.5515012741088867,0.2406301498413086,2023-10-21T15:39:04.674761Z,1697902744674
-0.09965693950653076,0.5989494323730469,0.2600748538970947,2023-10-21T15:39:04.695101Z,1697902744695
-0.11348140239715576,0.6310482025146484,0.27144670486450195,2023-10-21T15:39:04.715363Z,1697902744715
-0.12466657161712646,0.6469211578369141,0.27439260482788086,2023-10-21T15:39:04.735537Z,1697902744735
-0.1324244737625122,0.6469278335571289,0.2691943645477295,2023-10-21T15:39:04.757506Z,1697902744757
-0.13651227951049805,0.6335668563842773,0.25722622871398926,2023-10-21T15:39:04.776137Z,1697902744776
-0.13725972175598145,0.6105756759643555,0.2406327724456787,2023-10-21T15:39:04.796422Z,1697902744796
-0.13518071174621582,0.5811052322387695,0.22140860557556152,2023-10-21T15:39:04.816658Z,1697902744816
-0.1309061050415039,0.5478096008300781,0.20125818252563477,2023-10-21T15:39:04.836882Z,1697902744836
-0.12470531463623047,0.5114507675170898,0.18089652061462402,2023-10-21T15:39:04.857551Z,1697902744857
-0.1167135238647461,0.4720888137817383,0.16057276725769043,2023-10-21T15:39:04.877426Z,1697902744877
-0.10687923431396484,0.4289398193359375,0.14018821716308594,2023-10-21T15:39:04.897747Z,1697902744897
-0.0952305793762207,0.3812532424926758,0.11965441703796387,2023-10-21T15:39:04.917922Z,1697902744917
-0.08190679550170898,0.32869529724121094,0.09899091720581055,2023-10-21T15:39:04.940863Z,1697902744940
-0.0672450065612793,0.2718057632446289,0.07851886749267578,2023-10-21T15:39:04.958475Z,1697902744958
-0.051360368728637695,0.21019363403320312,0.05823874473571777,2023-10-21T15:39:04.978807Z,1697902744978
-0.03433656692504883,0.14305973052978516,0.03800845146179199,2023-10-21T15:39:04.999038Z,1697902744998
-0.016632080078125,0.07093334197998047,0.018049955368041992,2023-10-21T15:39:05.019261Z,1697902745019
0.0010671615600585938,-0.004685401916503906,-0.001138448715209961,2023-10-21T15:39:05.040817Z,1697902745040
0.017647743225097656,-0.08013916015625,-0.018526554107666016,2023-10-21T15:39:05.059832Z,1697902745059
0.03191852569580078,-0.15094280242919922,-0.033007144927978516,2023-10-21T15:39:05.080109Z,1697902745080
0.042742252349853516,-0.21232318878173828,-0.04363274574279785,2023-10-21T15:39:05.100338Z,1697902745100
0.04945564270019531,-0.26090431213378906,-0.05009567737579346,2023-10-21T15:39:05.120479Z,1697902745120
0.05212295055389404,-0.29555320739746094,-0.052810072898864746,2023-10-21T15:39:05.140819Z,1697902745140
0.05131661891937256,-0.31649112701416016,-0.05249130725860596,2023-10-21T15:39:05.161134Z,1697902745161
0.047675371170043945,-0.3235940933227539,-0.049707770347595215,2023-10-21T15:39:05.181417Z,1697902745181
0.04174315929412842,-0.31606101989746094,-0.04480302333831787,2023-10-21T15:39:05.201583Z,1697902745201
0.03421163558959961,-0.29379749298095703,-0.03822183609008789,2023-10-21T15:39:05.223980Z,1697902745223
0.025923728942871094,-0.2580251693725586,-0.030565738677978516,2023-10-21T15:39:05.242171Z,1697902745242
0.01781177520751953,-0.21160411834716797,-0.022628307342529297,2023-10-21T15:39:05.262458Z,1697902745262
0.010782122611999512,-0.1592416763305664,-0.01525866985321045,2023-10-21T15:39:05.282715Z,1697902745282
0.005439430475234985,-0.10605525970458984,-0.009049177169799805,2023-10-21T15:39:05.302887Z,1697902745302
0.0019635260105133057,-0.055693626403808594,-0.004201173782348633,2023-10-21T15:39:05.323672Z,1697902745323
2.0202994346618652E-4,-0.01024627685546875,-6.734728813171387E-4,2023-10-21T15:39:05.343518Z,1697902745343
-1.449286937713623E-4,0.03001689910888672,0.001680910587310791,2023-10-21T15:39:05.363843Z,1697902745363
6.384626030921936E-4,0.06609439849853516,0.00302693247795105,2023-10-21T15:39:05.384108Z,1697902745384
0.0023822933435440063,0.09998893737792969,0.003503650426864624,2023-10-21T15:39:05.407168Z,1697902745407
0.005071580410003662,0.13419532775878906,0.0031947940587997437,2023-10-21T15:39:05.424497Z,1697902745424
0.008793950080871582,0.1702289581298828,0.002101004123687744,2023-10-21T15:39:05.444831Z,1697902745444
0.013588547706604004,0.20824527740478516,1.6847159713506699E-4,2023-10-21T15:39:05.465161Z,1697902745465
0.019443929195404053,0.2484884262084961,-0.0026618018746376038,2023-10-21T15:39:05.485306Z,1697902745485
0.026311099529266357,0.2913351058959961,-0.0064586251974105835,2023-10-21T15:39:05.507118Z,1697902745507
0.03413426876068115,0.33647727966308594,-0.011297136545181274,2023-10-21T15:39:05.525852Z,1697902745525
0.042854905128479004,0.38321399688720703,-0.017176806926727295,2023-10-21T15:39:05.546179Z,1697902745546
0.052295804023742676,0.4295663833618164,-0.023955047130584717,2023-10-21T15:39:05.566396Z,1697902745566
0.061948418617248535,0.4719362258911133,-0.031216800212860107,2023-10-21T15:39:05.586555Z,1697902745586
0.07104051113128662,0.5061759948730469,-0.03831362724304199,2023-10-21T15:39:05.607011Z,1697902745606
0.07886743545532227,0.5298061370849609,-0.044700443744659424,2023-10-21T15:39:05.627164Z,1697902745627
0.08516943454742432,0.5432939529418945,-0.0501861572265625,2023-10-21T15:39:05.647466Z,1697902745647
0.09011518955230713,0.5489072799682617,-0.054877519607543945,2023-10-21T15:39:05.667694Z,1697902745667
0.09420323371887207,0.5502071380615234,-0.059101104736328125,2023-10-21T15:39:05.690326Z,1697902745690
0.09797024726867676,0.5507984161376953,-0.06321048736572266,2023-10-21T15:39:05.708216Z,1697902745708
0.10192620754241943,0.55438232421875,-0.0675581693649292,2023-10-21T15:39:05.728520Z,1697902745728
0.10623109340667725,0.562870979309082,-0.07225775718688965,2023-10-21T15:39:05.748754Z,1697902745748
0.11072134971618652,0.5762796401977539,-0.07715070247650146,2023-10-21T15:39:05.768955Z,1697902745768
0.11528933048248291,0.5942726135253906,-0.08205890655517578,2023-10-21T15:39:05.790074Z,1697902745790
0.11989879608154297,0.6161098480224609,-0.08681273460388184,2023-10-21T15:39:05.809568Z,1697902745809
0.12448132038116455,0.6402902603149414,-0.09115254878997803,2023-10-21T15:39:05.829864Z,1697902745829
0.12866175174713135,0.6639289855957031,-0.09459924697875977,2023-10-21T15:39:05.850097Z,1697902745850
0.1317741870880127,0.6832685470581055,-0.09652459621429443,2023-10-21T15:39:05.873530Z,1697902745873
0.1329503059387207,0.6938133239746094,-0.0962369441986084,2023-10-21T15:39:05.890660Z,1697902745890
0.13141334056854248,0.6916141510009766,-0.09325766563415527,2023-10-21T15:39:05.910951Z,1697902745910
0.1267716884613037,0.6741647720336914,-0.08751487731933594,2023-10-21T15:39:05.931156Z,1697902745931
0.11927402019500732,0.6418685913085938,-0.07950794696807861,2023-10-21T15:39:05.951394Z,1697902745951
0.10973691940307617,0.5979013442993164,-0.07019782066345215,2023-10-21T15:39:05.973450Z,1697902745973
0.09915399551391602,0.5468826293945312,-0.060613036155700684,2023-10-21T15:39:05.991869Z,1697902745991
0.08831119537353516,0.4930915832519531,-0.05149197578430176,2023-10-21T15:39:06.012200Z,1697902746012
0.07762372493743896,0.43930625915527344,-0.04316943883895874,2023-10-21T15:39:06.032449Z,1697902746032
0.06737196445465088,0.3874998092651367,-0.035765886306762695,2023-10-21T15:39:06.052628Z,1697902746052
0.057937026023864746,0.33977699279785156,-0.029367148876190186,2023-10-21T15:39:06.073151Z,1697902746073
0.049813270568847656,0.2987041473388672,-0.024091899394989014,2023-10-21T15:39:06.093212Z,1697902746093
0.043485283851623535,0.26697444915771484,-0.020028412342071533,2023-10-21T15:39:06.113515Z,1697902746113
0.03919625282287598,0.2463245391845703,-0.017147719860076904,2023-10-21T15:39:06.133724Z,1697902746133
0.0368807315826416,0.23702526092529297,-0.0152779221534729,2023-10-21T15:39:06.156475Z,1697902746156
0.036170005798339844,0.23758792877197266,-0.014124929904937744,2023-10-21T15:39:06.174290Z,1697902746174
0.036371707916259766,0.24425506591796875,-0.013294041156768799,2023-10-21T15:39:06.194560Z,1697902746194
0.036750197410583496,0.2524232864379883,-0.012438327074050903,2023-10-21T15:39:06.214852Z,1697902746214
0.03674769401550293,0.2579822540283203,-0.01135718822479248,2023-10-21T15:39:06.235087Z,1697902746235
0.0361483097076416,0.2586946487426758,-0.010059237480163574,2023-10-21T15:39:06.256582Z,1697902746256
0.035050153732299805,0.2544984817504883,-0.008714020252227783,2023-10-21T15:39:06.275620Z,1697902746275
0.03368175029754639,0.24675846099853516,-0.007513672113418579,2023-10-21T15:39:06.295957Z,1697902746295
0.03223860263824463,0.2371225357055664,-0.006588488817214966,2023-10-21T15:39:06.316125Z,1697902746316
0.03082096576690674,0.22675514221191406,-0.005971848964691162,2023-10-21T15:39:06.336294Z,1697902746336
0.029507994651794434,0.21648311614990234,-0.005655914545059204,2023-10-21T15:39:06.356645Z,1697902746356
0.028490662574768066,0.20760726928710938,-0.00563812255859375,2023-10-21T15:39:06.376969Z,1697902746376
0.028113245964050293,0.20239639282226562,-0.005968689918518066,2023-10-21T15:39:06.397207Z,1697902746397
0.028814077377319336,0.20360755920410156,-0.006753593683242798,2023-10-21T15:39:06.417438Z,1697902746417
