ACC_X,ACC_Y,ACC_Z,DATE,UNIX_TIMESTAMP
0.05547833442687988,0.24724102020263672,0.04188990592956543,2023-10-21T15:37:11.632163Z,1697902631632
0.04703330993652344,0.20877456665039062,0.03509712219238281,2023-10-21T15:37:11.652698Z,1697902631652
0.06189370155334473,0.27993011474609375,0.04384660720825195,2023-10-21T15:37:11.672796Z,1697902631672
0.0648956298828125,0.2967252731323242,0.046968698501586914,2023-10-21T15:37:11.693119Z,1697902631693
0.0792076587677002,0.3450155258178711,0.05170083045959473,2023-10-21T15:37:11.713325Z,1697902631713
0.0882570743560791,0.40908050537109375,0.059918880462646484,2023-10-21T15:37:11.733484Z,1697902631733
0.1107945442199707,0.5195083618164062,0.07621359825134277,2023-10-21T15:37:11.753859Z,1697902631753
0.10235238075256348,0.48241138458251953,0.07196903228759766,2023-10-21T15:37:11.774197Z,1697902631774
0.07484853267669678,0.35844993591308594,0.052707672119140625,2023-10-21T15:37:11.794497Z,1697902631794
0.0392453670501709,0.19217586517333984,0.027566909790039062,2023-10-21T15:37:11.814646Z,1697902631814
0.06747078895568848,0.31318092346191406,0.04732668399810791,2023-10-21T15:37:11.836641Z,1697902631836
0.06194353103637695,0.2887392044067383,0.04327547550201416,2023-10-21T15:37:11.855354Z,1697902631855
0.05350685119628906,0.2492961883544922,0.03746747970581055,2023-10-21T15:37:11.875554Z,1697902631875
0.043123483657836914,0.20062828063964844,0.03022944927215576,2023-10-21T15:37:11.895836Z,1697902631895
0.03032231330871582,0.14193058013916016,0.021512746810913086,2023-10-21T15:37:11.915946Z,1697902631915
0.0162656307220459,0.0761728286743164,0.011627435684204102,2023-10-21T15:37:11.936949Z,1697902631936
0.0019078254699707031,0.008885383605957031,0.0013649463653564453,2023-10-21T15:37:11.956606Z,1697902631956
-0.009056806564331055,-0.04181480407714844,-0.006459474563598633,2023-10-21T15:37:11.976852Z,1697902631976
-0.014686107635498047,-0.06720829010009766,-0.010456681251525879,2023-10-21T15:37:11.997062Z,1697902631997
-0.015507221221923828,-0.07098579406738281,-0.011152386665344238,2023-10-21T15:37:12.019932Z,1697902632019
-0.010101079940795898,-0.046904563903808594,-0.007414102554321289,2023-10-21T15:37:12.037590Z,1697902632037
0.005843639373779297,0.028230667114257812,0.004401087760925293,2023-10-21T15:37:12.057909Z,1697902632057
0.028133392333984375,0.1439809799194336,0.021712660789489746,2023-10-21T15:37:12.078156Z,1697902632078
0.04989171028137207,0.26642799377441406,0.0387568473815918,2023-10-21T15:37:12.098322Z,1697902632098
0.06499326229095459,0.35347747802734375,0.05009329319000244,2023-10-21T15:37:12.119912Z,1697902632119
0.07517707347869873,0.39870548248291016,0.05620849132537842,2023-10-21T15:37:12.138956Z,1697902632138
0.08499312400817871,0.43458080291748047,0.06086230278015137,2023-10-21T15:37:12.159216Z,1697902632159
0.09429264068603516,0.46242809295654297,0.06386470794677734,2023-10-21T15:37:12.179436Z,1697902632179
0.10260438919067383,0.4855947494506836,0.06548666954040527,2023-10-21T15:37:12.199624Z,1697902632199
0.11013102531433105,0.5053186416625977,0.06622862815856934,2023-10-21T15:37:12.219933Z,1697902632219
0.1164865493774414,0.5222568511962891,0.0663762092590332,2023-10-21T15:37:12.240274Z,1697902632240
0.11616897583007812,0.5059957504272461,0.06312274932861328,2023-10-21T15:37:12.260549Z,1697902632260
0.10941481590270996,0.4592866897583008,0.0574953556060791,2023-10-21T15:37:12.280763Z,1697902632280
0.10035896301269531,0.4134788513183594,0.052544355392456055,2023-10-21T15:37:12.303024Z,1697902632302
0.05455160140991211,0.2555389404296875,0.03671848773956299,2023-10-21T15:37:12.321321Z,1697902632321
0.05559206008911133,0.25948619842529297,0.037061095237731934,2023-10-21T15:37:12.341680Z,1697902632341
0.05680561065673828,0.26469993591308594,0.03759658336639404,2023-10-21T15:37:12.361909Z,1697902632361
0.05819201469421387,0.2712745666503906,0.038319945335388184,2023-10-21T15:37:12.382152Z,1697902632382
0.05970287322998047,0.27886962890625,0.03918492794036865,2023-10-21T15:37:12.403112Z,1697902632403
0.06135129928588867,0.28722572326660156,0.04015171527862549,2023-10-21T15:37:12.422631Z,1697902632422
0.06303215026855469,0.2955636978149414,0.04112386703491211,2023-10-21T15:37:12.442943Z,1697902632442
0.06465029716491699,0.30326271057128906,0.04201698303222656,2023-10-21T15:37:12.463317Z,1697902632463
0.06615686416625977,0.3100318908691406,0.04276740550994873,2023-10-21T15:37:12.486535Z,1697902632486
0.06755423545837402,0.3158407211303711,0.043341636657714844,2023-10-21T15:37:12.503656Z,1697902632503
0.06894302368164062,0.3210620880126953,0.04375600814819336,2023-10-21T15:37:12.523990Z,1697902632523
0.07030272483825684,0.32552528381347656,0.04398047924041748,2023-10-21T15:37:12.544259Z,1697902632544
0.07128500938415527,0.32747840881347656,0.043833255767822266,2023-10-21T15:37:12.564442Z,1697902632564
0.07155299186706543,0.32542991638183594,0.043190598487854004,2023-10-21T15:37:12.586274Z,1697902632586
0.07099604606628418,0.31935882568359375,0.042095065116882324,2023-10-21T15:37:12.605057Z,1697902632605
0.06995320320129395,0.31123828887939453,0.04080808162689209,2023-10-21T15:37:12.625331Z,1697902632625
0.06884241104125977,0.3034534454345703,0.03959083557128906,2023-10-21T15:37:12.645576Z,1697902632645
0.06782221794128418,0.29678916931152344,0.038529157638549805,2023-10-21T15:37:12.665729Z,1697902632665
0.06684303283691406,0.2910575866699219,0.037611961364746094,2023-10-21T15:37:12.686217Z,1697902632686
0.06571269035339355,0.28533267974853516,0.03673827648162842,2023-10-21T15:37:12.706401Z,1697902632706
0.06421637535095215,0.2786226272583008,0.03579270839691162,2023-10-21T15:37:12.726655Z,1697902632726
0.062259674072265625,0.2704019546508789,0.03471386432647705,2023-10-21T15:37:12.746859Z,1697902632746
0.06015777587890625,0.26200199127197266,0.03364229202270508,2023-10-21T15:37:12.769297Z,1697902632769
0.05826926231384277,0.2549705505371094,0.03273475170135498,2023-10-21T15:37:12.787391Z,1697902632787
0.05674386024475098,0.24970149993896484,0.03201103210449219,2023-10-21T15:37:12.807706Z,1697902632807
0.05538201332092285,0.2451305389404297,0.03132319450378418,2023-10-21T15:37:12.827988Z,1697902632827
0.05399656295776367,0.24016189575195312,0.030555248260498047,2023-10-21T15:37:12.848143Z,1697902632848
0.05268454551696777,0.23514747619628906,0.029757380485534668,2023-10-21T15:37:12.869146Z,1697902632869
0.051545143127441406,0.2305288314819336,0.02900850772857666,2023-10-21T15:37:12.888718Z,1697902632888
0.05067038536071777,0.22683143615722656,0.02837502956390381,2023-10-21T15:37:12.909011Z,1697902632908
0.05011391639709473,0.22445964813232422,0.027910709381103516,2023-10-21T15:37:12.929229Z,1697902632929
0.05002999305725098,0.22430133819580078,0.027711868286132812,2023-10-21T15:37:12.952660Z,1697902632952
0.05049443244934082,0.22678565979003906,0.027823448181152344,2023-10-21T15:37:12.969883Z,1697902632969
0.051362037658691406,0.23124408721923828,0.028166651725769043,2023-10-21T15:37:12.990129Z,1697902632990
0.05238008499145508,0.23654842376708984,0.028606534004211426,2023-10-21T15:37:13.010337Z,1697902633010
0.053264617919921875,0.24143600463867188,0.02900862693786621,2023-10-21T15:37:13.030535Z,1697902633030
0.05381941795349121,0.24500179290771484,0.029279351234436035,2023-10-21T15:37:13.052414Z,1697902633052
0.05402660369873047,0.2471179962158203,0.029395341873168945,2023-10-21T15:37:13.071101Z,1697902633071
0.053999900817871094,0.24817371368408203,0.029383063316345215,2023-10-21T15:37:13.091421Z,1697902633091
0.05387258529663086,0.24862003326416016,0.029271364212036133,2023-10-21T15:37:13.111598Z,1697902633111
0.05371713638305664,0.2486724853515625,0.029072165489196777,2023-10-21T15:37:13.131796Z,1697902633131
0.05347037315368652,0.24798870086669922,0.02875995635986328,2023-10-21T15:37:13.152528Z,1697902633152
0.053115129470825195,0.24652576446533203,0.028351902961730957,2023-10-21T15:37:13.172433Z,1697902633172
0.05279660224914551,0.2450428009033203,0.027954936027526855,2023-10-21T15:37:13.192751Z,1697902633192
0.052752017974853516,0.2447214126586914,0.027703046798706055,2023-10-21T15:37:13.212968Z,1697902633212
0.05318331718444824,0.246490478515625,0.02769613265991211,2023-10-21T15:37:13.235973Z,1697902633235
0.05410957336425781,0.2503776550292969,0.027942657470703125,2023-10-21T15:37:13.253750Z,1697902633253
0.055341482162475586,0.25543975830078125,0.028339028358459473,2023-10-21T15:37:13.273772Z,1697902633273
0.05662679672241211,0.2604951858520508,0.028767108917236328,2023-10-21T15:37:13.293997Z,1697902633293
0.057773590087890625,0.26467227935791016,0.02913820743560791,2023-10-21T15:37:13.314190Z,1697902633314
0.05866885185241699,0.26747703552246094,0.02939295768737793,2023-10-21T15:37:13.336134Z,1697902633336
0.05928468704223633,0.26875782012939453,0.029506683349609375,2023-10-21T15:37:13.354821Z,1697902633354
0.05962944030761719,0.2685842514038086,0.029459595680236816,2023-10-21T15:37:13.375086Z,1697902633375
0.05971360206604004,0.26702880859375,0.029242515563964844,2023-10-21T15:37:13.395290Z,1697902633395
0.059583187103271484,0.26434898376464844,0.028875350952148438,2023-10-21T15:37:13.415541Z,1697902633415
0.05931258201599121,0.2609100341796875,0.028399109840393066,2023-10-21T15:37:13.435807Z,1697902633435
0.058989524841308594,0.2571706771850586,0.027861356735229492,2023-10-21T15:37:13.456146Z,1697902633456
0.05877423286437988,0.25391387939453125,0.027349114418029785,2023-10-21T15:37:13.476376Z,1697902633476
0.058821916580200195,0.25186824798583984,0.026955485343933105,2023-10-21T15:37:13.496588Z,1697902633496
0.059189558029174805,0.2513008117675781,0.0267181396484375,2023-10-21T15:37:13.519236Z,1697902633519
0.0598757266998291,0.2521696090698242,0.026644587516784668,2023-10-21T15:37:13.537154Z,1697902633537
0.06089472770690918,0.2544679641723633,0.026734232902526855,2023-10-21T15:37:13.557411Z,1697902633557
0.062200069427490234,0.25786876678466797,0.026950836181640625,2023-10-21T15:37:13.577687Z,1697902633577
0.06372880935668945,0.2619810104370117,0.027255535125732422,2023-10-21T15:37:13.597896Z,1697902633597
0.06533336639404297,0.2661428451538086,0.02758920192718506,2023-10-21T15:37:13.618799Z,1697902633618
0.0668489933013916,0.2697305679321289,0.027890682220458984,2023-10-21T15:37:13.638632Z,1697902633638
0.06818175315856934,0.27242565155029297,0.028127670288085938,2023-10-21T15:37:13.658752Z,1697902633658
0.06924915313720703,0.2739429473876953,0.028264641761779785,2023-10-21T15:37:13.678980Z,1697902633678
0.07008147239685059,0.27439308166503906,0.02829921245574951,2023-10-21T15:37:13.702010Z,1697902633701
0.07077383995056152,0.2741575241088867,0.02825748920440674,2023-10-21T15:37:13.719499Z,1697902633719
0.07144618034362793,0.27373504638671875,0.028183043003082275,2023-10-21T15:37:13.739806Z,1697902633739
0.07218074798583984,0.2735605239868164,0.028124749660491943,2023-10-21T15:37:13.760070Z,1697902633760
0.07311582565307617,0.2743368148803711,0.028154492378234863,2023-10-21T15:37:13.780254Z,1697902633780
0.0743715763092041,0.27669525146484375,0.028318405151367188,2023-10-21T15:37:13.802117Z,1697902633802
0.07600736618041992,0.28093719482421875,0.028640151023864746,2023-10-21T15:37:13.820860Z,1697902633820
0.07804727554321289,0.28716278076171875,0.029132306575775146,2023-10-21T15:37:13.841116Z,1697902633841
0.08047604560852051,0.29529571533203125,0.02978956699371338,2023-10-21T15:37:13.861337Z,1697902633861
0.08328914642333984,0.30530548095703125,0.030611753463745117,2023-10-21T15:37:13.881551Z,1697902633881
0.0864262580871582,0.3170156478881836,0.03157997131347656,2023-10-21T15:37:13.901866Z,1697902633901
0.08972620964050293,0.3299245834350586,0.032634735107421875,2023-10-21T15:37:13.922212Z,1697902633922
0.09295511245727539,0.34331226348876953,0.033706724643707275,2023-10-21T15:37:13.942530Z,1697902633942
0.0959315299987793,0.3565797805786133,0.03473168611526489,2023-10-21T15:37:13.962668Z,1697902633962
0.09849190711975098,0.3690919876098633,0.03564876317977905,2023-10-21T15:37:13.985294Z,1697902633985
0.10052704811096191,0.3803434371948242,0.036427199840545654,2023-10-21T15:37:14.003234Z,1697902634003
0.10202336311340332,0.39014720916748047,0.037057340145111084,2023-10-21T15:37:14.023522Z,1697902634023
0.10300278663635254,0.39839839935302734,0.03754103183746338,2023-10-21T15:37:14.043820Z,1697902634043
0.10351371765136719,0.40513134002685547,0.037893474102020264,2023-10-21T15:37:14.063957Z,1697902634063
0.10361170768737793,0.41045284271240234,0.03814041614532471,2023-10-21T15:37:14.085292Z,1697902634085
0.1033174991607666,0.4143857955932617,0.038286685943603516,2023-10-21T15:37:14.104543Z,1697902634104
0.10269880294799805,0.41716957092285156,0.0383678674697876,2023-10-21T15:37:14.124854Z,1697902634124
0.10182046890258789,0.4189634323120117,0.03840535879135132,2023-10-21T15:37:14.145087Z,1697902634145
0.10071110725402832,0.41977977752685547,0.03840440511703491,2023-10-21T15:37:14.168455Z,1697902634168
0.0993959903717041,0.419586181640625,0.03836292028427124,2023-10-21T15:37:14.185818Z,1697902634185
0.09781146049499512,0.4180011749267578,0.038246095180511475,2023-10-21T15:37:14.205901Z,1697902634205
0.09589505195617676,0.4146595001220703,0.038006603717803955,2023-10-21T15:37:14.226140Z,1697902634226
0.09355330467224121,0.4091796875,0.03758513927459717,2023-10-21T15:37:14.246412Z,1697902634246
0.09076666831970215,0.40143489837646484,0.03692394495010376,2023-10-21T15:37:14.268362Z,1697902634268
0.08751630783081055,0.39121532440185547,0.03598320484161377,2023-10-21T15:37:14.286925Z,1697902634286
0.08378911018371582,0.37825489044189453,0.03475463390350342,2023-10-21T15:37:14.307207Z,1697902634307
0.07959580421447754,0.36240386962890625,0.0332602858543396,2023-10-21T15:37:14.327427Z,1697902634327
0.07497024536132812,0.34366893768310547,0.031530678272247314,2023-10-21T15:37:14.347668Z,1697902634347
0.07002997398376465,0.32251739501953125,0.02961021661758423,2023-10-21T15:37:14.368365Z,1697902634368
0.06490802764892578,0.29958629608154297,0.027554035186767578,2023-10-21T15:37:14.388229Z,1697902634388
0.059755802154541016,0.27565670013427734,0.025415003299713135,2023-10-21T15:37:14.408503Z,1697902634408
0.05471539497375488,0.25158023834228516,0.0232732892036438,2023-10-21T15:37:14.428709Z,1697902634428
0.04996848106384277,0.22840595245361328,0.02121680974960327,2023-10-21T15:37:14.451597Z,1697902634451
0.045645713806152344,0.2069845199584961,0.019334852695465088,2023-10-21T15:37:14.469253Z,1697902634469
0.04185009002685547,0.1880178451538086,0.017693817615509033,2023-10-21T15:37:14.489597Z,1697902634489
0.038632869720458984,0.17186927795410156,0.01631993055343628,2023-10-21T15:37:14.509767Z,1697902634509
0.03599667549133301,0.15857982635498047,0.015211284160614014,2023-10-21T15:37:14.530078Z,1697902634530
0.03394293785095215,0.14812088012695312,0.014361560344696045,2023-10-21T15:37:14.551259Z,1697902634551
0.032442569732666016,0.1402902603149414,0.013751864433288574,2023-10-21T15:37:14.570602Z,1697902634570
0.031463623046875,0.1348886489868164,0.01336824893951416,2023-10-21T15:37:14.590877Z,1697902634590
0.030992507934570312,0.13184356689453125,0.013197481632232666,2023-10-21T15:37:14.611077Z,1697902634611
0.031007051467895508,0.13102149963378906,0.013226091861724854,2023-10-21T15:37:14.631304Z,1697902634631
0.03144502639770508,0.13214397430419922,0.013423919677734375,2023-10-21T15:37:14.651631Z,1697902634651
0.03220343589782715,0.13474655151367188,0.013751566410064697,2023-10-21T15:37:14.671933Z,1697902634671
0.03319978713989258,0.13845539093017578,0.014168381690979004,2023-10-21T15:37:14.692203Z,1697902634692
0.03434562683105469,0.14288997650146484,0.014645934104919434,2023-10-21T15:37:14.712415Z,1697902634712
0.035614013671875,0.14790630340576172,0.015168726444244385,2023-10-21T15:37:14.734517Z,1697902634734
0.037093400955200195,0.1538400650024414,0.015769541263580322,2023-10-21T15:37:14.752953Z,1697902634752
0.038828372955322266,0.1608715057373047,0.016463637351989746,2023-10-21T15:37:14.773291Z,1697902634773
0.040908098220825195,0.16939353942871094,0.01728188991546631,2023-10-21T15:37:14.793461Z,1697902634793
0.04334282875061035,0.17946910858154297,0.018240690231323242,2023-10-21T15:37:14.813704Z,1697902634813
0.046094655990600586,0.19098663330078125,0.019325196743011475,2023-10-21T15:37:14.834500Z,1697902634834
0.049153804779052734,0.20395278930664062,0.020534396171569824,2023-10-21T15:37:14.854312Z,1697902634854
0.052445173263549805,0.21811580657958984,0.021841108798980713,2023-10-21T15:37:14.874662Z,1697902634874
0.05580711364746094,0.23285198211669922,0.023179352283477783,2023-10-21T15:37:14.894798Z,1697902634894
0.05906867980957031,0.24750232696533203,0.024493932723999023,2023-10-21T15:37:14.917582Z,1697902634917
0.06208086013793945,0.2614870071411133,0.025720417499542236,2023-10-21T15:37:14.935321Z,1697902634935
0.06471061706542969,0.27426624298095703,0.026796400547027588,2023-10-21T15:37:14.955658Z,1697902634955
0.06690168380737305,0.28554534912109375,0.027682065963745117,2023-10-21T15:37:14.975904Z,1697902634975
0.06852602958679199,0.29463958740234375,0.02831864356994629,2023-10-21T15:37:14.996070Z,1697902634996
0.0695037841796875,0.3010520935058594,0.02866154909133911,2023-10-21T15:37:15.017890Z,1697902635017
0.06983566284179688,0.3046588897705078,0.028711438179016113,2023-10-21T15:37:15.036653Z,1697902635036
0.06954574584960938,0.30548667907714844,0.028481483459472656,2023-10-21T15:37:15.056972Z,1697902635056
0.06869626045227051,0.30378150939941406,0.027991890907287598,2023-10-21T15:37:15.077157Z,1697902635077
0.06741666793823242,0.30007457733154297,0.027299344539642334,2023-10-21T15:37:15.097331Z,1697902635097
0.0658411979675293,0.2948617935180664,0.026464343070983887,2023-10-21T15:37:15.117684Z,1697902635117
0.06411266326904297,0.2887125015258789,0.025555014610290527,2023-10-21T15:37:15.138050Z,1697902635137
0.062300682067871094,0.2818918228149414,0.02460920810699463,2023-10-21T15:37:15.158277Z,1697902635158
0.06045866012573242,0.2746400833129883,0.02365213632583618,2023-10-21T15:37:15.178545Z,1697902635178
0.05862236022949219,0.2671518325805664,0.022701561450958252,2023-10-21T15:37:15.201063Z,1697902635201
0.05689549446105957,0.2599010467529297,0.02179265022277832,2023-10-21T15:37:15.219050Z,1697902635218
0.05529356002807617,0.2529735565185547,0.020936667919158936,2023-10-21T15:37:15.239304Z,1697902635239
0.05378317832946777,0.2462482452392578,0.02013540267944336,2023-10-21T15:37:15.259561Z,1697902635259
0.05240988731384277,0.23992919921875,0.019413888454437256,2023-10-21T15:37:15.279900Z,1697902635279
0.051195383071899414,0.23412322998046875,0.018777668476104736,2023-10-21T15:37:15.300990Z,1697902635300
0.050269126892089844,0.2294483184814453,0.018258869647979736,2023-10-21T15:37:15.320405Z,1697902635320
0.049692630767822266,0.22620773315429688,0.01786506175994873,2023-10-21T15:37:15.340672Z,1697902635340
0.04949688911437988,0.22461700439453125,0.017605721950531006,2023-10-21T15:37:15.360859Z,1697902635360
0.049645185470581055,0.22458839416503906,0.017471134662628174,2023-10-21T15:37:15.384543Z,1697902635384
0.05012941360473633,0.22614479064941406,0.01747310161590576,2023-10-21T15:37:15.401428Z,1697902635401
0.05092740058898926,0.229217529296875,0.01760554313659668,2023-10-21T15:37:15.421703Z,1697902635421
0.05204892158508301,0.2337818145751953,0.017866134643554688,2023-10-21T15:37:15.441960Z,1697902635441
0.053462982177734375,0.23958110809326172,0.018234074115753174,2023-10-21T15:37:15.462201Z,1697902635462
0.05501389503479004,0.2458038330078125,0.018652617931365967,2023-10-21T15:37:15.484189Z,1697902635484
0.05661129951477051,0.25195789337158203,0.019066572189331055,2023-10-21T15:37:15.502726Z,1697902635502
0.05818367004394531,0.2576770782470703,0.019448041915893555,2023-10-21T15:37:15.523050Z,1697902635523
0.05971550941467285,0.2629051208496094,0.019771218299865723,2023-10-21T15:37:15.543246Z,1697902635543
0.06120944023132324,0.26766204833984375,0.020029127597808838,2023-10-21T15:37:15.563449Z,1697902635563
0.0626218318939209,0.2718019485473633,0.020208001136779785,2023-10-21T15:37:15.583832Z,1697902635583
0.06393218040466309,0.2752971649169922,0.020306766033172607,2023-10-21T15:37:15.604055Z,1697902635604
0.06515932083129883,0.2782888412475586,0.020326077938079834,2023-10-21T15:37:15.624391Z,1697902635624
0.06628847122192383,0.2808055877685547,0.02027440071105957,2023-10-21T15:37:15.644533Z,1697902635644
0.06732368469238281,0.28295421600341797,0.020168721675872803,2023-10-21T15:37:15.667212Z,1697902635667
0.0683431625366211,0.28515052795410156,0.020050883293151855,2023-10-21T15:37:15.685091Z,1697902635685
0.06945013999938965,0.2879199981689453,0.019963085651397705,2023-10-21T15:37:15.705405Z,1697902635705
0.07070779800415039,0.2916231155395508,0.01992976665496826,2023-10-21T15:37:15.725624Z,1697902635725
0.07210016250610352,0.29627227783203125,0.01996004581451416,2023-10-21T15:37:15.745832Z,1697902635745
0.07357239723205566,0.30167675018310547,0.020045161247253418,2023-10-21T15:37:15.767194Z,1697902635767
0.0750730037689209,0.3075742721557617,0.02016979455947876,2023-10-21T15:37:15.786428Z,1697902635786
0.07648944854736328,0.3133525848388672,0.020299315452575684,2023-10-21T15:37:15.806705Z,1697902635806
0.07768487930297852,0.3182821273803711,0.020409822463989258,2023-10-21T15:37:15.826944Z,1697902635826
0.07858562469482422,0.3219137191772461,0.020474791526794434,2023-10-21T15:37:15.847124Z,1697902635847
0.07916116714477539,0.32401371002197266,0.02047508955001831,2023-10-21T15:37:15.867425Z,1697902635867
0.0794212818145752,0.32459163665771484,0.020381629467010498,2023-10-21T15:37:15.887763Z,1697902635887
0.07929039001464844,0.32335948944091797,0.020162343978881836,2023-10-21T15:37:15.908017Z,1697902635907
0.07866811752319336,0.3199472427368164,0.019787967205047607,2023-10-21T15:37:15.928217Z,1697902635928
0.07750964164733887,0.31426334381103516,0.019256412982940674,2023-10-21T15:37:15.950394Z,1697902635950
0.07578659057617188,0.30625438690185547,0.018577098846435547,2023-10-21T15:37:15.968815Z,1697902635968
0.0735926628112793,0.29637718200683594,0.017794668674468994,2023-10-21T15:37:15.989074Z,1697902635989
0.07105278968811035,0.28524303436279297,0.01695317029953003,2023-10-21T15:37:16.009282Z,1697902636009
0.06825780868530273,0.27329349517822266,0.016072452068328857,2023-10-21T15:37:16.029540Z,1697902636029
0.06534004211425781,0.26110172271728516,0.015184760093688965,2023-10-21T15:37:16.050340Z,1697902636050
0.06249070167541504,0.2494335174560547,0.014333128929138184,2023-10-21T15:37:16.070163Z,1697902636070
0.05986618995666504,0.23886775970458984,0.013554871082305908,2023-10-21T15:37:16.090429Z,1697902636090
0.0575566291809082,0.2296905517578125,0.012870550155639648,2023-10-21T15:37:16.110617Z,1697902636110
0.05555438995361328,0.22181224822998047,0.012288153171539307,2023-10-21T15:37:16.133730Z,1697902636133
0.05380415916442871,0.2149658203125,0.011784791946411133,2023-10-21T15:37:16.151150Z,1697902636151
0.05228090286254883,0.20905113220214844,0.011353254318237305,2023-10-21T15:37:16.171455Z,1697902636171
0.050899505615234375,0.20371246337890625,0.01096421480178833,2023-10-21T15:37:16.191712Z,1697902636191
0.04963231086730957,0.19882583618164062,0.010603845119476318,2023-10-21T15:37:16.211922Z,1697902636211
0.04838919639587402,0.19402503967285156,0.010251283645629883,2023-10-21T15:37:16.233552Z,1697902636233
0.04705333709716797,0.18883895874023438,0.00987696647644043,2023-10-21T15:37:16.252565Z,1697902636252
0.04540205001831055,0.18236923217773438,0.009442925453186035,2023-10-21T15:37:16.272800Z,1697902636272
0.04321932792663574,0.1737537384033203,0.008902192115783691,2023-10-21T15:37:16.293010Z,1697902636292
0.04051327705383301,0.1630401611328125,0.008255153894424438,2023-10-21T15:37:16.313210Z,1697902636313
0.037396907806396484,0.15071487426757812,0.007508993148803711,2023-10-21T15:37:16.333529Z,1697902636333
0.03415107727050781,0.13792705535888672,0.006714493036270142,2023-10-21T15:37:16.353877Z,1697902636353
0.031075000762939453,0.12588119506835938,0.00591963529586792,2023-10-21T15:37:16.374125Z,1697902636374
0.02848649024963379,0.11585140228271484,0.005192577838897705,2023-10-21T15:37:16.394325Z,1697902636394
0.0266110897064209,0.10875320434570312,0.004563421010971069,2023-10-21T15:37:16.416981Z,1697902636416
0.025728940963745117,0.10574913024902344,0.004070580005645752,2023-10-21T15:37:16.434834Z,1697902636434
0.02606821060180664,0.10784626007080078,0.0037056803703308105,2023-10-21T15:37:16.455120Z,1697902636455
0.027893543243408203,0.11626625061035156,0.0034376978874206543,2023-10-21T15:37:16.475382Z,1697902636475
0.03136849403381348,0.1318817138671875,0.0031828731298446655,2023-10-21T15:37:16.495617Z,1697902636495
0.03642463684082031,0.1546468734741211,0.002804875373840332,2023-10-21T15:37:16.516792Z,1697902636516
0.04287266731262207,0.18398380279541016,0.002163343131542206,2023-10-21T15:37:16.536174Z,1697902636536
0.05027294158935547,0.21814250946044922,0.0011219419538974762,2023-10-21T15:37:16.556575Z,1697902636556
0.058121681213378906,0.25490474700927734,-3.8913730531930923E-4,2023-10-21T15:37:16.576739Z,1697902636576
0.0660092830657959,0.2922859191894531,-0.0023881345987319946,2023-10-21T15:37:16.599774Z,1697902636599
0.07364940643310547,0.3287935256958008,-0.004858881235122681,2023-10-21T15:37:16.617194Z,1697902636617
0.08081769943237305,0.3632164001464844,-0.007766991853713989,2023-10-21T15:37:16.637549Z,1697902636637
0.08733272552490234,0.3945283889770508,-0.011032342910766602,2023-10-21T15:37:16.657770Z,1697902636657
0.093048095703125,0.4218454360961914,-0.014563262462615967,2023-10-21T15:37:16.677983Z,1697902636677
0.09796667098999023,0.4449167251586914,-0.01826825737953186,2023-10-21T15:37:16.699919Z,1697902636699
0.10213494300842285,0.4637022018432617,-0.02208012342453003,2023-10-21T15:37:16.718543Z,1697902636718
0.10569119453430176,0.47858238220214844,-0.025960862636566162,2023-10-21T15:37:16.738885Z,1697902636738
0.1089015007019043,0.49059200286865234,-0.029916703701019287,2023-10-21T15:37:16.759082Z,1697902636759
0.1121368408203125,0.5014162063598633,-0.03403353691101074,2023-10-21T15:37:16.779281Z,1697902636779
0.11572384834289551,0.5126543045043945,-0.03840231895446777,2023-10-21T15:37:16.799754Z,1697902636799
0.11978650093078613,0.5251693725585938,-0.04306894540786743,2023-10-21T15:37:16.819948Z,1697902636819
0.12422466278076172,0.538884162902832,-0.04799175262451172,2023-10-21T15:37:16.840120Z,1697902636840
0.12877273559570312,0.552922248840332,-0.05303138494491577,2023-10-21T15:37:16.860375Z,1697902636860
0.13304591178894043,0.565887451171875,-0.057944416999816895,2023-10-21T15:37:16.883195Z,1697902636883
0.1366560459136963,0.5762348175048828,-0.06244361400604248,2023-10-21T15:37:16.900878Z,1697902636900
0.13937664031982422,0.5832586288452148,-0.0663294792175293,2023-10-21T15:37:16.921183Z,1697902636921
0.1410672664642334,0.5867118835449219,-0.06944823265075684,2023-10-21T15:37:16.941433Z,1697902636941
0.14160418510437012,0.586277961730957,-0.07163703441619873,2023-10-21T15:37:16.961626Z,1697902636961
0.14085602760314941,0.5813732147216797,-0.07271814346313477,2023-10-21T15:37:16.982877Z,1697902636982
0.13873934745788574,0.5712337493896484,-0.07255220413208008,2023-10-21T15:37:17.002203Z,1697902637002
0.13546109199523926,0.5561361312866211,-0.07121586799621582,2023-10-21T15:37:17.022483Z,1697902637022
0.13153719902038574,0.5378026962280273,-0.06902706623077393,2023-10-21T15:37:17.042720Z,1697902637042
0.12758350372314453,0.5187492370605469,-0.0664365291595459,2023-10-21T15:37:17.062879Z,1697902637062
0.1241292953491211,0.5013513565063477,-0.06384003162384033,2023-10-21T15:37:17.083264Z,1697902637083
0.12143898010253906,0.4870481491088867,-0.06146740913391113,2023-10-21T15:37:17.103561Z,1697902637103
0.11950182914733887,0.4759817123413086,-0.05930650234222412,2023-10-21T15:37:17.123859Z,1697902637123
0.11812019348144531,0.4673881530761719,-0.057244181632995605,2023-10-21T15:37:17.144036Z,1697902637143
0.11705684661865234,0.4603128433227539,-0.05514657497406006,2023-10-21T15:37:17.166083Z,1697902637166
0.11607217788696289,0.45383739471435547,-0.05292308330535889,2023-10-21T15:37:17.184633Z,1697902637184
0.11496138572692871,0.4473609924316406,-0.05051827430725098,2023-10-21T15:37:17.204899Z,1697902637204
0.11350059509277344,0.4402341842651367,-0.04787611961364746,2023-10-21T15:37:17.225103Z,1697902637225
0.111572265625,0.43213748931884766,-0.04498732089996338,2023-10-21T15:37:17.245303Z,1697902637245
0.1093294620513916,0.42362117767333984,-0.04194551706314087,2023-10-21T15:37:17.266163Z,1697902637266
0.10717153549194336,0.4161415100097656,-0.03892475366592407,2023-10-21T15:37:17.285930Z,1697902637285
0.10536861419677734,0.41071128845214844,-0.03601837158203125,2023-10-21T15:37:17.306267Z,1697902637306
0.10383820533752441,0.4069795608520508,-0.033176541328430176,2023-10-21T15:37:17.326470Z,1697902637326
0.10222744941711426,0.40349483489990234,-0.03026139736175537,2023-10-21T15:37:17.349377Z,1697902637349
0.10019373893737793,0.39885902404785156,-0.027189791202545166,2023-10-21T15:37:17.366956Z,1697902637366
0.09769988059997559,0.39281272888183594,-0.024012506008148193,2023-10-21T15:37:17.387279Z,1697902637387
0.09485292434692383,0.3857412338256836,-0.020814120769500732,2023-10-21T15:37:17.407524Z,1697902637407
0.09180068969726562,0.3780956268310547,-0.017686307430267334,2023-10-21T15:37:17.427757Z,1697902637427
0.08850407600402832,0.3695249557495117,-0.014674156904220581,2023-10-21T15:37:17.449465Z,1697902637449
0.0847628116607666,0.35903453826904297,-0.011793375015258789,2023-10-21T15:37:17.468293Z,1697902637468
0.08021378517150879,0.34482383728027344,-0.009065836668014526,2023-10-21T15:37:17.488625Z,1697902637488
0.07470965385437012,0.3259572982788086,-0.00655856728553772,2023-10-21T15:37:17.508795Z,1697902637508
0.06842398643493652,0.30293846130371094,-0.004368498921394348,2023-10-21T15:37:17.529009Z,1697902637528
0.06165766716003418,0.2770061492919922,-0.002579525113105774,2023-10-21T15:37:17.549372Z,1697902637549
0.054764747619628906,0.2497272491455078,-0.0012227818369865417,2023-10-21T15:37:17.569677Z,1697902637569
0.04788017272949219,0.22181129455566406,-2.6990752667188644E-4,2023-10-21T15:37:17.589933Z,1697902637589
0.04108476638793945,0.1936511993408203,3.1694211065769196E-4,2023-10-21T15:37:17.610255Z,1697902637610
0.03449130058288574,0.16582965850830078,5.949586629867554E-4,2023-10-21T15:37:17.632749Z,1697902637632
0.028275132179260254,0.13918113708496094,6.463378667831421E-4,2023-10-21T15:37:17.650686Z,1697902637650
0.022587299346923828,0.11433887481689453,5.487240850925446E-4,2023-10-21T15:37:17.671014Z,1697902637670
0.017569422721862793,0.09191608428955078,3.8407742977142334E-4,2023-10-21T15:37:17.691231Z,1697902637691
0.013294100761413574,0.07222652435302734,2.021361142396927E-4,2023-10-21T15:37:17.711424Z,1697902637711
0.009716629981994629,0.05505657196044922,4.030205309391022E-5,2023-10-21T15:37:17.732702Z,1697902637732
0.006782889366149902,0.040233612060546875,-7.821619510650635E-5,2023-10-21T15:37:17.752076Z,1697902637751
0.004362702369689941,0.027177810668945312,-1.4037266373634338E-4,2023-10-21T15:37:17.772336Z,1697902637772
0.0022897720336914062,0.015020370483398438,-1.2996792793273926E-4,2023-10-21T15:37:17.792523Z,1697902637792
5.433559417724609E-4,0.0037584304809570312,-4.600733518600464E-5,2023-10-21T15:37:17.815914Z,1697902637815
-7.787942886352539E-4,-0.005680084228515625,9.168684482574463E-5,2023-10-21T15:37:17.833100Z,1697902637833
-0.0013941526412963867,-0.010684967041015625,2.0778179168701172E-4,2023-10-21T15:37:17.853405Z,1697902637853
-9.845495223999023E-4,-0.007891654968261719,1.80855393409729E-4,2023-10-21T15:37:17.873634Z,1697902637873
6.884336471557617E-4,0.0057277679443359375,-1.5160441398620605E-4,2023-10-21T15:37:17.893827Z,1697902637893
0.003725409507751465,0.031935691833496094,-9.543299674987793E-4,2023-10-21T15:37:17.915766Z,1697902637915
0.008144736289978027,0.07146835327148438,-0.0023735463619232178,2023-10-21T15:37:17.934412Z,1697902637934
0.013894915580749512,0.12421894073486328,-0.004514515399932861,2023-10-21T15:37:17.954648Z,1697902637954
0.020824313163757324,0.18914508819580078,-0.007412523031234741,2023-10-21T15:37:17.974877Z,1697902637974
0.028772592544555664,0.26531505584716797,-0.011051028966903687,2023-10-21T15:37:17.995068Z,1697902637995
0.037488341331481934,0.35145092010498047,-0.015363812446594238,2023-10-21T15:37:18.016186Z,1697902638016
0.0465773344039917,0.4455556869506836,-0.020218640565872192,2023-10-21T15:37:18.035739Z,1697902638035
0.05541020631790161,0.543635368347168,-0.025315552949905396,2023-10-21T15:37:18.055962Z,1697902638055
0.06317406892776489,0.6399402618408203,-0.03015834093093872,2023-10-21T15:37:18.076252Z,1697902638076
0.06919115781784058,0.7286701202392578,-0.03418800234794617,2023-10-21T15:37:18.098902Z,1697902638098
0.07309198379516602,0.8052797317504883,-0.036894649267196655,2023-10-21T15:37:18.116757Z,1697902638116
0.07491052150726318,0.8670797348022461,-0.03804922103881836,2023-10-21T15:37:18.137032Z,1697902638136
0.07498323917388916,0.9132146835327148,-0.03771930932998657,2023-10-21T15:37:18.157285Z,1697902638157
0.07383275032043457,0.9448299407958984,-0.03623199462890625,2023-10-21T15:37:18.177496Z,1697902638177
0.07197362184524536,0.9636049270629883,-0.03398162126541138,2023-10-21T15:37:18.198991Z,1697902638198
0.06974828243255615,0.9702491760253906,-0.031224817037582397,2023-10-21T15:37:18.218098Z,1697902638218
0.06737983226776123,0.9653072357177734,-0.028140991926193237,2023-10-21T15:37:18.238389Z,1697902638238
0.06498271226882935,0.9492177963256836,-0.024867862462997437,2023-10-21T15:37:18.258536Z,1697902638258
0.06266242265701294,0.9234123229980469,-0.021599531173706055,2023-10-21T15:37:18.278737Z,1697902638278
0.060514986515045166,0.8899631500244141,-0.01857377588748932,2023-10-21T15:37:18.299067Z,1697902638299
0.058561503887176514,0.8509902954101562,-0.016022473573684692,2023-10-21T15:37:18.319369Z,1697902638319
0.05681854486465454,0.8087625503540039,-0.014108747243881226,2023-10-21T15:37:18.339653Z,1697902638339
0.05518031120300293,0.7640018463134766,-0.012809410691261292,2023-10-21T15:37:18.359928Z,1697902638359
0.053389787673950195,0.7155475616455078,-0.011959120631217957,2023-10-21T15:37:18.382093Z,1697902638382
0.051150381565093994,0.6612091064453125,-0.011305689811706543,2023-10-21T15:37:18.400408Z,1697902638400
0.048313140869140625,0.6001052856445312,-0.01064687967300415,2023-10-21T15:37:18.420736Z,1697902638420
0.04487878084182739,0.5327911376953125,-0.009901508688926697,2023-10-21T15:37:18.440891Z,1697902638440
0.04098767042160034,0.46169090270996094,-0.009086832404136658,2023-10-21T15:37:18.465964Z,1697902638465
0.03684186935424805,0.39043426513671875,-0.008251875638961792,2023-10-21T15:37:18.482905Z,1697902638482
0.03259539604187012,0.32262134552001953,-0.007405504584312439,2023-10-21T15:37:18.501763Z,1697902638501
0.028355002403259277,0.2608022689819336,-0.006515800952911377,2023-10-21T15:37:18.522083Z,1697902638522
0.02419257164001465,0.2062692642211914,-0.0055547356605529785,2023-10-21T15:37:18.542278Z,1697902638542
0.020398736000061035,0.16110610961914062,-0.004605740308761597,2023-10-21T15:37:18.565672Z,1697902638565
0.01769256591796875,0.12938785552978516,-0.0038654208183288574,2023-10-21T15:37:18.582772Z,1697902638582
0.017054438591003418,0.11548995971679688,-0.003565549850463867,2023-10-21T15:37:18.603098Z,1697902638603
0.019408702850341797,0.12183380126953125,-0.0038420557975769043,2023-10-21T15:37:18.623345Z,1697902638623
0.02526247501373291,0.14737796783447266,-0.004673510789871216,2023-10-21T15:37:18.643564Z,1697902638643
0.034535884857177734,0.1880664825439453,-0.005854666233062744,2023-10-21T15:37:18.665352Z,1697902638665
0.04652512073516846,0.23799991607666016,-0.007020473480224609,2023-10-21T15:37:18.684096Z,1697902638684
0.06014204025268555,0.29123401641845703,-0.0077568888664245605,2023-10-21T15:37:18.704404Z,1697902638704
0.07446813583374023,0.34404468536376953,-0.00776343047618866,2023-10-21T15:37:18.724620Z,1697902638724
0.08884596824645996,0.39450836181640625,-0.006871163845062256,2023-10-21T15:37:18.744833Z,1697902638744
0.10283875465393066,0.44170475006103516,-0.00503096729516983,2023-10-21T15:37:18.765158Z,1697902638765
0.11573410034179688,0.48350048065185547,-0.002241097390651703,2023-10-21T15:37:18.785486Z,1697902638785
0.12676167488098145,0.5176467895507812,0.0014078468084335327,2023-10-21T15:37:18.805751Z,1697902638805
0.13532710075378418,0.542567253112793,0.005722850561141968,2023-10-21T15:37:18.825913Z,1697902638825
0.14107751846313477,0.5576705932617188,0.010434329509735107,2023-10-21T15:37:18.848589Z,1697902638848
0.1441183090209961,0.5637426376342773,0.015264123678207397,2023-10-21T15:37:18.866492Z,1697902638866
0.14484643936157227,0.5622110366821289,0.019965410232543945,2023-10-21T15:37:18.886791Z,1697902638886
0.14381766319274902,0.5547981262207031,0.02435612678527832,2023-10-21T15:37:18.907016Z,1697902638906
0.14124584197998047,0.5420198440551758,0.028280794620513916,2023-10-21T15:37:18.927258Z,1697902638927
0.13701915740966797,0.5233678817749023,0.03157210350036621,2023-10-21T15:37:18.948311Z,1697902638948
0.13058757781982422,0.4969034194946289,0.03400599956512451,2023-10-21T15:37:18.967811Z,1697902638967
0.12150263786315918,0.46106624603271484,0.035319745540618896,2023-10-21T15:37:18.988132Z,1697902638988
0.10951995849609375,0.41494083404541016,0.03523707389831543,2023-10-21T15:37:19.008297Z,1697902639008
0.09463644027709961,0.35840415954589844,0.033463239669799805,2023-10-21T15:37:19.031720Z,1697902639031
0.0771338939666748,0.2922353744506836,0.029751896858215332,2023-10-21T15:37:19.048847Z,1697902639048
0.05718231201171875,0.21687698364257812,0.023883342742919922,2023-10-21T15:37:19.069175Z,1697902639069
0.0348355770111084,0.13232898712158203,0.01564323902130127,2023-10-21T15:37:19.089401Z,1697902639089
0.010367155075073242,0.039460182189941406,0.00497281551361084,2023-10-21T15:37:19.109632Z,1697902639109
-0.015474319458007812,-0.05904388427734375,-0.007874488830566406,2023-10-21T15:37:19.131585Z,1697902639131
-0.04132437705993652,-0.15807151794433594,-0.022119641304016113,2023-10-21T15:37:19.150201Z,1697902639150
-0.0654609203338623,-0.25099849700927734,-0.03647410869598389,2023-10-21T15:37:19.170495Z,1697902639170
-0.08634161949157715,-0.33171844482421875,-0.049521446228027344,2023-10-21T15:37:19.190711Z,1697902639190
-0.10285091400146484,-0.39563465118408203,-0.06003975868225098,2023-10-21T15:37:19.210926Z,1697902639210
-0.11430048942565918,-0.4399404525756836,-0.0672217607498169,2023-10-21T15:37:19.231580Z,1697902639231
-0.12007498741149902,-0.46233654022216797,-0.07051539421081543,2023-10-21T15:37:19.251519Z,1697902639251
-0.11961531639099121,-0.4609336853027344,-0.06958246231079102,2023-10-21T15:37:19.271788Z,1697902639271
-0.1123502254486084,-0.43380069732666016,-0.06425952911376953,2023-10-21T15:37:19.292071Z,1697902639292
-0.09842038154602051,-0.38136768341064453,-0.05498003959655762,2023-10-21T15:37:19.314898Z,1697902639314
-0.07865619659423828,-0.306488037109375,-0.04272782802581787,2023-10-21T15:37:19.332542Z,1697902639332
-0.05446147918701172,-0.2138957977294922,-0.02872931957244873,2023-10-21T15:37:19.352864Z,1697902639352
-0.02746868133544922,-0.1090555191040039,-0.014097332954406738,2023-10-21T15:37:19.373105Z,1697902639373
7.636547088623047E-4,0.0030698776245117188,3.815889358520508E-4,2023-10-21T15:37:19.393357Z,1697902639393
0.02885127067565918,0.11831378936767578,0.014211893081665039,2023-10-21T15:37:19.414900Z,1697902639414
0.05557894706726074,0.23302364349365234,0.027045726776123047,2023-10-21T15:37:19.433888Z,1697902639433
0.07979011535644531,0.34331798553466797,0.0385746955871582,2023-10-21T15:37:19.454192Z,1697902639454
0.10056328773498535,0.44547367095947266,0.04857170581817627,2023-10-21T15:37:19.474449Z,1697902639474
0.11725807189941406,0.5362701416015625,0.05691492557525635,2023-10-21T15:37:19.494623Z,1697902639494
0.12979984283447266,0.6144609451293945,0.06361663341522217,2023-10-21T15:37:19.514921Z,1697902639514
0.13857007026672363,0.6806297302246094,0.06878221035003662,2023-10-21T15:37:19.535214Z,1697902639535
0.14398455619812012,0.7354316711425781,0.07248377799987793,2023-10-21T15:37:19.555637Z,1697902639555
0.14649856090545654,0.7796669006347656,0.07480823993682861,2023-10-21T15:37:19.575700Z,1697902639575
0.14652276039123535,0.8141374588012695,0.07585388422012329,2023-10-21T15:37:19.598090Z,1697902639598
0.14446210861206055,0.8396368026733398,0.07575970888137817,2023-10-21T15:37:19.616238Z,1697902639616
0.14064466953277588,0.8567657470703125,0.07466244697570801,2023-10-21T15:37:19.636552Z,1697902639636
0.13530075550079346,0.8653583526611328,0.07265162467956543,2023-10-21T15:37:19.656834Z,1697902639656
0.12869977951049805,0.8651914596557617,0.06978261470794678,2023-10-21T15:37:19.676982Z,1697902639676
0.12127745151519775,0.8564939498901367,0.06608796119689941,2023-10-21T15:37:19.697936Z,1697902639697
0.1135627031326294,0.8403244018554688,0.061673760414123535,2023-10-21T15:37:19.717582Z,1697902639717
0.1059187650680542,0.8172101974487305,0.056622207164764404,2023-10-21T15:37:19.737878Z,1697902639737
0.09840691089630127,0.7861843109130859,0.050975680351257324,2023-10-21T15:37:19.758093Z,1697902639758
0.09077799320220947,0.744807243347168,0.04475986957550049,2023-10-21T15:37:19.781373Z,1697902639781
0.08272445201873779,0.6905221939086914,0.0380672812461853,2023-10-21T15:37:19.798560Z,1697902639798
0.07406139373779297,0.6225690841674805,0.031086087226867676,2023-10-21T15:37:19.818923Z,1697902639818
0.06478726863861084,0.5422744750976562,0.024096518754959106,2023-10-21T15:37:19.839096Z,1697902639839
0.0549846887588501,0.45264339447021484,0.01742541790008545,2023-10-21T15:37:19.859352Z,1697902639859
0.044793009757995605,0.35803699493408203,0.01145470142364502,2023-10-21T15:37:19.881186Z,1697902639881
0.03439617156982422,0.26374244689941406,0.0065687596797943115,2023-10-21T15:37:19.899945Z,1697902639899
0.023935794830322266,0.17428016662597656,0.003018975257873535,2023-10-21T15:37:19.920315Z,1697902639920
0.013612747192382812,0.09340381622314453,8.865892887115479E-4,2023-10-21T15:37:19.940518Z,1697902639940
0.003863811492919922,0.024854660034179688,3.760308027267456E-5,2023-10-21T15:37:19.960684Z,1697902639960
-0.004450678825378418,-0.026755332946777344,1.694411039352417E-4,2023-10-21T15:37:19.981024Z,1697902639980
-0.010015010833740234,-0.05614280700683594,7.927119731903076E-4,2023-10-21T15:37:20.001367Z,1697902640001
-0.011294007301330566,-0.059044837951660156,0.0012799203395843506,2023-10-21T15:37:20.021591Z,1697902640021
-0.0069686174392700195,-0.034046173095703125,9.774565696716309E-4,2023-10-21T15:37:20.041822Z,1697902640041
0.0037255287170410156,0.017061233520507812,-5.967020988464355E-4,2023-10-21T15:37:20.064046Z,1697902640063
0.02066779136657715,0.08919811248779297,-0.0035481154918670654,2023-10-21T15:37:20.082317Z,1697902640082
0.04288196563720703,0.175262451171875,-0.0075394511222839355,2023-10-21T15:37:20.102629Z,1697902640102
0.06881928443908691,0.2677879333496094,-0.011925488710403442,2023-10-21T15:37:20.122815Z,1697902640122
0.09668684005737305,0.360198974609375,-0.01596251130104065,2023-10-21T15:37:20.143029Z,1697902640142
0.12473249435424805,0.44737720489501953,-0.019045710563659668,2023-10-21T15:37:20.164164Z,1697902640164
0.15121102333068848,0.5250568389892578,-0.020732343196868896,2023-10-21T15:37:20.183683Z,1697902640183
0.17437148094177246,0.5891952514648438,-0.020788908004760742,2023-10-21T15:37:20.203954Z,1697902640203
0.19275212287902832,0.6365375518798828,-0.019234418869018555,2023-10-21T15:37:20.224188Z,1697902640224
0.20554733276367188,0.6655778884887695,-0.01636219024658203,2023-10-21T15:37:20.247506Z,1697902640247
0.2127828598022461,0.677154541015625,-0.012634947896003723,2023-10-21T15:37:20.264692Z,1697902640264
0.21507668495178223,0.673863410949707,-0.008532583713531494,2023-10-21T15:37:20.285014Z,1697902640284
0.21310806274414062,0.6584177017211914,-0.004414968192577362,2023-10-21T15:37:20.305254Z,1697902640305
0.2074413299560547,0.6330146789550781,-5.183033645153046E-4,2023-10-21T15:37:20.325519Z,1697902640325
0.19863152503967285,0.5995330810546875,0.0030224211513996124,2023-10-21T15:37:20.347240Z,1697902640347
0.18734335899353027,0.560032844543457,0.00613895058631897,2023-10-21T15:37:20.366053Z,1697902640365
0.17405152320861816,0.5159025192260742,0.008791446685791016,2023-10-21T15:37:20.386325Z,1697902640386
0.15889358520507812,0.4675130844116211,0.010947227478027344,2023-10-21T15:37:20.406519Z,1697902640406
0.14166045188903809,0.4142265319824219,0.012507110834121704,2023-10-21T15:37:20.426769Z,1697902640426
0.12230372428894043,0.3558979034423828,0.013331681489944458,2023-10-21T15:37:20.447695Z,1697902640447
0.10097885131835938,0.29292774200439453,0.013240039348602295,2023-10-21T15:37:20.467321Z,1697902640467
0.0777883529663086,0.22544002532958984,0.012036740779876709,2023-10-21T15:37:20.487629Z,1697902640487
0.05254936218261719,0.15252017974853516,0.00945591926574707,2023-10-21T15:37:20.507868Z,1697902640507
0.024982452392578125,0.07275390625,0.005164504051208496,2023-10-21T15:37:20.530804Z,1697902640530
-0.004602670669555664,-0.013461112976074219,-0.0010783076286315918,2023-10-21T15:37:20.548462Z,1697902640548
-0.03509068489074707,-0.10307025909423828,-0.009198129177093506,2023-10-21T15:37:20.568769Z,1697902640568
-0.06474661827087402,-0.1908721923828125,-0.01863574981689453,2023-10-21T15:37:20.588953Z,1697902640588
-0.09187960624694824,-0.2717618942260742,-0.028519392013549805,2023-10-21T15:37:20.609149Z,1697902640609
-0.1153268814086914,-0.34229469299316406,-0.037961721420288086,2023-10-21T15:37:20.630399Z,1697902640630
-0.13454198837280273,-0.40083789825439453,-0.046311378479003906,2023-10-21T15:37:20.649773Z,1697902640649
-0.14896178245544434,-0.44550514221191406,-0.0529862642288208,2023-10-21T15:37:20.670077Z,1697902640670
-0.15782809257507324,-0.4736175537109375,-0.057369232177734375,2023-10-21T15:37:20.690317Z,1697902640690
-0.15999817848205566,-0.4813995361328125,-0.058779120445251465,2023-10-21T15:37:20.710461Z,1697902640710
-0.15459823608398438,-0.4663047790527344,-0.05684316158294678,2023-10-21T15:37:20.730762Z,1697902640730
-0.14171195030212402,-0.42899227142333984,-0.051836490631103516,2023-10-21T15:37:20.751091Z,1697902640751
-0.12240219116210938,-0.37288951873779297,-0.04449748992919922,2023-10-21T15:37:20.771360Z,1697902640771
-0.09822416305541992,-0.3022489547729492,-0.03561842441558838,2023-10-21T15:37:20.791625Z,1697902640791
-0.07044720649719238,-0.21982955932617188,-0.02563321590423584,2023-10-21T15:37:20.813844Z,1697902640813
-0.0398869514465332,-0.12673282623291016,-0.014660120010375977,2023-10-21T15:37:20.832095Z,1697902640832
-0.007477998733520508,-0.024297714233398438,-0.0027931928634643555,2023-10-21T15:37:20.852420Z,1697902640852
0.025049448013305664,0.08365440368652344,0.00958561897277832,2023-10-21T15:37:20.872663Z,1697902640872
0.05553412437438965,0.19150447845458984,0.02192378044128418,2023-10-21T15:37:20.892874Z,1697902640892
0.08208608627319336,0.29360485076904297,0.0336381196975708,2023-10-21T15:37:20.913585Z,1697902640913
0.10393571853637695,0.38712120056152344,0.04438304901123047,2023-10-21T15:37:20.933406Z,1697902640933
0.12121081352233887,0.47157859802246094,0.053967833518981934,2023-10-21T15:37:20.953703Z,1697902640953
0.1342906951904297,0.5468330383300781,0.06219840049743652,2023-10-21T15:37:20.973906Z,1697902640973
0.1433849334716797,0.6116228103637695,0.06879293918609619,2023-10-21T15:37:20.997082Z,1697902640997
0.14860057830810547,0.66387939453125,0.07345831394195557,2023-10-21T15:37:21.014456Z,1697902641014
0.15010881423950195,0.7017955780029297,0.07598710060119629,2023-10-21T15:37:21.035156Z,1697902641035
0.1482391357421875,0.7245492935180664,0.07631838321685791,2023-10-21T15:37:21.055347Z,1697902641055
0.14335012435913086,0.7321977615356445,0.07454383373260498,2023-10-21T15:37:21.075569Z,1697902641075
0.13589847087860107,0.7257041931152344,0.0709075927734375,2023-10-21T15:37:21.096943Z,1697902641096
0.12643373012542725,0.7064723968505859,0.06573575735092163,2023-10-21T15:37:21.116155Z,1697902641116
0.11575460433959961,0.6768646240234375,0.059414803981781006,2023-10-21T15:37:21.136446Z,1697902641136
0.1046750545501709,0.6396293640136719,0.05232721567153931,2023-10-21T15:37:21.156633Z,1697902641156
0.0936352014541626,0.5962438583374023,0.044780433177948,2023-10-21T15:37:21.176800Z,1697902641176
0.08276104927062988,0.5468921661376953,0.037036776542663574,2023-10-21T15:37:21.197138Z,1697902641197
0.07186174392700195,0.49033260345458984,0.029323220252990723,2023-10-21T15:37:21.217486Z,1697902641217
0.060855984687805176,0.42618370056152344,0.021915435791015625,2023-10-21T15:37:21.237712Z,1697902641237
0.04990041255950928,0.3559541702270508,0.015146493911743164,2023-10-21T15:37:21.257942Z,1697902641257
0.03920018672943115,0.2821035385131836,0.00934937596321106,2023-10-21T15:37:21.280182Z,1697902641280
0.028880596160888672,0.2073974609375,0.004806950688362122,2023-10-21T15:37:21.298496Z,1697902641298
0.018929123878479004,0.1341419219970703,0.0017116665840148926,2023-10-21T15:37:21.318866Z,1697902641318
0.009266495704650879,0.06411552429199219,1.302286982536316E-4,2023-10-21T15:37:21.339082Z,1697902641338
-9.453296661376953E-5,-6.313323974609375E-4,5.3942203521728516E-6,2023-10-21T15:37:21.359269Z,1697902641359
-0.008835792541503906,-0.056671142578125,0.0011142939329147339,2023-10-21T15:37:21.380099Z,1697902641380
-0.0163424015045166,-0.09978675842285156,0.003031700849533081,2023-10-21T15:37:21.399875Z,1697902641399
-0.021707773208618164,-0.12559795379638672,0.0051389336585998535,2023-10-21T15:37:21.420115Z,1697902641420
-0.023916959762573242,-0.13080787658691406,0.006689488887786865,2023-10-21T15:37:21.440329Z,1697902641440
-0.02200329303741455,-0.11369132995605469,0.006924629211425781,2023-10-21T15:37:21.463317Z,1697902641463
-0.014919757843017578,-0.07291316986083984,0.005104541778564453,2023-10-21T15:37:21.480861Z,1697902641480
-0.0019481182098388672,-0.009027481079101562,7.059574127197266E-4,2023-10-21T15:37:21.501242Z,1697902641501
0.016995906829833984,0.0750284194946289,-0.006389141082763672,2023-10-21T15:37:21.521362Z,1697902641521
0.04094266891479492,0.17311668395996094,-0.015674710273742676,2023-10-21T15:37:21.541593Z,1697902641541
0.06798148155212402,0.2771167755126953,-0.02610999345779419,2023-10-21T15:37:21.563086Z,1697902641563
0.09589171409606934,0.37951087951660156,-0.0365140438079834,2023-10-21T15:37:21.582224Z,1697902641582
0.12281394004821777,0.47525501251220703,-0.04598212242126465,2023-10-21T15:37:21.602535Z,1697902641602
0.14746856689453125,0.5617055892944336,-0.05400252342224121,2023-10-21T15:37:21.622687Z,1697902641622
0.16871976852416992,0.6364278793334961,-0.06022292375564575,2023-10-21T15:37:21.642887Z,1697902641642
0.1854417324066162,0.6964197158813477,-0.06433069705963135,2023-10-21T15:37:21.663223Z,1697902641663
0.19666790962219238,0.7383260726928711,-0.06610625982284546,2023-10-21T15:37:21.683544Z,1697902641683
0.20222067832946777,0.7608833312988281,-0.06569302082061768,2023-10-21T15:37:21.703780Z,1697902641703
0.20273184776306152,0.7654361724853516,-0.06357043981552124,2023-10-21T15:37:21.724007Z,1697902641723
0.19924712181091309,0.755030632019043,-0.060305774211883545,2023-10-21T15:37:21.746273Z,1697902641746
0.19292569160461426,0.7334699630737305,-0.05641818046569824,2023-10-21T15:37:21.764581Z,1697902641764
0.18490052223205566,0.7047271728515625,-0.052303850650787354,2023-10-21T15:37:21.784878Z,1697902641784
0.17591643333435059,0.671360969543457,-0.048101186752319336,2023-10-21T15:37:21.805122Z,1697902641805
0.16628241539001465,0.6344356536865234,-0.043797194957733154,2023-10-21T15:37:21.825311Z,1697902641825
0.15583276748657227,0.5935993194580078,-0.03927403688430786,2023-10-21T15:37:21.845977Z,1697902641845
0.14418506622314453,0.5480432510375977,-0.034472107887268066,2023-10-21T15:37:21.866004Z,1697902641865
0.13097453117370605,0.4972982406616211,-0.029418110847473145,2023-10-21T15:37:21.886216Z,1697902641886
0.1160898208618164,0.4415473937988281,-0.02422100305557251,2023-10-21T15:37:21.906516Z,1697902641906
0.09942364692687988,0.3804616928100586,-0.018999338150024414,2023-10-21T15:37:21.929582Z,1697902641929
0.08080720901489258,0.3126802444458008,-0.013867318630218506,2023-10-21T15:37:21.946915Z,1697902641946
0.0599362850189209,0.2357025146484375,-0.0089741051197052,2023-10-21T15:37:21.967235Z,1697902641967
0.03667497634887695,0.14719581604003906,-0.004597127437591553,2023-10-21T15:37:21.987493Z,1697902641987
0.011753320693969727,0.04826927185058594,-0.0011674463748931885,2023-10-21T15:37:22.007755Z,1697902642007
-0.013344287872314453,-0.05613136291503906,9.812116622924805E-4,2023-10-21T15:37:22.029595Z,1697902642029
-0.03677082061767578,-0.15830612182617188,0.0018358305096626282,2023-10-21T15:37:22.048270Z,1697902642048
-0.0571131706237793,-0.2510395050048828,0.0017242282629013062,2023-10-21T15:37:22.068574Z,1697902642068
-0.07338786125183105,-0.327850341796875,0.0011174827814102173,2023-10-21T15:37:22.088799Z,1697902642088
-0.08503174781799316,-0.3835124969482422,4.711439833045006E-4,2023-10-21T15:37:22.108988Z,1697902642108
-0.09140729904174805,-0.41269874572753906,1.324499025940895E-4,2023-10-21T15:37:22.129396Z,1697902642129
-0.09171724319458008,-0.4110116958618164,2.5528203696012497E-4,2023-10-21T15:37:22.149613Z,1697902642149
-0.08519291877746582,-0.3764829635620117,7.137078791856766E-4,2023-10-21T15:37:22.169879Z,1697902642169
-0.07129240036010742,-0.3098783493041992,0.0011275559663772583,2023-10-21T15:37:22.190168Z,1697902642190
-0.05054211616516113,-0.21643924713134766,0.001117754727602005,2023-10-21T15:37:22.212863Z,1697902642212
-0.024527549743652344,-0.10396957397460938,6.093420088291168E-4,2023-10-21T15:37:22.230691Z,1697902642230
0.004427909851074219,0.018685340881347656,-1.0282918810844421E-4,2023-10-21T15:37:22.250983Z,1697902642250
0.034230947494506836,0.14475059509277344,-5.691349506378174E-4,2023-10-21T15:37:22.271216Z,1697902642271
0.06287169456481934,0.2680330276489258,-4.230104386806488E-4,2023-10-21T15:37:22.291423Z,1697902642291
0.08844876289367676,0.3826789855957031,4.8719439655542374E-4,2023-10-21T15:37:22.312778Z,1697902642312
0.10907554626464844,0.4825725555419922,0.0020967014133930206,2023-10-21T15:37:22.331929Z,1697902642331
0.12372350692749023,0.5641250610351562,0.004132091999053955,2023-10-21T15:37:22.352303Z,1697902642352
0.1325693130493164,0.6272048950195312,0.006181247532367706,2023-10-21T15:37:22.372463Z,1697902642372
0.13663864135742188,0.6737060546875,0.007782295346260071,2023-10-21T15:37:22.396032Z,1697902642395
0.13727426528930664,0.7064647674560547,0.008547075092792511,2023-10-21T15:37:22.413156Z,1697902642413
0.13566970825195312,0.728266716003418,0.008263662457466125,2023-10-21T15:37:22.433291Z,1697902642433
0.13271760940551758,0.7419414520263672,0.006904870271682739,2023-10-21T15:37:22.453549Z,1697902642453
0.12903177738189697,0.7501125335693359,0.004601284861564636,2023-10-21T15:37:22.473799Z,1697902642473
0.12497782707214355,0.7552213668823242,0.0015299636870622635,2023-10-21T15:37:22.495992Z,1697902642495
0.12064993381500244,0.7583303451538086,-0.0020936373621225357,2023-10-21T15:37:22.514310Z,1697902642514
0.11597716808319092,0.7589693069458008,-0.006048828363418579,2023-10-21T15:37:22.534668Z,1697902642534
0.11081242561340332,0.7556648254394531,-0.010105744004249573,2023-10-21T15:37:22.554857Z,1697902642554
0.10510540008544922,0.747502326965332,-0.014076322317123413,2023-10-21T15:37:22.575123Z,1697902642575
0.09870266914367676,0.7328071594238281,-0.01774945855140686,2023-10-21T15:37:22.595878Z,1697902642595
0.09128785133361816,0.7084321975708008,-0.020830512046813965,2023-10-21T15:37:22.615649Z,1697902642615
0.08243048191070557,0.6700267791748047,-0.022924065589904785,2023-10-21T15:37:22.635966Z,1697902642635
0.07211589813232422,0.6156253814697266,-0.023747146129608154,2023-10-21T15:37:22.656156Z,1697902642656
0.0608748197555542,0.5472307205200195,-0.023267924785614014,2023-10-21T15:37:22.679022Z,1697902642678
0.04951155185699463,0.46918582916259766,-0.021668702363967896,2023-10-21T15:37:22.696716Z,1697902642696
0.038706064224243164,0.38593196868896484,-0.01918691396713257,2023-10-21T15:37:22.716988Z,1697902642716
0.029056131839752197,0.303466796875,-0.01616227626800537,2023-10-21T15:37:22.737223Z,1697902642737
0.02113795280456543,0.22968673706054688,-0.013070285320281982,2023-10-21T15:37:22.757438Z,1697902642757
0.015409708023071289,0.1725921630859375,-0.010464489459991455,2023-10-21T15:37:22.778959Z,1697902642778
0.0121956467628479,0.13896751403808594,-0.008936285972595215,2023-10-21T15:37:22.798088Z,1697902642798
0.011489808559417725,0.13101863861083984,-0.008865416049957275,2023-10-21T15:37:22.818327Z,1697902642818
0.013205647468566895,0.14763450622558594,-0.010390639305114746,2023-10-21T15:37:22.838543Z,1697902642838
0.017039060592651367,0.18308544158935547,-0.013203799724578857,2023-10-21T15:37:22.858739Z,1697902642858
0.022582530975341797,0.22967815399169922,-0.01667940616607666,2023-10-21T15:37:22.879039Z,1697902642879
0.02945113182067871,0.2810840606689453,-0.020177841186523438,2023-10-21T15:37:22.899415Z,1697902642899
0.03746199607849121,0.33435630798339844,-0.023299753665924072,2023-10-21T15:37:22.919604Z,1697902642919
0.04649388790130615,0.3875389099121094,-0.025771141052246094,2023-10-21T15:37:22.939879Z,1697902642939
0.056224703788757324,0.4369697570800781,-0.027268588542938232,2023-10-21T15:37:22.962276Z,1697902642962
0.06600844860076904,0.477447509765625,-0.027489900588989258,2023-10-21T15:37:22.980378Z,1697902642980
0.07497096061706543,0.5042514801025391,-0.026296257972717285,2023-10-21T15:37:23.000672Z,1697902643000
0.08273744583129883,0.5178432464599609,-0.024008363485336304,2023-10-21T15:37:23.020884Z,1697902643020
0.08929669857025146,0.5215225219726562,-0.02111789584159851,2023-10-21T15:37:23.041101Z,1697902643041
0.09513235092163086,0.5203390121459961,-0.0181310772895813,2023-10-21T15:37:23.062310Z,1697902643062
0.10074257850646973,0.5176753997802734,-0.015342563390731812,2023-10-21T15:37:23.081752Z,1697902643081
0.10647821426391602,0.5151424407958984,-0.012856781482696533,2023-10-21T15:37:23.102007Z,1697902643101
0.11240363121032715,0.5129070281982422,-0.010641053318977356,2023-10-21T15:37:23.122201Z,1697902643122
0.11835980415344238,0.5104169845581055,-0.008609354496002197,2023-10-21T15:37:23.145765Z,1697902643145
0.12380576133728027,0.5060739517211914,-0.006648898124694824,2023-10-21T15:37:23.163044Z,1697902643163
0.1279151439666748,0.4974508285522461,-0.0046866536140441895,2023-10-21T15:37:23.183080Z,1697902643183
0.1297626495361328,0.48204517364501953,-0.002717595547437668,2023-10-21T15:37:23.203316Z,1697902643203
0.12886452674865723,0.4592142105102539,-8.074026554822922E-4,2023-10-21T15:37:23.223579Z,1697902643223
0.12487268447875977,0.42865753173828125,9.648948907852173E-4,2023-10-21T15:37:23.245371Z,1697902643245
0.11729240417480469,0.38939571380615234,0.0025401413440704346,2023-10-21T15:37:23.264085Z,1697902643264
0.10523819923400879,0.33925628662109375,0.003805205225944519,2023-10-21T15:37:23.284401Z,1697902643284
0.08818221092224121,0.27728939056396484,0.004547610878944397,2023-10-21T15:37:23.304627Z,1697902643304
0.0675206184387207,0.20821380615234375,0.004548162221908569,2023-10-21T15:37:23.324837Z,1697902643324
0.04593539237976074,0.139801025390625,0.0037971138954162598,2023-10-21T15:37:23.345364Z,1697902643345
0.026608705520629883,0.0804595947265625,0.0025671422481536865,2023-10-21T15:37:23.365468Z,1697902643365
0.011666297912597656,0.03528022766113281,0.0012678205966949463,2023-10-21T15:37:23.385782Z,1697902643385
0.0020432472229003906,0.0062103271484375,2.4369359016418457E-4,2023-10-21T15:37:23.405962Z,1697902643405
-0.002515077590942383,-0.007721900939941406,-3.235042095184326E-4,2023-10-21T15:37:23.428519Z,1697902643428
-0.0025076866149902344,-0.0077991485595703125,-3.432631492614746E-4,2023-10-21T15:37:23.446505Z,1697902643446
0.0016331672668457031,0.005166053771972656,2.359151840209961E-4,2023-10-21T15:37:23.466849Z,1697902643466
0.009758472442626953,0.03154468536376953,0.0014851093292236328,2023-10-21T15:37:23.487141Z,1697902643487
0.02129364013671875,0.07059001922607422,0.003383338451385498,2023-10-21T15:37:23.507206Z,1697902643507
0.034188032150268555,0.1165475845336914,0.005677640438079834,2023-10-21T15:37:23.528511Z,1697902643528
0.046137094497680664,0.1620197296142578,0.008075505495071411,2023-10-21T15:37:23.547841Z,1697902643547
0.05540823936462402,0.20074081420898438,0.010341882705688477,2023-10-21T15:37:23.568083Z,1697902643568
0.0617976188659668,0.2315235137939453,0.012432396411895752,2023-10-21T15:37:23.588293Z,1697902643588
0.06593728065490723,0.25647926330566406,0.014427125453948975,2023-10-21T15:37:23.608460Z,1697902643608
0.06850695610046387,0.27820491790771484,0.016426920890808105,2023-10-21T15:37:23.628793Z,1697902643628
0.06996011734008789,0.29844093322753906,0.018503248691558838,2023-10-21T15:37:23.649125Z,1697902643649
0.07079315185546875,0.3188180923461914,0.020708739757537842,2023-10-21T15:37:23.669361Z,1697902643669
0.07147645950317383,0.34087657928466797,0.02309960126876831,2023-10-21T15:37:23.689589Z,1697902643689
0.07245516777038574,0.36637306213378906,0.025693893432617188,2023-10-21T15:37:23.711677Z,1697902643711
0.07397222518920898,0.3966655731201172,0.028486251831054688,2023-10-21T15:37:23.730166Z,1697902643730
0.0759044885635376,0.43144989013671875,0.03136754035949707,2023-10-21T15:37:23.750432Z,1697902643750
0.07783150672912598,0.4684629440307617,0.0341147780418396,2023-10-21T15:37:23.770674Z,1697902643770
0.07925546169281006,0.5041866302490234,0.036451101303100586,2023-10-21T15:37:23.790893Z,1697902643790
0.07971537113189697,0.5344209671020508,0.03807985782623291,2023-10-21T15:37:23.811568Z,1697902643811
0.0788189172744751,0.5546760559082031,0.03870594501495361,2023-10-21T15:37:23.831464Z,1697902643831
0.07640206813812256,0.5617103576660156,0.03816211223602295,2023-10-21T15:37:23.851751Z,1697902643851
0.07253563404083252,0.5544452667236328,0.03645682334899902,2023-10-21T15:37:23.871990Z,1697902643871
0.06761503219604492,0.5350561141967773,0.033834993839263916,2023-10-21T15:37:23.894948Z,1697902643894
0.062032222747802734,0.5066652297973633,0.030667245388031006,2023-10-21T15:37:23.912499Z,1697902643912
0.05600583553314209,0.4713573455810547,0.027260541915893555,2023-10-21T15:37:23.932816Z,1697902643932
0.04975605010986328,0.43102550506591797,0.023870110511779785,2023-10-21T15:37:23.953060Z,1697902643953
0.04382765293121338,0.3904085159301758,0.020799219608306885,2023-10-21T15:37:23.973279Z,1697902643973
0.03888249397277832,0.35565853118896484,0.018343567848205566,2023-10-21T15:37:23.994733Z,1697902643994
0.035562753677368164,0.3333148956298828,0.016761362552642822,2023-10-21T15:37:24.013835Z,1697902644013
0.034102797508239746,0.3265810012817383,0.016169846057891846,2023-10-21T15:37:24.034147Z,1697902644034
0.03431814908981323,0.3349618911743164,0.01658514142036438,2023-10-21T15:37:24.054419Z,1697902644054
0.03572702407836914,0.3551502227783203,0.018000900745391846,2023-10-21T15:37:24.074548Z,1697902644074
0.037629902362823486,0.3812599182128906,0.020361006259918213,2023-10-21T15:37:24.094880Z,1697902644094
0.03943246603012085,0.4071931838989258,0.02358347177505493,2023-10-21T15:37:24.115169Z,1697902644115
0.04100829362869263,0.42998504638671875,0.02761608362197876,2023-10-21T15:37:24.135415Z,1697902644135
0.042467713356018066,0.4486351013183594,0.03238487243652344,2023-10-21T15:37:24.155651Z,1697902644155
0.04369091987609863,0.46068477630615234,0.037619829177856445,2023-10-21T15:37:24.178056Z,1697902644177
0.04433077573776245,0.46254920959472656,0.042810142040252686,2023-10-21T15:37:24.196185Z,1697902644196
0.04400354623794556,0.45148372650146484,0.04733467102050781,2023-10-21T15:37:24.216548Z,1697902644216
0.042739808559417725,0.429107666015625,0.05081439018249512,2023-10-21T15:37:24.236680Z,1697902644236
0.040924787521362305,0.4000825881958008,0.05320262908935547,2023-10-21T15:37:24.257027Z,1697902644256
0.039058685302734375,0.36943626403808594,0.05473613739013672,2023-10-21T15:37:24.278050Z,1697902644277
0.037489891052246094,0.3405027389526367,0.05571794509887695,2023-10-21T15:37:24.297493Z,1697902644297
0.036425232887268066,0.3155364990234375,0.056536078453063965,2023-10-21T15:37:24.317842Z,1697902644317
0.035840749740600586,0.29483985900878906,0.05742537975311279,2023-10-21T15:37:24.338075Z,1697902644338
0.035584330558776855,0.27750587463378906,0.05840253829956055,2023-10-21T15:37:24.361246Z,1697902644361
0.035494327545166016,0.2622509002685547,0.05934429168701172,2023-10-21T15:37:24.378549Z,1697902644378
0.03546762466430664,0.2481822967529297,0.06011605262756348,2023-10-21T15:37:24.398859Z,1697902644398
0.03545689582824707,0.23483657836914062,0.060610294342041016,2023-10-21T15:37:24.419104Z,1697902644419
0.03553617000579834,0.2226390838623047,0.06093335151672363,2023-10-21T15:37:24.439357Z,1697902644439
0.03564596176147461,0.21132278442382812,0.06104755401611328,2023-10-21T15:37:24.461154Z,1697902644461
0.035349249839782715,0.19855403900146484,0.06031441688537598,2023-10-21T15:37:24.479918Z,1697902644479
0.03404724597930908,0.1817302703857422,0.05787372589111328,2023-10-21T15:37:24.500246Z,1697902644500
0.031156063079833984,0.1587352752685547,0.05285453796386719,2023-10-21T15:37:24.520418Z,1697902644520
0.026740193367004395,0.1307697296142578,0.04538702964782715,2023-10-21T15:37:24.540619Z,1697902644540
0.02136087417602539,0.10077953338623047,0.03630828857421875,2023-10-21T15:37:24.560945Z,1697902644560
0.01576697826385498,0.07199764251708984,0.026795387268066406,2023-10-21T15:37:24.581254Z,1697902644581
0.010581731796264648,0.046840667724609375,0.017914295196533203,2023-10-21T15:37:24.601515Z,1697902644601
0.00623774528503418,0.026800155639648438,0.010478734970092773,2023-10-21T15:37:24.621741Z,1697902644621
0.0027844905853271484,0.011637687683105469,0.004630565643310547,2023-10-21T15:37:24.644243Z,1697902644644
3.266334533691406E-4,0.0013341903686523438,5.376338958740234E-4,2023-10-21T15:37:24.662385Z,1697902644662
-5.717277526855469E-4,-0.002285003662109375,-9.281635284423828E-4,2023-10-21T15:37:24.682680Z,1697902644682
9.636878967285156E-4,0.0037908554077148438,0.0015418529510498047,2023-10-21T15:37:24.702864Z,1697902644702
0.0055696964263916016,0.021627426147460938,0.008767127990722656,2023-10-21T15:37:24.723044Z,1697902644723
0.012964725494384766,0.04979515075683594,0.02004265785217285,2023-10-21T15:37:24.744326Z,1697902644744
0.02252030372619629,0.08568286895751953,0.03416800498962402,2023-10-21T15:37:24.763626Z,1697902644763
0.03378129005432129,0.12765121459960938,0.05040884017944336,2023-10-21T15:37:24.783925Z,1697902644783
0.04670357704162598,0.17597103118896484,0.06885147094726562,2023-10-21T15:37:24.804145Z,1697902644804
0.06125044822692871,0.23100948333740234,0.08963155746459961,2023-10-21T15:37:24.824266Z,1697902644824
0.07727861404418945,0.29242801666259766,0.11261129379272461,2023-10-21T15:37:24.844647Z,1697902644844
0.09424066543579102,0.3578605651855469,0.1369166374206543,2023-10-21T15:37:24.864951Z,1697902644864
0.11144137382507324,0.42412281036376953,0.16143465042114258,2023-10-21T15:37:24.885191Z,1697902644885
0.1280674934387207,0.4877605438232422,0.1850271224975586,2023-10-21T15:37:24.905416Z,1697902644905
0.14362716674804688,0.5468196868896484,0.20708346366882324,2023-10-21T15:37:24.927591Z,1697902644927
0.15772318840026855,0.5999202728271484,0.22708344459533691,2023-10-21T15:37:24.946002Z,1697902644945
0.16977953910827637,0.6448602676391602,0.24406790733337402,2023-10-21T15:37:24.966293Z,1697902644966
0.17893075942993164,0.6782646179199219,0.2566361427307129,2023-10-21T15:37:24.986547Z,1697902644986
0.18431711196899414,0.6967601776123047,0.263425350189209,2023-10-21T15:37:25.006758Z,1697902645006
0.18552851676940918,0.6988286972045898,0.2638387680053711,2023-10-21T15:37:25.027549Z,1697902645027
0.1827094554901123,0.6854181289672852,0.25823044776916504,2023-10-21T15:37:25.047294Z,1697902645047
0.17662739753723145,0.6599063873291016,0.2478482723236084,2023-10-21T15:37:25.067548Z,1697902645067
0.16817855834960938,0.6261110305786133,0.23411202430725098,2023-10-21T15:37:25.087868Z,1697902645087
0.15815448760986328,0.5871095657348633,0.21819567680358887,2023-10-21T15:37:25.110847Z,1697902645110
0.14693331718444824,0.5442562103271484,0.20070958137512207,2023-10-21T15:37:25.128328Z,1697902645128
0.13466215133666992,0.49811840057373047,0.18203091621398926,2023-10-21T15:37:25.148650Z,1697902645148
0.12150382995605469,0.44931507110595703,0.1625807285308838,2023-10-21T15:37:25.168907Z,1697902645168
0.10769867897033691,0.3986482620239258,0.14281010627746582,2023-10-21T15:37:25.189125Z,1697902645189
0.09344315528869629,0.3467416763305664,0.12304377555847168,2023-10-21T15:37:25.210649Z,1697902645210
0.07896232604980469,0.29450321197509766,0.10360026359558105,2023-10-21T15:37:25.229668Z,1697902645229
0.06452035903930664,0.24297523498535156,0.08479809761047363,2023-10-21T15:37:25.250Z,1697902645249
0.0501253604888916,0.19176006317138672,0.066436767578125,2023-10-21T15:37:25.270215Z,1697902645270
0.035382986068725586,0.1383819580078125,0.04761934280395508,2023-10-21T15:37:25.290383Z,1697902645290
0.019585609436035156,0.07875633239746094,0.026926517486572266,2023-10-21T15:37:25.310728Z,1697902645310
0.002252817153930664,0.009366989135742188,0.003183126449584961,2023-10-21T15:37:25.331043Z,1697902645330
-0.016170978546142578,-0.07023239135742188,-0.023731708526611328,2023-10-21T15:37:25.351295Z,1697902645351
-0.03418397903442383,-0.15711307525634766,-0.05281186103820801,2023-10-21T15:37:25.371504Z,1697902645371
-0.04973864555358887,-0.24644851684570312,-0.08245110511779785,2023-10-21T15:37:25.394159Z,1697902645394
-0.061167359352111816,-0.33441925048828125,-0.1114037036895752,2023-10-21T15:37:25.412034Z,1697902645411
-0.06780850887298584,-0.42108726501464844,-0.13985848426818848,2023-10-21T15:37:25.432354Z,1697902645432
-0.06927800178527832,-0.508540153503418,-0.16886615753173828,2023-10-21T15:37:25.452582Z,1697902645452
-0.06451606750488281,-0.5957088470458984,-0.1984865665435791,2023-10-21T15:37:25.472958Z,1697902645472
-0.05208384990692139,-0.6756105422973633,-0.22669267654418945,2023-10-21T15:37:25.493784Z,1697902645493
-0.03158333897590637,-0.7378520965576172,-0.2502167224884033,2023-10-21T15:37:25.513540Z,1697902645513
-0.004760619252920151,-0.7753458023071289,-0.2667546272277832,2023-10-21T15:37:25.533629Z,1697902645533
0.025260567665100098,-0.789128303527832,-0.27656984329223633,2023-10-21T15:37:25.553892Z,1697902645553
0.055975914001464844,-0.7858858108520508,-0.2816505432128906,2023-10-21T15:37:25.577092Z,1697902645577
0.08620667457580566,-0.7714500427246094,-0.283536434173584,2023-10-21T15:37:25.594419Z,1697902645594
0.11505210399627686,-0.7477512359619141,-0.282437801361084,2023-10-21T15:37:25.614722Z,1697902645614
0.14075040817260742,-0.7124843597412109,-0.27692508697509766,2023-10-21T15:37:25.634956Z,1697902645634
0.16075801849365234,-0.6642961502075195,-0.26567864418029785,2023-10-21T15:37:25.655185Z,1697902645655
0.17337989807128906,-0.6054229736328125,-0.24893522262573242,2023-10-21T15:37:25.676986Z,1697902645676
0.1788651943206787,-0.5413637161254883,-0.22862505912780762,2023-10-21T15:37:25.695752Z,1697902645695
0.17853879928588867,-0.4771404266357422,-0.2067427635192871,2023-10-21T15:37:25.716035Z,1697902645715
0.17312288284301758,-0.4143681526184082,-0.18390107154846191,2023-10-21T15:37:25.736245Z,1697902645736
0.1622016429901123,-0.35214900970458984,-0.15964508056640625,2023-10-21T15:37:25.756457Z,1697902645756
0.1453094482421875,-0.2897830009460449,-0.1337578296661377,2023-10-21T15:37:25.776946Z,1697902645776
0.1235661506652832,-0.22910642623901367,-0.10738205909729004,2023-10-21T15:37:25.797032Z,1697902645796
0.0986928939819336,-0.17194509506225586,-0.08166623115539551,2023-10-21T15:37:25.817349Z,1697902645817
0.0729227066040039,-0.12043523788452148,-0.05786943435668945,2023-10-21T15:37:25.837583Z,1697902645837
0.04884004592895508,-0.07700109481811523,-0.03739285469055176,2023-10-21T15:37:25.860121Z,1697902645860
0.028386592864990234,-0.042966365814208984,-0.021075725555419922,2023-10-21T15:37:25.878143Z,1697902645878
0.012223243713378906,-0.01784992218017578,-0.008835792541503906,2023-10-21T15:37:25.898403Z,1697902645898
4.5871734619140625E-4,-6.494522094726562E-4,-3.235340118408203E-4,2023-10-21T15:37:25.918680Z,1697902645918
-0.007328033447265625,0.010096549987792969,0.005057334899902344,2023-10-21T15:37:25.938834Z,1697902645938
-0.011111736297607422,0.014967918395996094,0.007503509521484375,2023-10-21T15:37:25.960144Z,1697902645960
-0.01088714599609375,0.01439046859741211,0.007193803787231445,2023-10-21T15:37:25.979630Z,1697902645979
-0.006171226501464844,0.00802755355834961,0.003989458084106445,2023-10-21T15:37:25.999742Z,1697902645999
0.003837108612060547,-0.004920005798339844,-0.0024194717407226562,2023-10-21T15:37:26.019962Z,1697902646019
0.018665790557861328,-0.023617267608642578,-0.011449575424194336,2023-10-21T15:37:26.043455Z,1697902646043
0.0352935791015625,-0.04410839080810547,-0.020958662033081055,2023-10-21T15:37:26.060652Z,1697902646060
0.04994344711303711,-0.06176280975341797,-0.028582096099853516,2023-10-21T15:37:26.080781Z,1697902646080
0.061165809631347656,-0.07508230209350586,-0.033629417419433594,2023-10-21T15:37:26.101054Z,1697902646101
0.06897735595703125,-0.08430194854736328,-0.03635573387145996,2023-10-21T15:37:26.121239Z,1697902646121
0.07444334030151367,-0.09077262878417969,-0.03753161430358887,2023-10-21T15:37:26.143470Z,1697902646143
0.07780122756958008,-0.09468507766723633,-0.03741145133972168,2023-10-21T15:37:26.161802Z,1697902646161
0.07870960235595703,-0.09553670883178711,-0.03596639633178711,2023-10-21T15:37:26.182137Z,1697902646182
0.07660055160522461,-0.09267377853393555,-0.0331425666809082,2023-10-21T15:37:26.202414Z,1697902646202
0.07149839401245117,-0.08623218536376953,-0.029195308685302734,2023-10-21T15:37:26.222521Z,1697902646222
0.06449699401855469,-0.07757759094238281,-0.024785995483398438,2023-10-21T15:37:26.243334Z,1697902646243
0.05788564682006836,-0.06939840316772461,-0.0208587646484375,2023-10-21T15:37:26.263246Z,1697902646263
0.054512977600097656,-0.06497955322265625,-0.018291234970092773,2023-10-21T15:37:26.283461Z,1697902646283
0.05191993713378906,-0.06125354766845703,-0.016001582145690918,2023-10-21T15:37:26.303666Z,1697902646303
0.045624732971191406,-0.05296802520751953,-0.012677431106567383,2023-10-21T15:37:26.326617Z,1697902646326
0.032874107360839844,-0.03736162185668945,-0.008069753646850586,2023-10-21T15:37:26.344172Z,1697902646344
0.01215505599975586,-0.013470172882080078,-0.0025815963745117188,2023-10-21T15:37:26.364487Z,1697902646364
-0.016952037811279297,0.01827716827392578,0.0030395984649658203,2023-10-21T15:37:26.384728Z,1697902646384
-0.05771160125732422,0.060465335845947266,0.008445262908935547,2023-10-21T15:37:26.404929Z,1697902646404
-0.11388158798217773,0.115814208984375,0.012962281703948975,2023-10-21T15:37:26.426594Z,1697902646426
-0.18552303314208984,0.1829686164855957,0.015332579612731934,2023-10-21T15:37:26.445491Z,1697902646445
-0.270047664642334,0.25821638107299805,0.014403939247131348,2023-10-21T15:37:26.465793Z,1697902646465
-0.36303138732910156,0.33704280853271484,0.009619757533073425,2023-10-21T15:37:26.486050Z,1697902646485
-0.4537496566772461,0.4103994369506836,0.0011557862162590027,2023-10-21T15:37:26.506259Z,1697902646506
-0.5317444801330566,0.4707622528076172,-0.009961172938346863,2023-10-21T15:37:26.526520Z,1697902646526
-0.5917139053344727,0.5152568817138672,-0.022455573081970215,2023-10-21T15:37:26.546929Z,1697902646546
-0.632962703704834,0.5443258285522461,-0.03547412157058716,2023-10-21T15:37:26.567098Z,1697902646567
-0.6564164161682129,0.5587887763977051,-0.048120856285095215,2023-10-21T15:37:26.587320Z,1697902646587
-0.66131591796875,0.5578212738037109,-0.05952531099319458,2023-10-21T15:37:26.609690Z,1697902646609
-0.6477103233337402,0.5417332649230957,-0.06894737482070923,2023-10-21T15:37:26.627865Z,1697902646627
-0.6194949150085449,0.5142478942871094,-0.07615220546722412,2023-10-21T15:37:26.648183Z,1697902646648
-0.5818667411804199,0.4800095558166504,-0.0811241865158081,2023-10-21T15:37:26.668392Z,1697902646668
-0.5413069725036621,0.44422483444213867,-0.08432531356811523,2023-10-21T15:37:26.688636Z,1697902646688
-0.5076346397399902,0.41455078125,-0.08715176582336426,2023-10-21T15:37:26.709498Z,1697902646709
-0.4896554946899414,0.3977828025817871,-0.09142959117889404,2023-10-21T15:37:26.729184Z,1697902646729
-0.4920048713684082,0.39737892150878906,-0.09859669208526611,2023-10-21T15:37:26.749490Z,1697902646749
-0.5131697654724121,0.41205406188964844,-0.10896575450897217,2023-10-21T15:37:26.769705Z,1697902646769
-0.5489020347595215,0.4386887550354004,-0.12191319465637207,2023-10-21T15:37:26.792685Z,1697902646792
-0.5920248031616211,0.4720940589904785,-0.13574659824371338,2023-10-21T15:37:26.810230Z,1697902646810
-0.6353907585144043,0.5073366165161133,-0.14883828163146973,2023-10-21T15:37:26.830570Z,1697902646830
-0.6766881942749023,0.5430831909179688,-0.16076290607452393,2023-10-21T15:37:26.850798Z,1697902646850
-0.714383602142334,0.5784177780151367,-0.17165708541870117,2023-10-21T15:37:26.871026Z,1697902646870
-0.7453408241271973,0.6107525825500488,-0.18085002899169922,2023-10-21T15:37:26.892909Z,1697902646892
-0.7602529525756836,0.6323604583740234,-0.18596696853637695,2023-10-21T15:37:26.911586Z,1697902646911
-0.750880241394043,0.6361989974975586,-0.18499672412872314,2023-10-21T15:37:26.931903Z,1697902646931
-0.7169394493103027,0.6213154792785645,-0.17791390419006348,2023-10-21T15:37:26.952076Z,1697902646952
-0.6641960144042969,0.5912065505981445,-0.1660454273223877,2023-10-21T15:37:26.972274Z,1697902646972
-0.6007113456726074,0.5509700775146484,-0.15133535861968994,2023-10-21T15:37:26.992767Z,1697902646992
-0.536407470703125,0.5079984664916992,-0.13620686531066895,2023-10-21T15:37:27.012902Z,1697902647012
-0.4769902229309082,0.46691322326660156,-0.12200474739074707,2023-10-21T15:37:27.033147Z,1697902647033
-0.42284584045410156,0.4280686378479004,-0.10875940322875977,2023-10-21T15:37:27.053377Z,1697902647053
-0.37381792068481445,0.39155006408691406,-0.0962061882019043,2023-10-21T15:37:27.076039Z,1697902647076
-0.33075618743896484,0.35865116119384766,-0.08463311195373535,2023-10-21T15:37:27.093907Z,1697902647093
-0.29768848419189453,0.33421850204467773,-0.0751645565032959,2023-10-21T15:37:27.114270Z,1697902647114
-0.2769947052001953,0.3217148780822754,-0.06843841075897217,2023-10-21T15:37:27.134497Z,1697902647134
-0.2666749954223633,0.31986045837402344,-0.06391000747680664,2023-10-21T15:37:27.154694Z,1697902647154
-0.26283884048461914,0.32498693466186523,-0.06057751178741455,2023-10-21T15:37:27.175962Z,1697902647175
-0.25974273681640625,0.3308296203613281,-0.05709421634674072,2023-10-21T15:37:27.195240Z,1697902647195
-0.2503972053527832,0.32868432998657227,-0.052033066749572754,2023-10-21T15:37:27.215542Z,1697902647215
-0.23191499710083008,0.3139777183532715,-0.04501628875732422,2023-10-21T15:37:27.235797Z,1697902647235
-0.20459318161010742,0.2859072685241699,-0.03654801845550537,2023-10-21T15:37:27.255976Z,1697902647255
-0.17092657089233398,0.2466754913330078,-0.02760779857635498,2023-10-21T15:37:27.276275Z,1697902647276
-0.1329174041748047,0.19820213317871094,-0.019006967544555664,2023-10-21T15:37:27.296612Z,1697902647296
-0.09114885330200195,0.14055347442626953,-0.011202633380889893,2023-10-21T15:37:27.316837Z,1697902647316
-0.046170711517333984,0.0736989974975586,-0.004618227481842041,2023-10-21T15:37:27.337112Z,1697902647337
0.0010218620300292969,-0.001689910888671875,7.37905502319336E-5,2023-10-21T15:37:27.358951Z,1697902647358
0.047265052795410156,-0.08136177062988281,0.0018778592348098755,2023-10-21T15:37:27.377648Z,1697902647377
0.08849287033081055,-0.15877914428710938,-8.792878361418843E-6,2023-10-21T15:37:27.397951Z,1697902647397
0.12178277969360352,-0.2282257080078125,-0.005712375044822693,2023-10-21T15:37:27.418166Z,1697902647418
0.14750289916992188,-0.2893352508544922,-0.014865756034851074,2023-10-21T15:37:27.438385Z,1697902647438
0.16740655899047852,-0.34467601776123047,-0.02716672420501709,2023-10-21T15:37:27.459053Z,1697902647459
0.1828911304473877,-0.3969612121582031,-0.042626142501831055,2023-10-21T15:37:27.478928Z,1697902647478
0.19364428520202637,-0.44551563262939453,-0.06110191345214844,2023-10-21T15:37:27.499274Z,1697902647499
0.1983046531677246,-0.48622989654541016,-0.08173501491546631,2023-10-21T15:37:27.519480Z,1697902647519
0.1961967945098877,-0.5150918960571289,-0.10293781757354736,2023-10-21T15:37:27.542370Z,1697902647542
0.18794608116149902,-0.5301389694213867,-0.12303566932678223,2023-10-21T15:37:27.559985Z,1697902647559
0.17583012580871582,-0.5347137451171875,-0.14151501655578613,2023-10-21T15:37:27.580264Z,1697902647580
0.16158080101013184,-0.5320062637329102,-0.1582622528076172,2023-10-21T15:37:27.600526Z,1697902647600
0.1458745002746582,-0.522587776184082,-0.17286992073059082,2023-10-21T15:37:27.620755Z,1697902647620
0.12865090370178223,-0.5045175552368164,-0.18408203125,2023-10-21T15:37:27.642312Z,1697902647642
0.10995423793792725,-0.4758901596069336,-0.19032931327819824,2023-10-21T15:37:27.661292Z,1697902647661
0.0904242992401123,-0.43582630157470703,-0.19001150131225586,2023-10-21T15:37:27.681606Z,1697902647681
0.07113134860992432,-0.3850269317626953,-0.1820085048675537,2023-10-21T15:37:27.701761Z,1697902647701
0.053118228912353516,-0.3261880874633789,-0.16623497009277344,2023-10-21T15:37:27.722004Z,1697902647721
0.03727889060974121,-0.26419830322265625,-0.1443185806274414,2023-10-21T15:37:27.742380Z,1697902647742
0.024145662784576416,-0.20351505279541016,-0.11851835250854492,2023-10-21T15:37:27.762627Z,1697902647762
0.013842165470123291,-0.14546966552734375,-0.08989667892456055,2023-10-21T15:37:27.782941Z,1697902647782
0.0063263773918151855,-0.08910465240478516,-0.05821371078491211,2023-10-21T15:37:27.803123Z,1697902647803
0.0015570223331451416,-0.03343391418457031,-0.023006916046142578,2023-10-21T15:37:27.825394Z,1697902647825
-4.729330539703369E-4,0.021227359771728516,0.015320777893066406,2023-10-21T15:37:27.843715Z,1697902647843
9.233038872480392E-5,0.07359695434570312,0.055469512939453125,2023-10-21T15:37:27.864020Z,1697902647863
0.002896726131439209,0.12145662307739258,0.09521865844726562,2023-10-21T15:37:27.884195Z,1697902647884
0.007416576147079468,0.16258716583251953,0.13215398788452148,2023-10-21T15:37:27.904536Z,1697902647904
0.012995034456253052,0.19607973098754883,0.16486358642578125,2023-10-21T15:37:27.925281Z,1697902647925
0.018964767456054688,0.22337102890014648,0.1939716339111328,2023-10-21T15:37:27.944988Z,1697902647944
0.024725615978240967,0.24587202072143555,0.22017860412597656,2023-10-21T15:37:27.965286Z,1697902647965
0.029716968536376953,0.2635049819946289,0.24282312393188477,2023-10-21T15:37:27.985523Z,1697902647985
0.03345578908920288,0.2744159698486328,0.25955915451049805,2023-10-21T15:37:28.008759Z,1697902648008
0.03562706708908081,0.27684497833251953,0.2681870460510254,2023-10-21T15:37:28.026059Z,1697902648025
0.03619039058685303,0.2709827423095703,0.2685279846191406,2023-10-21T15:37:28.046459Z,1697902648046
0.035375237464904785,0.2584075927734375,0.261749267578125,2023-10-21T15:37:28.066597Z,1697902648066
0.03350257873535156,0.24131202697753906,0.24964380264282227,2023-10-21T15:37:28.086826Z,1697902648086
0.03097355365753174,0.22185325622558594,0.23415565490722656,2023-10-21T15:37:28.108556Z,1697902648108
0.028156757354736328,0.20122528076171875,0.2164015769958496,2023-10-21T15:37:28.127367Z,1697902648127
0.025181353092193604,0.17917203903198242,0.19605588912963867,2023-10-21T15:37:28.147652Z,1697902648147
0.021915197372436523,0.1545877456665039,0.17189598083496094,2023-10-21T15:37:28.167910Z,1697902648167
0.01822209358215332,0.12685775756835938,0.14325571060180664,2023-10-21T15:37:28.188115Z,1697902648188
0.014086246490478516,0.09654760360717773,0.11072444915771484,2023-10-21T15:37:28.208593Z,1697902648208
0.00966942310333252,0.06525754928588867,0.0760188102722168,2023-10-21T15:37:28.228708Z,1697902648228
0.005192101001739502,0.034596920013427734,0.04094552993774414,2023-10-21T15:37:28.248972Z,1697902648248
8.292794227600098E-4,0.0054759979248046875,0.006587982177734375,2023-10-21T15:37:28.269242Z,1697902648269
-0.0033490657806396484,-0.02198028564453125,-0.026877880096435547,2023-10-21T15:37:28.291848Z,1697902648291
-0.0073705315589904785,-0.04823446273803711,-0.06002235412597656,2023-10-21T15:37:28.309740Z,1697902648309
-0.011302351951599121,-0.07401037216186523,-0.0938100814819336,2023-10-21T15:37:28.330099Z,1697902648330
-0.015245378017425537,-0.1001596450805664,-0.12944412231445312,2023-10-21T15:37:28.350293Z,1697902648350
-0.01929527521133423,-0.12731409072875977,-0.16794729232788086,2023-10-21T15:37:28.370472Z,1697902648370
-0.023506104946136475,-0.15586471557617188,-0.21006345748901367,2023-10-21T15:37:28.391756Z,1697902648391
-0.0278509259223938,-0.1856842041015625,-0.2558279037475586,2023-10-21T15:37:28.411140Z,1697902648411
-0.03233462572097778,-0.21666622161865234,-0.3052186965942383,2023-10-21T15:37:28.431373Z,1697902648431
-0.03707331418991089,-0.24923944473266602,-0.35883665084838867,2023-10-21T15:37:28.451572Z,1697902648451
-0.0420604944229126,-0.28336143493652344,-0.4165983200073242,2023-10-21T15:37:28.475150Z,1697902648475
-0.04720431566238403,-0.3187112808227539,-0.4780116081237793,2023-10-21T15:37:28.492234Z,1697902648492
-0.05245119333267212,-0.35489702224731445,-0.5424551963806152,2023-10-21T15:37:28.512417Z,1697902648512
-0.057840704917907715,-0.39165353775024414,-0.6093363761901855,2023-10-21T15:37:28.532662Z,1697902648532
-0.06343376636505127,-0.42848730087280273,-0.677556037902832,2023-10-21T15:37:28.552901Z,1697902648552
-0.06917977333068848,-0.46466636657714844,-0.7454328536987305,2023-10-21T15:37:28.575369Z,1697902648575
-0.07499319314956665,-0.49962472915649414,-0.8112883567810059,2023-10-21T15:37:28.593449Z,1697902648593
-0.0808631181716919,-0.5331435203552246,-0.873929500579834,2023-10-21T15:37:28.613796Z,1697902648613
-0.08689862489700317,-0.5653481483459473,-0.9327101707458496,2023-10-21T15:37:28.633974Z,1697902648633
-0.09306621551513672,-0.5961399078369141,-0.9867367744445801,2023-10-21T15:37:28.654189Z,1697902648654
-0.09936255216598511,-0.6254076957702637,-1.0350098609924316,2023-10-21T15:37:28.675111Z,1697902648675
-0.10591310262680054,-0.6532297134399414,-1.0766353607177734,2023-10-21T15:37:28.694762Z,1697902648694
-0.11275219917297363,-0.6797299385070801,-1.1108365058898926,2023-10-21T15:37:28.715043Z,1697902648714
-0.11973828077316284,-0.7048611640930176,-1.1368842124938965,2023-10-21T15:37:28.735317Z,1697902648735
-0.126362144947052,-0.7284293174743652,-1.1541523933410645,2023-10-21T15:37:28.758231Z,1697902648758
-0.13216263055801392,-0.750154972076416,-1.1621651649475098,2023-10-21T15:37:28.775802Z,1697902648775
-0.13708782196044922,-0.769233226776123,-1.1600656509399414,2023-10-21T15:37:28.796058Z,1697902648796
-0.14119327068328857,-0.785088062286377,-1.1475915908813477,2023-10-21T15:37:28.816337Z,1697902648816
-0.14440882205963135,-0.7967085838317871,-1.124150276184082,2023-10-21T15:37:28.836625Z,1697902648836
-0.14668577909469604,-0.8030848503112793,-1.0895271301269531,2023-10-21T15:37:28.858077Z,1697902648858
-0.147807776927948,-0.8033146858215332,-1.044008731842041,2023-10-21T15:37:28.877125Z,1697902648877
-0.14718884229660034,-0.7961874008178711,-0.9879202842712402,2023-10-21T15:37:28.897430Z,1697902648897
-0.14404189586639404,-0.7806129455566406,-0.9222011566162109,2023-10-21T15:37:28.917619Z,1697902648917
-0.13795185089111328,-0.7553153038024902,-0.8477730751037598,2023-10-21T15:37:28.937840Z,1697902648937
-0.1291738748550415,-0.7191319465637207,-0.7657995223999023,2023-10-21T15:37:28.958182Z,1697902648958
-0.11801695823669434,-0.6716961860656738,-0.678070068359375,2023-10-21T15:37:28.978454Z,1697902648978
-0.10458195209503174,-0.6131939888000488,-0.5865492820739746,2023-10-21T15:37:28.998732Z,1697902648998
-0.08894455432891846,-0.5431156158447266,-0.49223995208740234,2023-10-21T15:37:29.018931Z,1697902649018
-0.07141590118408203,-0.46082210540771484,-0.3957500457763672,2023-10-21T15:37:29.041316Z,1697902649041
-0.05265974998474121,-0.36563777923583984,-0.29755306243896484,2023-10-21T15:37:29.059493Z,1697902649059
-0.033798813819885254,-0.25794553756713867,-0.19895172119140625,2023-10-21T15:37:29.079812Z,1697902649079
-0.01633542776107788,-0.14005327224731445,-0.10245132446289062,2023-10-21T15:37:29.100081Z,1697902649100
-0.0015559196472167969,-0.01531982421875,-0.010639190673828125,2023-10-21T15:37:29.120299Z,1697902649120
0.009690284729003906,0.11249542236328125,0.07426118850708008,2023-10-21T15:37:29.141254Z,1697902649141
0.016898512840270996,0.2404928207397461,0.15102100372314453,2023-10-21T15:37:29.160821Z,1697902649160
0.019818425178527832,0.36615562438964844,0.21886301040649414,2023-10-21T15:37:29.181115Z,1697902649181
0.01862850785255432,0.4863119125366211,0.2768287658691406,2023-10-21T15:37:29.201361Z,1697902649201
0.013823866844177246,0.5973367691040039,0.3239250183105469,2023-10-21T15:37:29.224409Z,1697902649224
0.0060216933488845825,0.6956262588500977,0.359433650970459,2023-10-21T15:37:29.241824Z,1697902649241
-0.004013560712337494,0.778935432434082,0.38358259201049805,2023-10-21T15:37:29.262207Z,1697902649262
-0.015448540449142456,0.8464984893798828,0.39734792709350586,2023-10-21T15:37:29.282430Z,1697902649282
-0.02749648690223694,0.8996248245239258,0.40230369567871094,2023-10-21T15:37:29.302663Z,1697902649302
-0.03953737020492554,0.9408626556396484,0.4003322124481201,2023-10-21T15:37:29.324545Z,1697902649324
-0.05109483003616333,0.9724922180175781,0.3930222988128662,2023-10-21T15:37:29.343183Z,1697902649343
-0.06186407804489136,0.9955081939697266,0.3814880847930908,2023-10-21T15:37:29.363493Z,1697902649363
-0.07170689105987549,1.010110855102539,0.36656904220581055,2023-10-21T15:37:29.383754Z,1697902649383
-0.08055341243743896,1.016911506652832,0.3491365909576416,2023-10-21T15:37:29.403969Z,1697902649403
-0.08802449703216553,1.0162849426269531,0.3298044204711914,2023-10-21T15:37:29.424407Z,1697902649424
-0.09363234043121338,1.0082073211669922,0.3089003562927246,2023-10-21T15:37:29.444512Z,1697902649444
-0.09721791744232178,0.9921798706054688,0.28653526306152344,2023-10-21T15:37:29.464801Z,1697902649464
-0.09861350059509277,0.9674520492553711,0.26283693313598633,2023-10-21T15:37:29.485012Z,1697902649484
-0.09773778915405273,0.9334611892700195,0.23819923400878906,2023-10-21T15:37:29.507565Z,1697902649507
-0.09450829029083252,0.889439582824707,0.21293163299560547,2023-10-21T15:37:29.525545Z,1697902649525
-0.08880913257598877,0.834111213684082,0.1871950626373291,2023-10-21T15:37:29.545847Z,1697902649545
-0.08064448833465576,0.7667770385742188,0.1611778736114502,2023-10-21T15:37:29.566162Z,1697902649566
-0.07040321826934814,0.6892147064208984,0.13544678688049316,2023-10-21T15:37:29.586362Z,1697902649586
-0.05903559923171997,0.6057586669921875,0.11099433898925781,2023-10-21T15:37:29.607587Z,1697902649607
-0.04767966270446777,0.5219850540161133,0.08890104293823242,2023-10-21T15:37:29.626897Z,1697902649626
-0.037221312522888184,0.443145751953125,0.06998157501220703,2023-10-21T15:37:29.647209Z,1697902649647
-0.028105437755584717,0.37298107147216797,0.05455493927001953,2023-10-21T15:37:29.667485Z,1697902649667
-0.02071559429168701,0.3155336380004883,0.0427778959274292,2023-10-21T15:37:29.690962Z,1697902649690
-0.015259623527526855,0.2750558853149414,0.034662485122680664,2023-10-21T15:37:29.707943Z,1697902649707
-0.011559903621673584,0.2551240921020508,0.030045270919799805,2023-10-21T15:37:29.728233Z,1697902649728
-0.009149730205535889,0.25847721099853516,0.028669118881225586,2023-10-21T15:37:29.748447Z,1697902649748
-0.007405459880828857,0.28578758239746094,0.03012371063232422,2023-10-21T15:37:29.768645Z,1697902649768
-0.005763053894042969,0.33525943756103516,0.033969879150390625,2023-10-21T15:37:29.790884Z,1697902649790
-0.003907062113285065,0.4026050567626953,0.039778828620910645,2023-10-21T15:37:29.809219Z,1697902649809
-0.0017728246748447418,0.4816474914550781,0.0471804141998291,2023-10-21T15:37:29.829589Z,1697902649829
5.064606666564941E-4,0.5645675659179688,0.05575060844421387,2023-10-21T15:37:29.849815Z,1697902649849
0.002719864249229431,0.6433010101318359,0.06496751308441162,2023-10-21T15:37:29.870011Z,1697902649869
0.00466572493314743,0.7104959487915039,0.07417237758636475,2023-10-21T15:37:29.890596Z,1697902649890
0.006262689828872681,0.7602806091308594,0.0826420783996582,2023-10-21T15:37:29.910580Z,1697902649910
0.007423810660839081,0.7900981903076172,0.08984971046447754,2023-10-21T15:37:29.930895Z,1697902649930
0.008052244782447815,0.8002567291259766,0.09554064273834229,2023-10-21T15:37:29.951074Z,1697902649951
0.008213691413402557,0.7934112548828125,0.09970343112945557,2023-10-21T15:37:29.973925Z,1697902649973
0.008181177079677582,0.7722940444946289,0.10226845741271973,2023-10-21T15:37:29.991613Z,1697902649991
0.008373036980628967,0.7388095855712891,0.10297107696533203,2023-10-21T15:37:30.011914Z,1697902650011
0.008960887789726257,0.6945524215698242,0.10156726837158203,2023-10-21T15:37:30.032161Z,1697902650032
0.009866684675216675,0.6420803070068359,0.09807062149047852,2023-10-21T15:37:30.052371Z,1697902650052
0.01086626946926117,0.5846652984619141,0.09284019470214844,2023-10-21T15:37:30.073877Z,1697902650073
0.011770501732826233,0.524958610534668,0.08635365962982178,2023-10-21T15:37:30.092944Z,1697902650092
0.0124589204788208,0.4647998809814453,0.07899618148803711,2023-10-21T15:37:30.113225Z,1697902650113
0.012809008359909058,0.40427112579345703,0.07083368301391602,2023-10-21T15:37:30.133454Z,1697902650133
0.01266905665397644,0.3419818878173828,0.06162416934967041,2023-10-21T15:37:30.153627Z,1697902650153
0.011811614036560059,0.27559757232666016,0.05093562602996826,2023-10-21T15:37:30.173947Z,1697902650173
0.009979546070098877,0.20304489135742188,0.03837275505065918,2023-10-21T15:37:30.194357Z,1697902650194
0.0068855881690979,0.12291717529296875,0.02367103099822998,2023-10-21T15:37:30.214533Z,1697902650214
0.00217515230178833,0.034171104431152344,0.006683826446533203,2023-10-21T15:37:30.234767Z,1697902650234
-0.0045961737632751465,-0.06359481811523438,-0.012590289115905762,2023-10-21T15:37:30.257067Z,1697902650257
-0.013845384120941162,-0.16872215270996094,-0.03371000289916992,2023-10-21T15:37:30.275287Z,1697902650275
-0.02581310272216797,-0.2769021987915039,-0.05560421943664551,2023-10-21T15:37:30.295578Z,1697902650295
-0.04046064615249634,-0.3821897506713867,-0.07671999931335449,2023-10-21T15:37:30.315831Z,1697902650315
-0.057343125343322754,-0.47848033905029297,-0.09537136554718018,2023-10-21T15:37:30.336086Z,1697902650336
-0.07528543472290039,-0.5588445663452148,-0.10975837707519531,2023-10-21T15:37:30.357034Z,1697902650356
-0.09214365482330322,-0.6149225234985352,-0.11798489093780518,2023-10-21T15:37:30.376627Z,1697902650376
-0.105033278465271,-0.6380977630615234,-0.11848747730255127,2023-10-21T15:37:30.396961Z,1697902650396
-0.11104142665863037,-0.6222620010375977,-0.1107562780380249,2023-10-21T15:37:30.417185Z,1697902650417
-0.10813236236572266,-0.5663509368896484,-0.09575307369232178,2023-10-21T15:37:30.440369Z,1697902650440
-0.09541177749633789,-0.47327518463134766,-0.07540905475616455,2023-10-21T15:37:30.457632Z,1697902650457
-0.07335734367370605,-0.3491067886352539,-0.05209183692932129,2023-10-21T15:37:30.477987Z,1697902650477
-0.04359126091003418,-0.2015094757080078,-0.028050899505615234,2023-10-21T15:37:30.498231Z,1697902650498
-0.008688926696777344,-0.039458274841308594,-0.005116581916809082,2023-10-21T15:37:30.518450Z,1697902650518
0.028540849685668945,0.12853431701660156,0.015540242195129395,2023-10-21T15:37:30.540302Z,1697902650540
0.06546950340270996,0.2944164276123047,0.03324711322784424,2023-10-21T15:37:30.559040Z,1697902650558
0.09982895851135254,0.4502706527709961,0.047635436058044434,2023-10-21T15:37:30.579288Z,1697902650579
0.12972736358642578,0.5885982513427734,0.058541059494018555,2023-10-21T15:37:30.599553Z,1697902650599
0.15398263931274414,0.7045383453369141,0.06610226631164551,2023-10-21T15:37:30.619701Z,1697902650619
0.17249393463134766,0.7979669570922852,0.07076561450958252,2023-10-21T15:37:30.640235Z,1697902650640
0.18587446212768555,0.8717527389526367,0.0730929970741272,2023-10-21T15:37:30.660358Z,1697902650660
0.19504141807556152,0.9299421310424805,0.07359516620635986,2023-10-21T15:37:30.680584Z,1697902650680
0.2006596326828003,0.9754343032836914,0.07269185781478882,2023-10-21T15:37:30.700838Z,1697902650700
0.20324552059173584,1.0103158950805664,0.07073396444320679,2023-10-21T15:37:30.723493Z,1697902650723
0.20337963104248047,1.036625862121582,0.06802564859390259,2023-10-21T15:37:30.741330Z,1697902650741
0.20154690742492676,1.0556974411010742,0.06473934650421143,2023-10-21T15:37:30.761658Z,1697902650761
0.19796335697174072,1.0669136047363281,0.06089186668395996,2023-10-21T15:37:30.781868Z,1697902650781
0.1925516128540039,1.0676641464233398,0.05647355318069458,2023-10-21T15:37:30.802138Z,1697902650802
0.1849069595336914,1.0534477233886719,0.05143994092941284,2023-10-21T15:37:30.823171Z,1697902650823
0.17479372024536133,1.0207405090332031,0.04580867290496826,2023-10-21T15:37:30.842676Z,1697902650842
0.16214919090270996,0.9672327041625977,0.039687663316726685,2023-10-21T15:37:30.863022Z,1697902650862
0.1469264030456543,0.8912935256958008,0.03325080871582031,2023-10-21T15:37:30.883195Z,1697902650883
0.12913239002227783,0.7921075820922852,0.026682674884796143,2023-10-21T15:37:30.903370Z,1697902650903
0.10883224010467529,0.6705026626586914,0.020176827907562256,2023-10-21T15:37:30.923711Z,1697902650923
0.08634507656097412,0.5302181243896484,0.013980329036712646,2023-10-21T15:37:30.944045Z,1697902650944
0.0622330904006958,0.3777742385864258,0.008444488048553467,2023-10-21T15:37:30.964299Z,1697902650964
0.03729724884033203,0.22208213806152344,0.003978848457336426,2023-10-21T15:37:30.984463Z,1697902650984
0.012705087661743164,0.07375621795654297,9.559094905853271E-4,2023-10-21T15:37:31.006660Z,1697902651006
-0.009981632232666016,-0.05625629425048828,-4.2616575956344604E-4,2023-10-21T15:37:31.025145Z,1697902651025
-0.029199719429016113,-0.15942764282226562,-3.212597221136093E-4,2023-10-21T15:37:31.045399Z,1697902651045
-0.04343998432159424,-0.2297811508178711,7.970519363880157E-4,2023-10-21T15:37:31.065627Z,1697902651065
-0.05110633373260498,-0.2623262405395508,0.002265341579914093,2023-10-21T15:37:31.085769Z,1697902651085
-0.05064833164215088,-0.2529315948486328,0.003380492329597473,2023-10-21T15:37:31.106551Z,1697902651106
-0.04119384288787842,-0.20067691802978516,0.0035085082054138184,2023-10-21T15:37:31.126550Z,1697902651126
-0.023542404174804688,-0.11217021942138672,0.0023156553506851196,2023-10-21T15:37:31.146667Z,1697902651146
-3.24249267578125E-5,-1.4972686767578125E-4,3.248453140258789E-6,2023-10-21T15:37:31.167041Z,1697902651166
0.026132822036743164,0.12044429779052734,-0.0027624964714050293,2023-10-21T15:37:31.189755Z,1697902651189
0.05195164680480957,0.23735332489013672,-0.00519813597202301,2023-10-21T15:37:31.207417Z,1697902651207
0.07530450820922852,0.3434295654296875,-0.006749153137207031,2023-10-21T15:37:31.227698Z,1697902651227
0.09511518478393555,0.4365072250366211,-0.007239088416099548,2023-10-21T15:37:31.247969Z,1697902651247
0.11102151870727539,0.5166921615600586,-0.006704643368721008,2023-10-21T15:37:31.268167Z,1697902651268
0.12276935577392578,0.5829792022705078,-0.005248546600341797,2023-10-21T15:37:31.289698Z,1697902651289
0.1299738883972168,0.632227897644043,-0.0029768459498882294,2023-10-21T15:37:31.308812Z,1697902651308
0.13261210918426514,0.6620607376098633,-1.0517123155295849E-4,2023-10-21T15:37:31.329087Z,1697902651329
0.13143348693847656,0.673884391784668,0.003001011908054352,2023-10-21T15:37:31.349277Z,1697902651349
0.12772059440612793,0.6723108291625977,0.006015889346599579,2023-10-21T15:37:31.369450Z,1697902651369
0.1227489709854126,0.6627035140991211,0.008754119277000427,2023-10-21T15:37:31.389797Z,1697902651389
0.11730194091796875,0.6483068466186523,0.011208310723304749,2023-10-21T15:37:31.410121Z,1697902651410
0.1115729808807373,0.6293153762817383,0.013430535793304443,2023-10-21T15:37:31.430312Z,1697902651430
0.10522329807281494,0.6031484603881836,0.015440583229064941,2023-10-21T15:37:31.450596Z,1697902651450
0.09754610061645508,0.5659637451171875,0.017115890979766846,2023-10-21T15:37:31.472995Z,1697902651472
0.0879511833190918,0.5151500701904297,0.01820814609527588,2023-10-21T15:37:31.491117Z,1697902651491
0.0761028528213501,0.4497213363647461,0.01838284730911255,2023-10-21T15:37:31.511435Z,1697902651511
0.06202137470245361,0.37026214599609375,0.017316162586212158,2023-10-21T15:37:31.531634Z,1697902651531
0.046048641204833984,0.27831077575683594,0.014735758304595947,2023-10-21T15:37:31.551911Z,1697902651551
0.028634190559387207,0.17545604705810547,0.010414659976959229,2023-10-21T15:37:31.572681Z,1697902651572
0.010022759437561035,0.062229156494140625,0.004104316234588623,2023-10-21T15:37:31.592585Z,1697902651592
-0.009755492210388184,-0.06122016906738281,-0.0044484734535217285,2023-10-21T15:37:31.612767Z,1697902651612
-0.030537009239196777,-0.1928853988647461,-0.015299022197723389,2023-10-21T15:37:31.632968Z,1697902651632
-0.0515897274017334,-0.3264760971069336,-0.027925491333007812,2023-10-21T15:37:31.656081Z,1697902651656
-0.07171154022216797,-0.4517536163330078,-0.04107511043548584,2023-10-21T15:37:31.673473Z,1697902651673
-0.08960998058319092,-0.5572662353515625,-0.05297410488128662,2023-10-21T15:37:31.693795Z,1697902651693
-0.10405611991882324,-0.632293701171875,-0.06171137094497681,2023-10-21T15:37:31.714067Z,1697902651714
-0.11396026611328125,-0.669586181640625,-0.06585174798965454,2023-10-21T15:37:31.734310Z,1697902651734
-0.11856412887573242,-0.6680374145507812,-0.06509172916412354,2023-10-21T15:37:31.755957Z,1697902651755
-0.1171116828918457,-0.6305961608886719,-0.060096025466918945,2023-10-21T15:37:31.774822Z,1697902651774
-0.10872650146484375,-0.5607414245605469,-0.05185192823410034,2023-10-21T15:37:31.795110Z,1697902651795
-0.09266948699951172,-0.46074581146240234,-0.04118400812149048,2023-10-21T15:37:31.815312Z,1697902651815
-0.06903910636901855,-0.33376598358154297,-0.028826475143432617,2023-10-21T15:37:31.835517Z,1697902651835
-0.0393909215927124,-0.18680572509765625,-0.015650033950805664,2023-10-21T15:37:31.856004Z,1697902651855
-0.006263256072998047,-0.029389381408691406,-0.002404153347015381,2023-10-21T15:37:31.876164Z,1697902651876
0.02759718894958496,0.1291666030883789,0.010379612445831299,2023-10-21T15:37:31.896440Z,1697902651896
0.05961894989013672,0.2805147171020508,0.02228093147277832,2023-10-21T15:37:31.916660Z,1697902651916
0.08774518966674805,0.4181079864501953,0.03299295902252197,2023-10-21T15:37:31.939170Z,1697902651939
0.1109623908996582,0.5391645431518555,0.04239898920059204,2023-10-21T15:37:31.957158Z,1697902651957
0.1292724609375,0.6439304351806641,0.05042845010757446,2023-10-21T15:37:31.977520Z,1697902651977
0.1433274745941162,0.7342405319213867,0.056961238384246826,2023-10-21T15:37:31.997739Z,1697902651997
0.1537688970565796,0.810786247253418,0.06176865100860596,2023-10-21T15:37:32.017905Z,1697902652017
0.16108179092407227,0.8733930587768555,0.0646524429321289,2023-10-21T15:37:32.039202Z,1697902652039
0.1656104326248169,0.921783447265625,0.06550747156143188,2023-10-21T15:37:32.058498Z,1697902652058
0.1675429344177246,0.9557790756225586,0.06440925598144531,2023-10-21T15:37:32.078816Z,1697902652078
0.16677653789520264,0.9749345779418945,0.06156361103057861,2023-10-21T15:37:32.099Z,1697902652098
0.16320669651031494,0.9793434143066406,0.057309508323669434,2023-10-21T15:37:32.119272Z,1697902652119
0.1567845344543457,0.9692544937133789,0.05199402570724487,2023-10-21T15:37:32.139530Z,1697902652139
0.1477677822113037,0.9454317092895508,0.04597198963165283,2023-10-21T15:37:32.159838Z,1697902652159
0.13661491870880127,0.9085168838500977,0.03951099514961243,2023-10-21T15:37:32.180088Z,1697902652180
0.12381303310394287,0.8585414886474609,0.03281635046005249,2023-10-21T15:37:32.200338Z,1697902652200
0.10969245433807373,0.7938261032104492,0.026089787483215332,2023-10-21T15:37:32.222472Z,1697902652222
0.09453928470611572,0.7122220993041992,0.01960107684135437,2023-10-21T15:37:32.240862Z,1697902652240
0.07888984680175781,0.6143808364868164,0.013669952750205994,2023-10-21T15:37:32.261194Z,1697902652261
0.06345963478088379,0.5048322677612305,0.008551985025405884,2023-10-21T15:37:32.281425Z,1697902652281
0.04884517192840576,0.39058685302734375,0.004419758915901184,2023-10-21T15:37:32.301628Z,1697902652301
0.03528392314910889,0.2785177230834961,0.0014284737408161163,2023-10-21T15:37:32.322277Z,1697902652322
0.02290785312652588,0.1754131317138672,-3.032758831977844E-4,2023-10-21T15:37:32.342282Z,1697902652342
0.012103676795959473,0.08860206604003906,-8.177682757377625E-4,2023-10-21T15:37:32.362544Z,1697902652362
0.003679037094116211,0.02547454833984375,-4.3588876724243164E-4,2023-10-21T15:37:32.382842Z,1697902652382
-0.0014195442199707031,-0.009259223937988281,2.3159384727478027E-4,2023-10-21T15:37:32.405804Z,1697902652405
-0.0022950172424316406,-0.014055252075195312,4.481375217437744E-4,2023-10-21T15:37:32.423270Z,1697902652423
0.001689314842224121,0.009737014770507812,-3.668367862701416E-4,2023-10-21T15:37:32.443651Z,1697902652443
0.010415434837341309,0.05690765380859375,-0.002381622791290283,2023-10-21T15:37:32.463816Z,1697902652463
0.023184537887573242,0.12082576751708984,-0.005348294973373413,2023-10-21T15:37:32.484035Z,1697902652483
0.038657307624816895,0.1937246322631836,-0.00868844985961914,2023-10-21T15:37:32.505432Z,1697902652505
0.05561971664428711,0.27027225494384766,-0.011807471513748169,2023-10-21T15:37:32.524571Z,1697902652524
0.07290887832641602,0.3463573455810547,-0.014193296432495117,2023-10-21T15:37:32.544863Z,1697902652544
0.08915328979492188,0.41725635528564453,-0.015378236770629883,2023-10-21T15:37:32.565059Z,1697902652565
0.10280585289001465,0.477325439453125,-0.014974415302276611,2023-10-21T15:37:32.585268Z,1697902652585
0.11283493041992188,0.5222883224487305,-0.012823402881622314,2023-10-21T15:37:32.605583Z,1697902652605
0.11934924125671387,0.5512208938598633,-0.009194433689117432,2023-10-21T15:37:32.625906Z,1697902652625
0.12335062026977539,0.5668773651123047,-0.004704087972640991,2023-10-21T15:37:32.646192Z,1697902652646
0.12586140632629395,0.573155403137207,-7.145409472286701E-5,2023-10-21T15:37:32.666520Z,1697902652666
0.12712764739990234,0.5717582702636719,0.004226520657539368,2023-10-21T15:37:32.688676Z,1697902652688
0.12688398361206055,0.5629453659057617,0.008016452193260193,2023-10-21T15:37:32.706933Z,1697902652706
0.12454724311828613,0.5448532104492188,0.011319711804389954,2023-10-21T15:37:32.727268Z,1697902652727
0.11974477767944336,0.5164403915405273,0.014108479022979736,2023-10-21T15:37:32.747457Z,1697902652747
0.11224627494812012,0.4773979187011719,0.01625150442123413,2023-10-21T15:37:32.767740Z,1697902652767
0.10192513465881348,0.42774105072021484,0.0174940824508667,2023-10-21T15:37:32.788733Z,1697902652788
0.08879542350769043,0.36824607849121094,0.017531782388687134,2023-10-21T15:37:32.808287Z,1697902652808
0.07291293144226074,0.30011749267578125,0.016199767589569092,2023-10-21T15:37:32.828595Z,1697902652828
0.0542759895324707,0.2233409881591797,0.013403356075286865,2023-10-21T15:37:32.848776Z,1697902652848
0.03300666809082031,0.13684463500976562,0.00905674695968628,2023-10-21T15:37:32.871957Z,1697902652871
0.009285449981689453,0.0390167236328125,0.0028477907180786133,2023-10-21T15:37:32.889287Z,1697902652889
-0.016156435012817383,-0.06905555725097656,-0.005565524101257324,2023-10-21T15:37:32.909625Z,1697902652909
-0.04162430763244629,-0.1813068389892578,-0.016064167022705078,2023-10-21T15:37:32.929864Z,1697902652929
-0.06501150131225586,-0.289031982421875,-0.027842462062835693,2023-10-21T15:37:32.950114Z,1697902652950
-0.08445239067077637,-0.3834390640258789,-0.039559006690979004,2023-10-21T15:37:32.971868Z,1697902652971
-0.09880030155181885,-0.45786285400390625,-0.04978787899017334,2023-10-21T15:37:32.990668Z,1697902652990
-0.10743176937103271,-0.5072145462036133,-0.05727243423461914,2023-10-21T15:37:33.010951Z,1697902653010
-0.1103050708770752,-0.5284709930419922,-0.06111454963684082,2023-10-21T15:37:33.031169Z,1697902653031
-0.10759568214416504,-0.5200319290161133,-0.06077873706817627,2023-10-21T15:37:33.051370Z,1697902653051
-0.09934818744659424,-0.4814138412475586,-0.05606985092163086,2023-10-21T15:37:33.071646Z,1697902653071
-0.08520984649658203,-0.4120826721191406,-0.047072410583496094,2023-10-21T15:37:33.092005Z,1697902653091
-0.06493484973907471,-0.31299877166748047,-0.03446304798126221,2023-10-21T15:37:33.112306Z,1697902653112
-0.039183616638183594,-0.188873291015625,-0.019744396209716797,2023-10-21T15:37:33.132481Z,1697902653132
-0.01006925106048584,-0.04885101318359375,-0.004808187484741211,2023-10-21T15:37:33.155057Z,1697902653155
0.019829630851745605,0.09747314453125,0.00903928279876709,2023-10-21T15:37:33.172993Z,1697902653172
0.048516035079956055,0.24272727966308594,0.021376490592956543,2023-10-21T15:37:33.193307Z,1697902653193
0.07479619979858398,0.3815784454345703,0.032228827476501465,2023-10-21T15:37:33.213555Z,1697902653213
0.09807538986206055,0.5112447738647461,0.04172933101654053,2023-10-21T15:37:33.233745Z,1697902653233
0.11777710914611816,0.6297082901000977,0.04994773864746094,2023-10-21T15:37:33.255099Z,1697902653255
0.1335301399230957,0.7363109588623047,0.0569765567779541,2023-10-21T15:37:33.274360Z,1697902653274
0.14506494998931885,0.8304510116577148,0.06294572353363037,2023-10-21T15:37:33.294635Z,1697902653294
0.15237224102020264,0.9107913970947266,0.06803017854690552,2023-10-21T15:37:33.314822Z,1697902653314
0.15601623058319092,0.9755134582519531,0.07225698232650757,2023-10-21T15:37:33.338449Z,1697902653338
0.15702390670776367,1.0243043899536133,0.07546710968017578,2023-10-21T15:37:33.355480Z,1697902653355
0.15620970726013184,1.0583724975585938,0.07719898223876953,2023-10-21T15:37:33.375690Z,1697902653375
0.15381062030792236,1.079702377319336,0.07697224617004395,2023-10-21T15:37:33.395918Z,1697902653395
0.14963924884796143,1.0893182754516602,0.0745549201965332,2023-10-21T15:37:33.416146Z,1697902653416
0.1436232328414917,1.0862102508544922,0.07001906633377075,2023-10-21T15:37:33.438312Z,1697902653438
0.13592147827148438,1.0691299438476562,0.063620924949646,2023-10-21T15:37:33.456678Z,1697902653456
0.12694919109344482,1.038320541381836,0.05576813220977783,2023-10-21T15:37:33.477009Z,1697902653476
0.11710643768310547,0.9935531616210938,0.04692959785461426,2023-10-21T15:37:33.497190Z,1697902653497
0.10650897026062012,0.9335269927978516,0.03756988048553467,2023-10-21T15:37:33.517420Z,1697902653517
0.0949087142944336,0.8555889129638672,0.028223276138305664,2023-10-21T15:37:33.537995Z,1697902653537
0.08210277557373047,0.7588529586791992,0.019500255584716797,2023-10-21T15:37:33.558081Z,1697902653558
0.06834852695465088,0.6457977294921875,0.011981159448623657,2023-10-21T15:37:33.578326Z,1697902653578
0.05432248115539551,0.5225372314453125,0.0060716718435287476,2023-10-21T15:37:33.598534Z,1697902653598
0.040762901306152344,0.39662837982177734,0.001920107752084732,2023-10-21T15:37:33.621406Z,1697902653621
0.0282059907913208,0.275146484375,-5.048234015703201E-4,2023-10-21T15:37:33.639142Z,1697902653639
0.016886353492736816,0.16337966918945312,-0.0013803169131278992,2023-10-21T15:37:33.659435Z,1697902653659
0.006777644157409668,0.0643148422241211,-9.581297636032104E-4,2023-10-21T15:37:33.679685Z,1697902653679
-0.001976490020751953,-0.018242835998535156,3.849416971206665E-4,2023-10-21T15:37:33.699902Z,1697902653699
-0.008843302726745605,-0.07886314392089844,0.0021483898162841797,2023-10-21T15:37:33.721378Z,1697902653721
-0.012868404388427734,-0.11048126220703125,0.0036773085594177246,2023-10-21T15:37:33.740440Z,1697902653740
-0.013303756713867188,-0.10942935943603516,0.004312604665756226,2023-10-21T15:37:33.760701Z,1697902653760
-0.009839534759521484,-0.0771026611328125,0.003494769334793091,2023-10-21T15:37:33.780896Z,1697902653780
-0.0027619600296020508,-0.020513534545898438,0.0010378360748291016,2023-10-21T15:37:33.801193Z,1697902653801
0.007183074951171875,0.05048942565917969,-0.002758622169494629,2023-10-21T15:37:33.821685Z,1697902653821
0.018947243690490723,0.12648582458496094,-0.007225930690765381,2023-10-21T15:37:33.841712Z,1697902653841
0.03142380714416504,0.20066356658935547,-0.011594593524932861,2023-10-21T15:37:33.861975Z,1697902653861
0.04371225833892822,0.2689342498779297,-0.015247464179992676,2023-10-21T15:37:33.882224Z,1697902653882
0.0554424524307251,0.3297462463378906,-0.017870068550109863,2023-10-21T15:37:33.904422Z,1697902653904
0.06651592254638672,0.38211727142333984,-0.01939702033996582,2023-10-21T15:37:33.922767Z,1697902653922
0.07663142681121826,0.4241456985473633,-0.01984161138534546,2023-10-21T15:37:33.943072Z,1697902653943
0.08519876003265381,0.45386791229248047,-0.019280940294265747,2023-10-21T15:37:33.963356Z,1697902653963
0.09125781059265137,0.46854686737060547,-0.01783931255340576,2023-10-21T15:37:33.983616Z,1697902653983
0.09423613548278809,0.4679136276245117,-0.01580396294593811,2023-10-21T15:37:34.004488Z,1697902654004
0.09438610076904297,0.4550790786743164,-0.013555079698562622,2023-10-21T15:37:34.024052Z,1697902654024
0.09283900260925293,0.4358987808227539,-0.011431068181991577,2023-10-21T15:37:34.044361Z,1697902654044
0.09086036682128906,0.4158439636230469,-0.0096377432346344,2023-10-21T15:37:34.064550Z,1697902654064
0.0891878604888916,0.39785099029541016,-0.008210092782974243,2023-10-21T15:37:34.087658Z,1697902654087
0.08736348152160645,0.3799762725830078,-0.006992772221565247,2023-10-21T15:37:34.105116Z,1697902654105
0.08436846733093262,0.3583688735961914,-0.005779281258583069,2023-10-21T15:37:34.125423Z,1697902654125
0.07932496070861816,0.3299102783203125,-0.004468679428100586,2023-10-21T15:37:34.145720Z,1697902654145
0.07222223281860352,0.2949333190917969,-0.0031294599175453186,2023-10-21T15:37:34.165921Z,1697902654165
0.06377267837524414,0.25635433197021484,-0.0019166246056556702,2023-10-21T15:37:34.187782Z,1697902654187
0.05474519729614258,0.21697235107421875,-9.379684925079346E-4,2023-10-21T15:37:34.206514Z,1697902654206
0.045812129974365234,0.17903995513916016,-2.3664720356464386E-4,2023-10-21T15:37:34.226855Z,1697902654226
0.03754472732543945,0.14457988739013672,1.9481685012578964E-4,2023-10-21T15:37:34.247027Z,1697902654246
0.030472517013549805,0.11559009552001953,4.119277000427246E-4,2023-10-21T15:37:34.267201Z,1697902654267
0.023955345153808594,0.0896463394165039,4.8045068979263306E-4,2023-10-21T15:37:34.287667Z,1697902654287
0.016849279403686523,0.06245231628417969,4.2878836393356323E-4,2023-10-21T15:37:34.307825Z,1697902654307
0.008427619934082031,0.031104087829589844,2.5063008069992065E-4,2023-10-21T15:37:34.328091Z,1697902654328
-3.01361083984375E-4,-0.0011138916015625,-9.685754776000977E-6,2023-10-21T15:37:34.348351Z,1697902654348
-0.0073626041412353516,-0.02728748321533203,-2.380087971687317E-4,2023-10-21T15:37:34.371016Z,1697902654370
-0.010912895202636719,-0.04071235656738281,-3.1285732984542847E-4,2023-10-21T15:37:34.388868Z,1697902654388
-0.010171651840209961,-0.03837871551513672,-2.215467393398285E-4,2023-10-21T15:37:34.409190Z,1697902654409
-0.005747079849243164,-0.022101402282714844,-8.169189095497131E-5,2023-10-21T15:37:34.429419Z,1697902654429
7.491111755371094E-4,0.0029611587524414062,6.414949893951416E-6,2023-10-21T15:37:34.449666Z,1697902654449
0.00756382942199707,0.030996322631835938,3.2765790820121765E-5,2023-10-21T15:37:34.470906Z,1697902654470
0.014623165130615234,0.06242084503173828,6.0197897255420685E-5,2023-10-21T15:37:34.490251Z,1697902654490
0.022942304611206055,0.10212326049804688,1.2544915080070496E-4,2023-10-21T15:37:34.510498Z,1697902654510
0.03343534469604492,0.15485286712646484,2.300012856721878E-4,2023-10-21T15:37:34.530697Z,1697902654530
0.04573488235473633,0.21962451934814453,3.295028582215309E-4,2023-10-21T15:37:34.550944Z,1697902654550
0.05857586860656738,0.2908477783203125,3.6337412893772125E-4,2023-10-21T15:37:34.571213Z,1697902654571
0.07070958614349365,0.3620872497558594,2.569938078522682E-4,2023-10-21T15:37:34.591535Z,1697902654591
0.08163142204284668,0.42931175231933594,-1.520109362900257E-4,2023-10-21T15:37:34.611770Z,1697902654611
0.09141242504119873,0.49053287506103516,-0.0011666137725114822,2023-10-21T15:37:34.632039Z,1697902654631
0.10034692287445068,0.5453376770019531,-0.003133002668619156,2023-10-21T15:37:34.653998Z,1697902654653
0.10864412784576416,0.5941848754882812,-0.006336577236652374,2023-10-21T15:37:34.672550Z,1697902654672
0.11616778373718262,0.6367979049682617,-0.010905340313911438,2023-10-21T15:37:34.692858Z,1697902654692
0.12260699272155762,0.6722574234008789,-0.016790539026260376,2023-10-21T15:37:34.713029Z,1697902654712
0.1272876262664795,0.6976461410522461,-0.023661524057388306,2023-10-21T15:37:34.733199Z,1697902654733
0.1290684938430786,0.7072467803955078,-0.030813872814178467,2023-10-21T15:37:34.753976Z,1697902654753
0.1268768310546875,0.6955060958862305,-0.03728276491165161,2023-10-21T15:37:34.773892Z,1697902654773
0.12098634243011475,0.662837028503418,-0.042498648166656494,2023-10-21T15:37:34.794160Z,1697902654794
0.11302995681762695,0.6164274215698242,-0.0465550422668457,2023-10-21T15:37:34.814380Z,1697902654814
0.10534405708312988,0.5675067901611328,-0.05014228820800781,2023-10-21T15:37:34.837250Z,1697902654837
0.09935081005096436,0.5234842300415039,-0.05384862422943115,2023-10-21T15:37:34.854837Z,1697902654854
0.09518706798553467,0.4856996536254883,-0.057772278785705566,2023-10-21T15:37:34.875178Z,1697902654875
0.09229910373687744,0.4518146514892578,-0.06159508228302002,2023-10-21T15:37:34.895462Z,1697902654895
0.0899660587310791,0.41888904571533203,-0.0648202896118164,2023-10-21T15:37:34.915675Z,1697902654915
0.08812475204467773,0.38735198974609375,-0.0674433708190918,2023-10-21T15:37:34.937126Z,1697902654937
0.08765769004821777,0.3614635467529297,-0.07025480270385742,2023-10-21T15:37:34.956275Z,1697902654956
0.08994770050048828,0.34619998931884766,-0.07454085350036621,2023-10-21T15:37:34.976557Z,1697902654976
0.09513092041015625,0.34070396423339844,-0.08057808876037598,2023-10-21T15:37:34.996755Z,1697902654996
0.10162043571472168,0.3382587432861328,-0.08704519271850586,2023-10-21T15:37:35.016896Z,1697902655016
0.10651326179504395,0.3297538757324219,-0.0914297103881836,2023-10-21T15:37:35.037244Z,1697902655037
0.10759663581848145,0.31038570404052734,-0.09188699722290039,2023-10-21T15:37:35.057599Z,1697902655057
0.10453271865844727,0.2814970016479492,-0.08831286430358887,2023-10-21T15:37:35.077829Z,1697902655077
0.09872007369995117,0.24854660034179688,-0.08214306831359863,2023-10-21T15:37:35.098113Z,1697902655097
0.09278750419616699,0.21864891052246094,-0.07574677467346191,2023-10-21T15:37:35.120246Z,1697902655120
0.08935880661010742,0.19729995727539062,-0.07129502296447754,2023-10-21T15:37:35.138599Z,1697902655138
0.08997297286987305,0.18641090393066406,-0.06989002227783203,2023-10-21T15:37:35.158942Z,1697902655158
0.09475278854370117,0.1845531463623047,-0.07139348983764648,2023-10-21T15:37:35.179093Z,1697902655179
0.1032710075378418,0.18949222564697266,-0.0752253532409668,2023-10-21T15:37:35.199305Z,1697902655199
0.1152029037475586,0.1995992660522461,-0.08089685440063477,2023-10-21T15:37:35.220344Z,1697902655220
0.13053321838378906,0.2140636444091797,-0.08815860748291016,2023-10-21T15:37:35.239898Z,1697902655239
