GYR_X,GYR_Y,GYR_Z,DATE,UNIX_TIMESTAMP
0.003325703786686063,0.0025275349617004395,0.0037247883155941963,2023-10-21T15:37:11.612708Z,1697902631612
-0.0027935912366956472,0.0014633096288889647,0.004389929119497538,2023-10-21T15:37:11.622299Z,1697902631622
-0.004922041669487953,0.004522957373410463,0.0025275349617004395,2023-10-21T15:37:11.632882Z,1697902631632
0.003325703786686063,-0.0018623941577970982,-0.003325703786686063,2023-10-21T15:37:11.642589Z,1697902631642
0.004256900865584612,0.0027935912366956472,-0.0035917600616812706,2023-10-21T15:37:11.653282Z,1697902631653
-5.321126081980765E-4,-0.004922041669487953,-0.004922041669487953,2023-10-21T15:37:11.662842Z,1697902631662
-9.311970788985491E-4,-0.004522957373410463,-0.0034587320405989885,2023-10-21T15:37:11.673596Z,1697902631673
-0.004389929119497538,-1.3302815204951912E-4,0.0025275349617004395,2023-10-21T15:37:11.682991Z,1697902631682
-0.001064225216396153,-0.0022614786867052317,0.0015963378828018904,2023-10-21T15:37:11.694104Z,1697902631693
-0.0025275349617004395,-0.0031926757656037807,0.0037247883155941963,2023-10-21T15:37:11.703932Z,1697902631703
0.0038578163366764784,0.0,0.0029266192577779293,2023-10-21T15:37:11.714058Z,1697902631714
-0.0025275349617004395,-0.004256900865584612,-3.990844707004726E-4,2023-10-21T15:37:11.723725Z,1697902631723
-0.0039908443577587605,7.981689414009452E-4,-0.0038578163366764784,2023-10-21T15:37:11.739982Z,1697902631739
0.0038578163366764784,0.0037247883155941963,-0.0029266192577779293,2023-10-21T15:37:11.743868Z,1697902631743
0.0047890134155750275,-0.0013302814913913608,0.0037247883155941963,2023-10-21T15:37:11.754949Z,1697902631754
0.0013302814913913608,-0.0027935912366956472,-0.004389929119497538,2023-10-21T15:37:11.764129Z,1697902631764
-0.002128450432792306,0.0038578163366764784,-0.0017293660202994943,2023-10-21T15:37:11.775001Z,1697902631774
0.0035917600616812706,-0.0039908443577587605,0.0022614786867052317,2023-10-21T15:37:11.787479Z,1697902631787
0.0,-0.0014633096288889647,-0.002128450432792306,2023-10-21T15:37:11.795285Z,1697902631795
-0.0026605629827827215,0.004922041669487953,0.004522957373410463,2023-10-21T15:37:11.804692Z,1697902631804
-0.0027935912366956472,0.0034587320405989885,-6.651407456956804E-4,2023-10-21T15:37:11.815383Z,1697902631815
-3.990844707004726E-4,0.0034587320405989885,0.0011972533538937569,2023-10-21T15:37:11.825025Z,1697902631824
0.0014633096288889647,-0.003059647511690855,-0.0025275349617004395,2023-10-21T15:37:11.837611Z,1697902631837
-0.0023945067077875137,-0.004256900865584612,5.321126081980765E-4,2023-10-21T15:37:11.845286Z,1697902631845
0.003325703786686063,-0.0011972533538937569,-0.0023945067077875137,2023-10-21T15:37:11.856243Z,1697902631856
0.0,-0.0039908443577587605,-2.6605630409903824E-4,2023-10-21T15:37:11.865356Z,1697902631865
6.651407456956804E-4,2.6605630409903824E-4,0.0,2023-10-21T15:37:11.876477Z,1697902631876
0.003325703786686063,-0.0037247883155941963,-5.321126081980765E-4,2023-10-21T15:37:11.887245Z,1697902631887
7.981689414009452E-4,2.6605630409903824E-4,-0.0019954221788793802,2023-10-21T15:37:11.896601Z,1697902631896
-0.0017293660202994943,0.0013302814913913608,-0.0039908443577587605,2023-10-21T15:37:11.906073Z,1697902631905
-0.0014633096288889647,-0.0,-0.0027935912366956472,2023-10-21T15:37:11.916861Z,1697902631916
0.0019954221788793802,-0.0035917600616812706,-0.004922041669487953,2023-10-21T15:37:11.926342Z,1697902631926
0.0023945067077875137,0.001064225216396153,-0.0035917600616812706,2023-10-21T15:37:11.937862Z,1697902631937
0.001064225216396153,-0.004522957373410463,-0.0014633096288889647,2023-10-21T15:37:11.946558Z,1697902631946
1.3302815204951912E-4,0.0011972533538937569,0.004256900865584612,2023-10-21T15:37:11.957524Z,1697902631957
-0.002128450432792306,-0.0025275349617004395,-0.003325703786686063,2023-10-21T15:37:11.966699Z,1697902631966
-0.004655985161662102,0.0018623941577970982,0.0025275349617004395,2023-10-21T15:37:11.977837Z,1697902631977
0.004522957373410463,0.004389929119497538,0.004123872611671686,2023-10-21T15:37:11.987010Z,1697902631986
-0.004922041669487953,0.004522957373410463,-9.311970788985491E-4,2023-10-21T15:37:11.997802Z,1697902631997
-0.05148189514875412,-0.21417532861232758,-0.01982119493186474,2023-10-21T15:37:12.007363Z,1697902632007
-0.05746816098690033,-0.24610207974910736,-0.03418823331594467,2023-10-21T15:37:12.020783Z,1697902632020
-0.06505076587200165,-0.2864096164703369,-0.057601191103458405,2023-10-21T15:37:12.027563Z,1697902632027
-0.07369759678840637,-0.3357630670070648,-0.08859674632549286,2023-10-21T15:37:12.038555Z,1697902632038
-0.0818123146891594,-0.39642390608787537,-0.12690885365009308,2023-10-21T15:37:12.047759Z,1697902632047
-0.0872664675116539,-0.47118571400642395,-0.17373476922512054,2023-10-21T15:37:12.058852Z,1697902632058
-0.08859674632549286,-0.5581861138343811,-0.2272120863199234,2023-10-21T15:37:12.070248Z,1697902632070
-0.08633527159690857,-0.6481131315231323,-0.2793591320514679,2023-10-21T15:37:12.078804Z,1697902632078
-0.08194534480571747,-0.730457603931427,-0.32073086500167847,2023-10-21T15:37:12.088329Z,1697902632088
-0.07742238789796829,-0.800031304359436,-0.34547412395477295,2023-10-21T15:37:12.099047Z,1697902632099
-0.0740966796875,-0.8524444103240967,-0.3513273596763611,2023-10-21T15:37:12.108641Z,1697902632108
-0.0735645666718483,-0.8815775513648987,-0.3354969918727875,2023-10-21T15:37:12.120721Z,1697902632120
-0.07609210163354874,-0.8826417922973633,-0.29705187678337097,2023-10-21T15:37:12.128823Z,1697902632128
-0.08061505854129791,-0.8582976460456848,-0.23918461799621582,2023-10-21T15:37:12.139798Z,1697902632139
-0.08447287976741791,-0.818256139755249,-0.1696108877658844,2023-10-21T15:37:12.149012Z,1697902632148
-0.08593618869781494,-0.771430253982544,-0.09671146422624588,2023-10-21T15:37:12.159930Z,1697902632159
-0.08407378941774368,-0.7230079770088196,-0.0260735172778368,2023-10-21T15:37:12.170670Z,1697902632170
-0.07888569682836533,-0.6767141819000244,0.03764696791768074,2023-10-21T15:37:12.180120Z,1697902632180
-0.07090400159358978,-0.6370718479156494,0.09032611548900604,2023-10-21T15:37:12.189664Z,1697902632189
-0.061725061386823654,-0.6075395941734314,0.127840057015419,2023-10-21T15:37:12.204275Z,1697902632204
-0.053477317094802856,-0.589580774307251,0.14832639694213867,2023-10-21T15:37:12.209945Z,1697902632209
-0.04735802114009857,-0.5827963352203369,0.15165209770202637,2023-10-21T15:37:12.220757Z,1697902632220
-0.0438992902636528,-0.5859889984130859,0.13981258869171143,2023-10-21T15:37:12.230169Z,1697902632230
-0.04310112074017525,-0.5982276201248169,0.11493632197380066,2023-10-21T15:37:12.241152Z,1697902632241
-0.04456442967057228,-0.6173836588859558,0.08048202842473984,2023-10-21T15:37:12.253618Z,1697902632253
-0.047890134155750275,-0.6399984359741211,0.04137175530195236,2023-10-21T15:37:12.261234Z,1697902632261
-0.05241309106349945,-0.6616820096969604,0.002128450432792306,2023-10-21T15:37:12.270727Z,1697902632270
-0.05839935690164566,-0.6793747544288635,-0.03445428982377052,2023-10-21T15:37:12.281434Z,1697902632281
-0.06624802201986313,-0.691879391670227,-0.06784436106681824,2023-10-21T15:37:12.291029Z,1697902632290
-0.07649118453264236,-0.6983978152275085,-0.09777569025754929,2023-10-21T15:37:12.303892Z,1697902632303
-0.08859674632549286,-0.6991959810256958,-0.12438131868839264,2023-10-21T15:37:12.311316Z,1697902632311
-0.10203259438276291,-0.6946730017662048,-0.14699611067771912,2023-10-21T15:37:12.322318Z,1697902632322
-0.11639963090419769,-0.6865583062171936,-0.16508793830871582,2023-10-21T15:37:12.331609Z,1697902632331
-0.13076667487621307,-0.6767141819000244,-0.17825771868228912,2023-10-21T15:37:12.342951Z,1697902632342
-0.1432713270187378,-0.6658058762550354,-0.18623940646648407,2023-10-21T15:37:12.354012Z,1697902632353
-0.15218420326709747,-0.6533012390136719,-0.1887669414281845,2023-10-21T15:37:12.362824Z,1697902632362
-0.1559089869260788,-0.6376039385795593,-0.18570730090141296,2023-10-21T15:37:12.372058Z,1697902632372
-0.1541796326637268,-0.6171175837516785,-0.17652836441993713,2023-10-21T15:37:12.382991Z,1697902632382
-0.14779427647590637,-0.5917091965675354,-0.16109709441661835,2023-10-21T15:37:12.392375Z,1697902632392
-0.1383492797613144,-0.5627090930938721,-0.1404777318239212,2023-10-21T15:37:12.404038Z,1697902632404
-0.12757399678230286,-0.5321125984191895,-0.11546843498945236,2023-10-21T15:37:12.412618Z,1697902632412
-0.1169317439198494,-0.5007179379463196,-0.08700041472911835,2023-10-21T15:37:12.423628Z,1697902632423
-0.10722068697214127,-0.46786001324653625,-0.055339712649583817,2023-10-21T15:37:12.432837Z,1697902632432
-0.09804175049066544,-0.4320754408836365,-0.021550560370087624,2023-10-21T15:37:12.443892Z,1697902632443
-0.0883306935429573,-0.3930981755256653,0.013169786892831326,2023-10-21T15:37:12.453358Z,1697902632453
-0.07755541056394577,-0.3527906537055969,0.046958938241004944,2023-10-21T15:37:12.464087Z,1697902632464
-0.06491773575544357,-0.31434550881385803,0.07755541056394577,2023-10-21T15:37:12.473435Z,1697902632473
-0.049752529710531235,-0.28015729784965515,0.10336287319660187,2023-10-21T15:37:12.487459Z,1697902632487
-0.03857816383242607,-0.24490483105182648,0.10655555129051208,2023-10-21T15:37:12.493637Z,1697902632493
-0.019954223185777664,-0.22095976769924164,0.12198681384325027,2023-10-21T15:37:12.504596Z,1697902632504
-0.004123872611671686,-0.20060645043849945,0.1350235790014267,2023-10-21T15:37:12.513894Z,1697902632513
0.011573448777198792,-0.1892990618944168,0.1355556845664978,2023-10-21T15:37:12.524980Z,1697902632524
0.024876264855265617,-0.17972102761268616,0.13595476746559143,2023-10-21T15:37:12.536532Z,1697902632536
0.031527671962976456,-0.18464307487010956,0.12305103987455368,2023-10-21T15:37:12.545040Z,1697902632545
0.03711485490202904,-0.18903300166130066,0.11200970411300659,2023-10-21T15:37:12.554451Z,1697902632554
0.03365612402558327,-0.1992761790752411,0.08753252774477005,2023-10-21T15:37:12.565204Z,1697902632565
0.028201967477798462,-0.22734510898590088,0.05720210447907448,2023-10-21T15:37:12.574740Z,1697902632574
0.01662851870059967,-0.23293229937553406,0.02727077156305313,2023-10-21T15:37:12.587223Z,1697902632587
0.0013302814913913608,-0.23798736929893494,-0.0023945067077875137,2023-10-21T15:37:12.594980Z,1697902632594
-0.016495490446686745,-0.24224425852298737,-0.029266193509101868,2023-10-21T15:37:12.606146Z,1697902632606
-0.03485337644815445,-0.24503785371780396,-0.05108281224966049,2023-10-21T15:37:12.615155Z,1697902632615
-0.05121583864092827,-0.24450574815273285,-0.06598196178674698,2023-10-21T15:37:12.626344Z,1697902632626
-0.05427548661828041,-0.22548271715641022,-0.06624802201986313,2023-10-21T15:37:12.636542Z,1697902632636
-0.06305534392595291,-0.21470743417739868,-0.06558287888765335,2023-10-21T15:37:12.646357Z,1697902632646
-0.07050491869449615,-0.20552849769592285,-0.06505076587200165,2023-10-21T15:37:12.655786Z,1697902632655
-0.06026175245642662,-0.17546413838863373,-0.05560576915740967,2023-10-21T15:37:12.670281Z,1697902632670
-0.056004852056503296,-0.16841363906860352,-0.04403231665492058,2023-10-21T15:37:12.676071Z,1697902632676
-0.05241309106349945,-0.1624273806810379,-0.03432126343250275,2023-10-21T15:37:12.687144Z,1697902632687
-0.04483048617839813,-0.13874836266040802,-0.029266193509101868,2023-10-21T15:37:12.696340Z,1697902632696
-0.028334995731711388,-0.14500068128108978,-0.026206545531749725,2023-10-21T15:37:12.707373Z,1697902632707
-0.014367040246725082,-0.1503218114376068,-0.02354598231613636,2023-10-21T15:37:12.719964Z,1697902632719
-0.008380773477256298,-0.15896864235401154,-0.03205978497862816,2023-10-21T15:37:12.727429Z,1697902632727
-0.003325703786686063,-0.18690454959869385,-0.04922041669487953,2023-10-21T15:37:12.736780Z,1697902632736
-0.004123872611671686,-0.20326702296733856,-0.06398653984069824,2023-10-21T15:37:12.747644Z,1697902632747
-0.007449576631188393,-0.22095976769924164,-0.08008294552564621,2023-10-21T15:37:12.757113Z,1697902632757
-0.012105561792850494,-0.23665708303451538,-0.09591329842805862,2023-10-21T15:37:12.770257Z,1697902632770
-0.017160631716251373,-0.2480975091457367,-0.11014731228351593,2023-10-21T15:37:12.777395Z,1697902632777
-0.0219496451318264,-0.2558131217956543,-0.12225287407636642,2023-10-21T15:37:12.788332Z,1697902632788
-0.026472602039575577,-0.2628636360168457,-0.1316978633403778,2023-10-21T15:37:12.797525Z,1697902632797
-0.030995558947324753,-0.2716434895992279,-0.13808321952819824,2023-10-21T15:37:12.808696Z,1697902632808
-0.0351194329559803,-0.28228574991226196,-0.14140892028808594,2023-10-21T15:37:12.819900Z,1697902632819
-0.03804605081677437,-0.29292798042297363,-0.14194104075431824,2023-10-21T15:37:12.828725Z,1697902632828
-0.038711193948984146,-0.30157482624053955,-0.1399456113576889,2023-10-21T15:37:12.838189Z,1697902632838
-0.03738091140985489,-0.3084922730922699,-0.13595476746559143,2023-10-21T15:37:12.848847Z,1697902632848
-0.0345873199403286,-0.3140794634819031,-0.13036759197711945,2023-10-21T15:37:12.858465Z,1697902632858
-0.031261615455150604,-0.3190014958381653,-0.12371618300676346,2023-10-21T15:37:12.870116Z,1697902632870
-0.028734080493450165,-0.32405656576156616,-0.11679871380329132,2023-10-21T15:37:12.878694Z,1697902632878
-0.027669856324791908,-0.329776793718338,-0.11028033494949341,2023-10-21T15:37:12.889661Z,1697902632889
-0.028468023985624313,-0.3348318636417389,-0.10402801632881165,2023-10-21T15:37:12.898790Z,1697902632898
-0.03112858720123768,-0.33629515767097473,-0.09790872037410736,2023-10-21T15:37:12.909990Z,1697902632909
-0.03525245934724808,-0.33350157737731934,-0.091656394302845,2023-10-21T15:37:12.919657Z,1697902632919
-0.04070661589503288,-0.32951071858406067,-0.08553709834814072,2023-10-21T15:37:12.930004Z,1697902632929
-0.04709196463227272,-0.32698318362236023,-0.07941780984401703,2023-10-21T15:37:12.939450Z,1697902632939
-0.053211260586977005,-0.3244556486606598,-0.07263337075710297,2023-10-21T15:37:12.953583Z,1697902632953
-0.05733513459563255,-0.31793728470802307,-0.06358745694160461,2023-10-21T15:37:12.959753Z,1697902632959
-0.05454154312610626,-0.2904004454612732,-0.054142456501722336,2023-10-21T15:37:12.970839Z,1697902632970
-0.05374337360262871,-0.27536827325820923,-0.03817908093333244,2023-10-21T15:37:12.979938Z,1697902632979
-0.053211260586977005,-0.2624645531177521,-0.024610208347439766,2023-10-21T15:37:12.991135Z,1697902632991
-0.04562865570187569,-0.24556997418403625,-0.004655985161662102,2023-10-21T15:37:13.002973Z,1697902633002
-0.039110276848077774,-0.23133595287799835,0.012371618300676346,2023-10-21T15:37:13.011121Z,1697902633011
-0.027669856324791908,-0.21523955464363098,0.02953225001692772,2023-10-21T15:37:13.020496Z,1697902633020
-0.017958801239728928,-0.2014046162366867,0.04429837316274643,2023-10-21T15:37:13.031269Z,1697902633031
-0.005986266769468784,-0.19116145372390747,0.05188097804784775,2023-10-21T15:37:13.040816Z,1697902633040
0.004256900865584612,-0.18238160014152527,0.058266330510377884,2023-10-21T15:37:13.053354Z,1697902633053
0.011706477031111717,-0.18331278860569,0.053477317094802856,2023-10-21T15:37:13.061014Z,1697902633060
0.021284503862261772,-0.20393215119838715,0.04709196463227272,2023-10-21T15:37:13.072057Z,1697902633072
0.022747814655303955,-0.21750102937221527,0.034055206924676895,2023-10-21T15:37:13.081232Z,1697902633081
0.02168358862400055,-0.2349277138710022,0.02008725143969059,2023-10-21T15:37:13.092398Z,1697902633092
0.01942211017012596,-0.25049200654029846,0.007715632673352957,2023-10-21T15:37:13.102833Z,1697902633102
0.0172936599701643,-0.2606021463871002,-0.0011972533538937569,2023-10-21T15:37:13.112405Z,1697902633112
0.015165209770202637,-0.24490483105182648,-0.004389929119497538,2023-10-21T15:37:13.121866Z,1697902633121
0.011706477031111717,-0.2470332831144333,-0.0047890134155750275,2023-10-21T15:37:13.132528Z,1697902633132
0.008779858238995075,-0.24889567494392395,-0.005188097711652517,2023-10-21T15:37:13.142173Z,1697902633142
0.0026605629827827215,-0.24556997418403625,0.0011972533538937569,2023-10-21T15:37:13.153490Z,1697902633153
-0.0026605629827827215,-0.24277637898921967,0.006651407573372126,2023-10-21T15:37:13.162344Z,1697902633162
-0.012105561792850494,-0.2382534146308899,0.013435843400657177,2023-10-21T15:37:13.173440Z,1697902633173
-0.026206545531749725,-0.251822292804718,0.0219496451318264,2023-10-21T15:37:13.186238Z,1697902633186
-0.03551851585507393,-0.2524874210357666,0.022481758147478104,2023-10-21T15:37:13.193496Z,1697902633193
-0.04522957280278206,-0.25820764899253845,0.019555138424038887,2023-10-21T15:37:13.203236Z,1697902633203
-0.05400943011045456,-0.2660562992095947,0.013834928162395954,2023-10-21T15:37:13.213773Z,1697902633213
-0.061725061386823654,-0.27417102456092834,0.0065183793194592,2023-10-21T15:37:13.223255Z,1697902633223
-0.06824344396591187,-0.2814875841140747,-0.0014633096288889647,2023-10-21T15:37:13.236955Z,1697902633236
-0.07396364957094193,-0.28787291049957275,-0.00864682998508215,2023-10-21T15:37:13.243390Z,1697902633243
-0.0795508325099945,-0.293194055557251,-0.013834928162395954,2023-10-21T15:37:13.254820Z,1697902633254
-0.08540407568216324,-0.2975839674472809,-0.01662851870059967,2023-10-21T15:37:13.263689Z,1697902633263
-0.09125731140375137,-0.30104270577430725,-0.016495490446686745,2023-10-21T15:37:13.274828Z,1697902633274
-0.09617935121059418,-0.30317115783691406,-0.013834928162395954,2023-10-21T15:37:13.286745Z,1697902633286
-0.09897294640541077,-0.303437203168869,-0.00864682998508215,2023-10-21T15:37:13.294830Z,1697902633294
-0.09870688617229462,-0.3013087511062622,-9.311970788985491E-4,2023-10-21T15:37:13.304209Z,1697902633304
-0.0949821025133133,-0.2969188392162323,0.00864682998508215,2023-10-21T15:37:13.314893Z,1697902633314
-0.08766555041074753,-0.2909325659275055,0.019555138424038887,2023-10-21T15:37:13.324531Z,1697902633324
-0.07742238789796829,-0.28401511907577515,0.030596474185585976,2023-10-21T15:37:13.337043Z,1697902633337
-0.0653168261051178,-0.27696460485458374,0.04057358577847481,2023-10-21T15:37:13.344690Z,1697902633344
-0.052546121180057526,-0.270446240901947,0.04868830367922783,2023-10-21T15:37:13.355753Z,1697902633355
-0.040307529270648956,-0.2655241787433624,0.05440851300954819,2023-10-21T15:37:13.364846Z,1697902633364
-0.030197391286492348,-0.2644599676132202,0.05720210447907448,2023-10-21T15:37:13.376083Z,1697902633376
-0.023013871163129807,-0.26858383417129517,0.056669991463422775,2023-10-21T15:37:13.386062Z,1697902633385
-0.01915605366230011,-0.2765655219554901,0.053876399993896484,2023-10-21T15:37:13.396065Z,1697902633396
-0.017825772985816002,-0.28521236777305603,0.050018586218357086,2023-10-21T15:37:13.405654Z,1697902633405
-0.01849091239273548,-0.2921298146247864,0.04616076871752739,2023-10-21T15:37:13.416328Z,1697902633416
-0.02008725143969059,-0.2958545982837677,0.04310112074017525,2023-10-21T15:37:13.425823Z,1697902633425
-0.022215701639652252,-0.29638671875,0.041903868317604065,2023-10-21T15:37:13.436752Z,1697902633436
-0.024344151839613914,-0.29452434182167053,0.04310112074017525,2023-10-21T15:37:13.445980Z,1697902633445
-0.026472602039575577,-0.2914646863937378,0.046958938241004944,2023-10-21T15:37:13.457168Z,1697902633457
-0.028334995731711388,-0.2880059480667114,0.05307823419570923,2023-10-21T15:37:13.469245Z,1697902633469
-0.02953225001692772,-0.2832169234752655,0.0614590048789978,2023-10-21T15:37:13.477221Z,1697902633477
-0.029665278270840645,-0.2761664390563965,0.07183520495891571,2023-10-21T15:37:13.486550Z,1697902633486
-0.028468023985624313,-0.2655241787433624,0.08367470651865005,2023-10-21T15:37:13.497433Z,1697902633497
-0.025807460770010948,-0.2512901723384857,0.09578026831150055,2023-10-21T15:37:13.506863Z,1697902633506
-0.0219496451318264,-0.23506075143814087,0.10655555129051208,2023-10-21T15:37:13.520184Z,1697902633520
-0.01822485774755478,-0.21005144715309143,0.10336287319660187,2023-10-21T15:37:13.527075Z,1697902633527
-0.01396795641630888,-0.19661560654640198,0.11028033494949341,2023-10-21T15:37:13.538131Z,1697902633538
-0.010376195423305035,-0.18517518043518066,0.11613357812166214,2023-10-21T15:37:13.547306Z,1697902633547
-0.005986266769468784,-0.17586322128772736,0.11626660823822021,2023-10-21T15:37:13.558439Z,1697902633558
-0.002128450432792306,-0.1680145561695099,0.11639963090419769,2023-10-21T15:37:13.569168Z,1697902633569
-1.3302815204951912E-4,-0.16256040334701538,0.1136060431599617,2023-10-21T15:37:13.578531Z,1697902633578
0.0015963378828018904,-0.1580374389886856,0.11134456098079681,2023-10-21T15:37:13.587916Z,1697902633587
2.6605630409903824E-4,-0.15231724083423615,0.11214273422956467,2023-10-21T15:37:13.598680Z,1697902633598
-7.981689414009452E-4,-0.14739519357681274,0.11294090002775192,2023-10-21T15:37:13.608266Z,1697902633608
-0.0038578163366764784,-0.13688597083091736,0.11839505285024643,2023-10-21T15:37:13.619716Z,1697902633619
-0.0065183793194592,-0.12770701944828033,0.1229180097579956,2023-10-21T15:37:13.628372Z,1697902633628
-0.008247745223343372,-0.1081518903374672,0.1306336522102356,2023-10-21T15:37:13.639598Z,1697902633639
-0.00971105508506298,-0.09152337163686752,0.1371520310640335,2023-10-21T15:37:13.648481Z,1697902633648
-0.01050922367721796,-0.06664710491895676,0.14353737235069275,2023-10-21T15:37:13.659755Z,1697902633659
-0.011041336692869663,-0.04549562931060791,0.14912456274032593,2023-10-21T15:37:13.669321Z,1697902633669
-0.011839505285024643,-0.022747814655303955,0.15125301480293274,2023-10-21T15:37:13.679751Z,1697902633679
-0.012504646554589272,-0.0031926757656037807,0.1531154066324234,2023-10-21T15:37:13.689222Z,1697902633689
-0.01223859004676342,0.012770703062415123,0.1503218114376068,2023-10-21T15:37:13.702977Z,1697902633702
-0.012105561792850494,0.026472602039575577,0.14806033670902252,2023-10-21T15:37:13.709427Z,1697902633709
-0.009977111592888832,0.03392218053340912,0.13954652845859528,2023-10-21T15:37:13.720437Z,1697902633720
-0.008114716969430447,0.04044055938720703,0.1322299838066101,2023-10-21T15:37:13.729612Z,1697902633729
-0.006917464081197977,0.03445428982377052,0.11294090002775192,2023-10-21T15:37:13.740793Z,1697902633740
-0.0029266192577779293,0.05281217768788338,0.1015004813671112,2023-10-21T15:37:13.752259Z,1697902633752
5.321126081980765E-4,0.06850949674844742,0.09178942441940308,2023-10-21T15:37:13.760845Z,1697902633760
-0.0014633096288889647,0.06997280567884445,0.06691315770149231,2023-10-21T15:37:13.770300Z,1697902633770
-0.003059647511690855,0.07130309194326401,0.04562865570187569,2023-10-21T15:37:13.780998Z,1697902633780
-0.00784866139292717,0.05839935690164566,0.012105561792850494,2023-10-21T15:37:13.790601Z,1697902633790
-0.013435843400657177,0.04110569879412651,-0.03445428982377052,2023-10-21T15:37:13.803019Z,1697902633802
-0.013568871654570103,0.02035330794751644,-0.06704618781805038,2023-10-21T15:37:13.810722Z,1697902633810
-0.011174364946782589,-2.6605630409903824E-4,-0.09724357724189758,2023-10-21T15:37:13.821846Z,1697902633821
-0.006917464081197977,-0.019688166677951813,-0.12371618300676346,2023-10-21T15:37:13.830941Z,1697902633830
-0.0017293660202994943,-0.03711485490202904,-0.1453997641801834,2023-10-21T15:37:13.842209Z,1697902633842
0.0037247883155941963,-0.05148189514875412,-0.16202828288078308,2023-10-21T15:37:13.852230Z,1697902633852
0.00944499857723713,-0.06212414801120758,-0.1734687089920044,2023-10-21T15:37:13.862141Z,1697902633862
0.01556429360061884,-0.06957372277975082,-0.1805192083120346,2023-10-21T15:37:13.871571Z,1697902633871
0.02168358862400055,-0.07622513175010681,-0.1849091351032257,2023-10-21T15:37:13.882293Z,1697902633882
0.027536828070878983,-0.0834086537361145,-0.1882348358631134,2023-10-21T15:37:13.891892Z,1697902633891
0.03299098089337349,-0.09099125862121582,-0.19102843105793,2023-10-21T15:37:13.902814Z,1697902633902
0.03764696791768074,-0.09923899918794632,-0.19395504891872406,2023-10-21T15:37:13.911991Z,1697902633911
0.04070661589503288,-0.10908308625221252,-0.19781285524368286,2023-10-21T15:37:13.923236Z,1697902633923
0.04150478169322014,-0.12092258781194687,-0.2031339854001999,2023-10-21T15:37:13.935749Z,1697902633935
0.04044055938720703,-0.13369329273700714,-0.21031750738620758,2023-10-21T15:37:13.943274Z,1697902633943
0.03738091140985489,-0.14646399021148682,-0.2184322327375412,2023-10-21T15:37:13.952631Z,1697902633952
0.03232584148645401,-0.1608310341835022,-0.22681300342082977,2023-10-21T15:37:13.963405Z,1697902633963
0.025940489023923874,-0.17772561311721802,-0.23506075143814087,2023-10-21T15:37:13.972948Z,1697902633972
0.01915605366230011,-0.19501927495002747,-0.24237729609012604,2023-10-21T15:37:13.986287Z,1697902633986
0.012903730385005474,-0.21031750738620758,-0.2475653886795044,2023-10-21T15:37:13.993221Z,1697902633993
0.00784866139292717,-0.2228221595287323,-0.24995990097522736,2023-10-21T15:37:14.004178Z,1697902634004
0.0038578163366764784,-0.23173503577709198,-0.24849659204483032,2023-10-21T15:37:14.013376Z,1697902634013
9.311970788985491E-4,-0.23559285700321198,-0.24251031875610352,2023-10-21T15:37:14.024565Z,1697902634024
-0.0014633096288889647,-0.23333138227462769,-0.23173503577709198,2023-10-21T15:37:14.035810Z,1697902634035
-0.0025275349617004395,-0.21377624571323395,-0.20872117578983307,2023-10-21T15:37:14.044628Z,1697902634044
-0.007316548377275467,-0.20353306829929352,-0.19089539349079132,2023-10-21T15:37:14.053957Z,1697902634053
-0.011307393200695515,-0.19475321471691132,-0.1755971610546112,2023-10-21T15:37:14.064702Z,1697902634064
-0.00971105508506298,-0.1662851870059967,-0.15005575120449066,2023-10-21T15:37:14.074264Z,1697902634074
-0.008247745223343372,-0.14207406342029572,-0.12810611724853516,2023-10-21T15:37:14.086277Z,1697902634086
-0.023146897554397583,-0.13688597083091736,-0.10283076018095016,2023-10-21T15:37:14.094535Z,1697902634094
-0.03578457236289978,-0.13236300647258759,-0.08128020167350769,2023-10-21T15:37:14.105511Z,1697902634105
-0.030596474185585976,-0.11307393014431,-0.06944069266319275,2023-10-21T15:37:14.114587Z,1697902634114
-0.040307529270648956,-0.09032611548900604,-0.038445137441158295,2023-10-21T15:37:14.125854Z,1697902634125
-0.04855527728796005,-0.07090400159358978,-0.011972533538937569,2023-10-21T15:37:14.135219Z,1697902634135
-0.052280064672231674,-0.04961949959397316,0.0031926757656037807,2023-10-21T15:37:14.145864Z,1697902634145
-0.05547273904085159,-0.031527671962976456,0.016096405684947968,2023-10-21T15:37:14.155280Z,1697902634155
-0.04735802114009857,-0.026871686801314354,0.013701899908483028,2023-10-21T15:37:14.169448Z,1697902634169
-0.06239020451903343,-0.009311970323324203,0.023412954062223434,2023-10-21T15:37:14.175575Z,1697902634175
-0.0751609057188034,0.00572021072730422,0.03166069835424423,2023-10-21T15:37:14.187131Z,1697902634187
-0.06411956995725632,0.004922041669487953,0.02700471505522728,2023-10-21T15:37:14.195774Z,1697902634195
-0.07595907151699066,0.025009293109178543,0.0307295024394989,2023-10-21T15:37:14.206904Z,1697902634206
-0.08606921136379242,0.04230295121669769,0.03392218053340912,2023-10-21T15:37:14.218855Z,1697902634218
-0.08048202842473984,0.05680302157998085,0.03392218053340912,2023-10-21T15:37:14.226901Z,1697902634226
-0.07569301873445511,0.0691746398806572,0.033789150416851044,2023-10-21T15:37:14.236294Z,1697902634236
-0.0647847130894661,0.07822055369615555,0.031527671962976456,2023-10-21T15:37:14.247141Z,1697902634247
-0.05547273904085159,0.08580315858125687,0.02953225001692772,2023-10-21T15:37:14.256608Z,1697902634256
-0.04735802114009857,0.07329851388931274,0.02514232136309147,2023-10-21T15:37:14.269293Z,1697902634269
-0.029000137001276016,0.09072519838809967,0.022348729893565178,2023-10-21T15:37:14.276785Z,1697902634276
-0.013302815146744251,0.10549132525920868,0.019954223185777664,2023-10-21T15:37:14.287867Z,1697902634287
0.0013302814913913608,0.11067942529916763,0.01888999715447426,2023-10-21T15:37:14.297050Z,1697902634296
0.01396795641630888,0.11506935209035873,0.017958801239728928,2023-10-21T15:37:14.308208Z,1697902634308
0.02327992580831051,0.12065653502941132,0.020220279693603516,2023-10-21T15:37:14.318915Z,1697902634318
0.031261615455150604,0.12544554471969604,0.022215701639652252,2023-10-21T15:37:14.328193Z,1697902634328
0.03139464557170868,0.13143181800842285,0.027802884578704834,2023-10-21T15:37:14.337654Z,1697902634337
0.031926754862070084,0.1509869545698166,0.039376333355903625,2023-10-21T15:37:14.348441Z,1697902634348
0.027137743309140205,0.16003286838531494,0.04961949959397316,2023-10-21T15:37:14.357941Z,1697902634357
0.021816616877913475,0.1712072342634201,0.06265626102685928,2023-10-21T15:37:14.369284Z,1697902634369
0.01755971647799015,0.18331278860569,0.0779544934630394,2023-10-21T15:37:14.378140Z,1697902634378
0.015431265346705914,0.1959504634141922,0.0949821025133133,2023-10-21T15:37:14.389181Z,1697902634389
0.016229433938860893,0.20898722112178802,0.11347301304340363,2023-10-21T15:37:14.402247Z,1697902634402
0.02008725143969059,0.22109279036521912,0.13196392357349396,2023-10-21T15:37:14.409271Z,1697902634409
0.025674432516098022,0.2288084179162979,0.14806033670902252,2023-10-21T15:37:14.418657Z,1697902634418
0.03166069835424423,0.2305377870798111,0.15936772525310516,2023-10-21T15:37:14.429453Z,1697902634429
0.03738091140985489,0.22801025211811066,0.16482187807559967,2023-10-21T15:37:14.438985Z,1697902634438
0.041903868317604065,0.22242307662963867,0.16349159181118011,2023-10-21T15:37:14.452522Z,1697902634452
0.04070661589503288,0.2030009627342224,0.14939060807228088,2023-10-21T15:37:14.459262Z,1697902634459
0.04070661589503288,0.18796877562999725,0.13515660166740417,2023-10-21T15:37:14.470238Z,1697902634470
0.04070661589503288,0.17519807815551758,0.12305103987455368,2023-10-21T15:37:14.479403Z,1697902634479
0.034720346331596375,0.14965666830539703,0.10509224236011505,2023-10-21T15:37:14.490591Z,1697902634490
0.02886710874736309,0.11839505285024643,0.07050491869449615,2023-10-21T15:37:14.501818Z,1697902634501
0.02168358862400055,0.0823444277048111,0.029133165255188942,2023-10-21T15:37:14.510536Z,1697902634510
0.012504646554589272,0.05121583864092827,7.981689414009452E-4,2023-10-21T15:37:14.520028Z,1697902634519
0.0013302814913913608,0.02447718009352684,-0.023146897554397583,2023-10-21T15:37:14.530919Z,1697902634530
-0.004389929119497538,0.011573448777198792,-0.031261615455150604,2023-10-21T15:37:14.540334Z,1697902634540
-0.021417532116174698,-0.0027935912366956472,-0.04296809434890747,2023-10-21T15:37:14.552198Z,1697902634552
-0.03605062887072563,-0.015032181516289711,-0.05281217768788338,2023-10-21T15:37:14.560540Z,1697902634560
-0.05108281224966049,-0.015431265346705914,-0.04762407764792442,2023-10-21T15:37:14.571549Z,1697902634571
-0.06411956995725632,-0.01569732278585434,-0.04310112074017525,2023-10-21T15:37:14.580685Z,1697902634580
-0.06850949674844742,3.990844707004726E-4,-0.024610208347439766,2023-10-21T15:37:14.591901Z,1697902634591
-0.07236731797456741,0.014234011992812157,-0.008912886492908001,2023-10-21T15:37:14.601950Z,1697902634601
-0.06358745694160461,0.03392218053340912,0.011706477031111717,2023-10-21T15:37:14.611858Z,1697902634611
-0.051614921540021896,0.06159203499555588,0.03884422034025192,2023-10-21T15:37:14.621366Z,1697902634621
-0.0395093597471714,0.06345442682504654,0.04270203784108162,2023-10-21T15:37:14.632038Z,1697902634632
-0.019688166677951813,0.07183520495891571,0.051348865032196045,2023-10-21T15:37:14.641628Z,1697902634641
-0.0027935912366956472,0.07915174961090088,0.05866541340947151,2023-10-21T15:37:14.652566Z,1697902634652
-0.0023945067077875137,0.06757830083370209,0.05015161260962486,2023-10-21T15:37:14.661794Z,1697902634661
-0.002128450432792306,0.05773421749472618,0.042835064232349396,2023-10-21T15:37:14.672933Z,1697902634672
0.020220279693603516,0.05560576915740967,0.033390067517757416,2023-10-21T15:37:14.685128Z,1697902634685
0.03924330323934555,0.053876399993896484,0.02540837787091732,2023-10-21T15:37:14.692955Z,1697902634692
0.03392218053340912,0.041637811809778214,0.00572021072730422,2023-10-21T15:37:14.702435Z,1697902634702
0.029399221763014793,0.031261615455150604,-0.011307393200695515,2023-10-21T15:37:14.713135Z,1697902634713
0.01755971647799015,0.02168358862400055,-0.027802884578704834,2023-10-21T15:37:14.722653Z,1697902634722
0.007449576631188393,0.013568871654570103,-0.04177083820104599,2023-10-21T15:37:14.735432Z,1697902634735
0.0063853515312075615,0.011573448777198792,-0.03578457236289978,2023-10-21T15:37:14.742905Z,1697902634742
0.005454154219478369,0.009844083338975906,-0.03046344593167305,2023-10-21T15:37:14.753876Z,1697902634753
-0.010908308438956738,0.01662851870059967,-0.04576168581843376,2023-10-21T15:37:14.763103Z,1697902634763
-0.024876264855265617,0.022348729893565178,-0.05893146991729736,2023-10-21T15:37:14.774272Z,1697902634774
-0.021284503862261772,0.01915605366230011,-0.05028464272618294,2023-10-21T15:37:14.785047Z,1697902634784
-0.007582604885101318,0.03644971549510956,-0.04496351629495621,2023-10-21T15:37:14.794266Z,1697902634794
0.004123872611671686,0.051348865032196045,-0.040307529270648956,2023-10-21T15:37:14.803692Z,1697902634803
0.02327992580831051,0.05959661304950714,-0.03817908093333244,2023-10-21T15:37:14.814478Z,1697902634814
0.03964238986372948,0.06664710491895676,-0.03618365898728371,2023-10-21T15:37:14.824002Z,1697902634823
0.056536965072155,0.06957372277975082,-0.0389772467315197,2023-10-21T15:37:14.835432Z,1697902634835
0.07103703171014786,0.07210125774145126,-0.041238728910684586,2023-10-21T15:37:14.844176Z,1697902634844
0.08128020167350769,0.06890857964754105,-0.046958938241004944,2023-10-21T15:37:14.855319Z,1697902634855
0.09006005525588989,0.06624802201986313,-0.05174795165657997,2023-10-21T15:37:14.864340Z,1697902634864
0.07689027488231659,0.056669991463422775,-0.04416534677147865,2023-10-21T15:37:14.875713Z,1697902634875
0.08527104556560516,0.05307823419570923,-0.057601191103458405,2023-10-21T15:37:14.885280Z,1697902634885
0.09232153743505478,0.05015161260962486,-0.06904160976409912,2023-10-21T15:37:14.895582Z,1697902634895
0.07888569682836533,0.042835064232349396,-0.05893146991729736,2023-10-21T15:37:14.905093Z,1697902634905
0.07130309194326401,0.044431403279304504,-0.06877555698156357,2023-10-21T15:37:14.918577Z,1697902634918
0.0647847130894661,0.04589471220970154,-0.07702329754829407,2023-10-21T15:37:14.925280Z,1697902634925
0.055339712649583817,0.039110276848077774,-0.0658489316701889,2023-10-21T15:37:14.936274Z,1697902634936
0.0433671772480011,0.04655985161662102,-0.07063794881105423,2023-10-21T15:37:14.945485Z,1697902634945
0.033124011009931564,0.05281217768788338,-0.0746287927031517,2023-10-21T15:37:14.956625Z,1697902634956
0.028334995731711388,0.045096542686223984,-0.06372048705816269,2023-10-21T15:37:14.968471Z,1697902634968
0.026871686801314354,0.04895436018705368,-0.06491773575544357,2023-10-21T15:37:14.976660Z,1697902634976
0.025674432516098022,0.052280064672231674,-0.06598196178674698,2023-10-21T15:37:14.986104Z,1697902634986
0.0219496451318264,0.044697459787130356,-0.05627090856432915,2023-10-21T15:37:14.996818Z,1697902634996
0.018756968900561333,0.03817908093333244,-0.048156190663576126,2023-10-21T15:37:15.006419Z,1697902635006
0.0345873199403286,0.03525245934724808,-0.05281217768788338,2023-10-21T15:37:15.018826Z,1697902635018
0.04802316427230835,0.03285795450210571,-0.05680302157998085,2023-10-21T15:37:15.026545Z,1697902635026
0.040972672402858734,0.028068939223885536,-0.04842224717140198,2023-10-21T15:37:15.037613Z,1697902635037
0.048821330070495605,0.009311970323324203,-0.05454154312610626,2023-10-21T15:37:15.046817Z,1697902635046
0.05547273904085159,-0.006651407573372126,-0.05972963944077492,2023-10-21T15:37:15.058016Z,1697902635057
0.05241309106349945,-0.025940489023923874,-0.061325978487730026,2023-10-21T15:37:15.068705Z,1697902635068
0.049752529710531235,-0.04230295121669769,-0.06265626102685928,2023-10-21T15:37:15.077936Z,1697902635077
0.04562865570187569,-0.05334429070353508,-0.06159203499555588,2023-10-21T15:37:15.087547Z,1697902635087
0.04203689470887184,-0.06278929114341736,-0.06052780896425247,2023-10-21T15:37:15.101743Z,1697902635101
0.035917602479457855,-0.05361034348607063,-0.05174795165657997,2023-10-21T15:37:15.107678Z,1697902635107
0.0307295024394989,-0.04576168581843376,-0.04416534677147865,2023-10-21T15:37:15.118670Z,1697902635118
0.026206545531749725,-0.039110276848077774,-0.03777999430894852,2023-10-21T15:37:15.127858Z,1697902635127
0.014234011992812157,-0.05547273904085159,-0.028468023985624313,2023-10-21T15:37:15.139044Z,1697902635139
0.004123872611671686,-0.06957372277975082,-0.020486336201429367,2023-10-21T15:37:15.151231Z,1697902635151
0.0034587320405989885,-0.059463582932949066,-0.01755971647799015,2023-10-21T15:37:15.159077Z,1697902635159
-0.004522957373410463,-0.05813330411911011,0.004522957373410463,2023-10-21T15:37:15.168439Z,1697902635168
-0.011307393200695515,-0.05693604797124863,0.023412954062223434,2023-10-21T15:37:15.179304Z,1697902635179
-0.00944499857723713,-0.042835064232349396,0.03924330323934555,2023-10-21T15:37:15.188767Z,1697902635188
-0.007715632673352957,-0.030862530693411827,0.05281217768788338,2023-10-21T15:37:15.202008Z,1697902635201
-0.0047890134155750275,-0.015963377431035042,0.06731224805116653,2023-10-21T15:37:15.208947Z,1697902635208
-0.002128450432792306,-0.0031926757656037807,0.0795508325099945,2023-10-21T15:37:15.220007Z,1697902635219
-5.321126081980765E-4,0.010775280185043812,0.09099125862121582,2023-10-21T15:37:15.229290Z,1697902635229
7.981689414009452E-4,0.022747814655303955,0.10070230811834335,2023-10-21T15:37:15.241435Z,1697902635241
0.0017293660202994943,0.0345873199403286,0.10589040815830231,2023-10-21T15:37:15.251449Z,1697902635251
0.0025275349617004395,0.04483048617839813,0.11041336506605148,2023-10-21T15:37:15.260327Z,1697902635260
0.002128450432792306,0.03831210732460022,0.09431695938110352,2023-10-21T15:37:15.269785Z,1697902635269
0.003325703786686063,0.0389772467315197,0.09724357724189758,2023-10-21T15:37:15.280659Z,1697902635280
0.004256900865584612,0.03964238986372948,0.09977111220359802,2023-10-21T15:37:15.290107Z,1697902635290
0.0037247883155941963,0.03392218053340912,0.08527104556560516,2023-10-21T15:37:15.301924Z,1697902635301
0.0031926757656037807,0.02886710874736309,0.07276640087366104,2023-10-21T15:37:15.310320Z,1697902635310
0.01050922367721796,0.005055069923400879,0.0570690780878067,2023-10-21T15:37:15.321473Z,1697902635321
0.016761546954512596,-0.015298237092792988,0.043500207364559174,2023-10-21T15:37:15.330417Z,1697902635330
0.01849091239273548,-0.026871686801314354,0.02886710874736309,2023-10-21T15:37:15.341701Z,1697902635341
0.02008725143969059,-0.03671576827764511,0.016495490446686745,2023-10-21T15:37:15.351311Z,1697902635351
0.018623940646648407,-0.04669288173317909,0.0047890134155750275,2023-10-21T15:37:15.361660Z,1697902635361
0.017426688224077225,-0.055339712649583817,-0.005321125965565443,2023-10-21T15:37:15.371127Z,1697902635371
0.011706477031111717,-0.06744527071714401,-0.01396795641630888,2023-10-21T15:37:15.385488Z,1697902635385
0.006917464081197977,-0.07782147079706192,-0.021417532116174698,2023-10-21T15:37:15.391359Z,1697902635391
-0.0018623941577970982,-0.09152337163686752,-0.02633957378566265,2023-10-21T15:37:15.402620Z,1697902635402
-0.00944499857723713,-0.10322984308004379,-0.030596474185585976,2023-10-21T15:37:15.411573Z,1697902635411
-0.019289081916213036,-0.11546843498945236,-0.030330419540405273,2023-10-21T15:37:15.422859Z,1697902635422
-0.027802884578704834,-0.12597766518592834,-0.030197391286492348,2023-10-21T15:37:15.434859Z,1697902635434
-0.033390067517757416,-0.1257116049528122,-0.022082673385739326,2023-10-21T15:37:15.442932Z,1697902635442
-0.03817908093333244,-0.12544554471969604,-0.015165209770202637,2023-10-21T15:37:15.452155Z,1697902635452
-0.038711193948984146,-0.11733082681894302,-0.0013302814913913608,2023-10-21T15:37:15.463213Z,1697902635463
-0.03924330323934555,-0.11054639518260956,0.01050922367721796,2023-10-21T15:37:15.472461Z,1697902635472
-0.035917602479457855,-0.10575737804174423,0.025940489023923874,2023-10-21T15:37:15.485085Z,1697902635485
-0.033124011009931564,-0.10163351148366928,0.039110276848077774,2023-10-21T15:37:15.492678Z,1697902635492
-0.025275349617004395,-0.09405090659856796,0.053876399993896484,2023-10-21T15:37:15.503730Z,1697902635503
-0.018623940646648407,-0.08753252774477005,0.0663810446858406,2023-10-21T15:37:15.512840Z,1697902635512
-0.006651407573372126,-0.07675724476575851,0.07728935778141022,2023-10-21T15:37:15.524043Z,1697902635524
0.0034587320405989885,-0.06744527071714401,0.08646830171346664,2023-10-21T15:37:15.534550Z,1697902635534
0.0029266192577779293,-0.057601191103458405,0.07383062690496445,2023-10-21T15:37:15.544027Z,1697902635544
0.023412954062223434,-0.05241309106349945,0.0883306935429573,2023-10-21T15:37:15.553464Z,1697902635553
0.04083964228630066,-0.047890134155750275,0.10056928545236588,2023-10-21T15:37:15.567999Z,1697902635567
0.03485337644815445,-0.04083964228630066,0.08593618869781494,2023-10-21T15:37:15.573726Z,1697902635573
0.04988555610179901,-0.05108281224966049,0.08753252774477005,2023-10-21T15:37:15.584753Z,1697902635584
0.06252323091030121,-0.05986266955733299,0.08899583667516708,2023-10-21T15:37:15.594014Z,1697902635593
0.06438562273979187,-0.06957372277975082,0.08048202842473984,2023-10-21T15:37:15.605040Z,1697902635605
0.0658489316701889,-0.0779544934630394,0.07316548377275467,2023-10-21T15:37:15.614237Z,1697902635614
0.05627090856432915,-0.06651407480239868,0.06252323091030121,2023-10-21T15:37:15.625347Z,1697902635625
0.06305534392595291,-0.08008294552564621,0.0609268918633461,2023-10-21T15:37:15.634471Z,1697902635634
0.06890857964754105,-0.091656394302845,0.05959661304950714,2023-10-21T15:37:15.645269Z,1697902635645
0.05893146991729736,-0.07835358381271362,0.05094978213310242,2023-10-21T15:37:15.654818Z,1697902635654
0.05933055654168129,-0.07489485293626785,0.05813330411911011,2023-10-21T15:37:15.668182Z,1697902635668
0.05986266955733299,-0.07210125774145126,0.06425260007381439,2023-10-21T15:37:15.675053Z,1697902635674
0.05108281224966049,-0.0614590048789978,0.05494062602519989,2023-10-21T15:37:15.686014Z,1697902635685
0.04363323375582695,-0.052546121180057526,0.046958938241004944,2023-10-21T15:37:15.695317Z,1697902635695
0.026871686801314354,-0.05627090856432915,0.052945204079151154,2023-10-21T15:37:15.706463Z,1697902635706
0.012504646554589272,-0.059463582932949066,0.05800027400255203,2023-10-21T15:37:15.717581Z,1697902635717
0.010642251931130886,-0.05081675574183464,0.04961949959397316,2023-10-21T15:37:15.726420Z,1697902635726
-0.009844083338975906,-0.06704618781805038,0.03299098089337349,2023-10-21T15:37:15.735845Z,1697902635735
-0.027403799816966057,-0.08088111877441406,0.018756968900561333,2023-10-21T15:37:15.746595Z,1697902635746
-0.035917602479457855,-0.08992703258991241,1.3302815204951912E-4,2023-10-21T15:37:15.756195Z,1697902635756
-0.0482892207801342,-0.11094547808170319,-0.025807460770010948,2023-10-21T15:37:15.768097Z,1697902635768
-0.051348865032196045,-0.12305103987455368,-0.04243598133325577,2023-10-21T15:37:15.776257Z,1697902635776
-0.052945204079151154,-0.1366199105978012,-0.056669991463422775,2023-10-21T15:37:15.787396Z,1697902635787
-0.05241309106349945,-0.148193359375,-0.06691315770149231,2023-10-21T15:37:15.796466Z,1697902635796
-0.0477571077644825,-0.14180800318717957,-0.06558287888765335,2023-10-21T15:37:15.807676Z,1697902635807
-0.04496351629495621,-0.14406949281692505,-0.06372048705816269,2023-10-21T15:37:15.817576Z,1697902635817
-0.042569007724523544,-0.1459318846464157,-0.06225717440247536,2023-10-21T15:37:15.827721Z,1697902635827
-0.03631668537855148,-0.12464737892150879,-0.053211260586977005,2023-10-21T15:37:15.837292Z,1697902635837
-0.03179372847080231,-0.11214273422956467,-0.028734080493450165,2023-10-21T15:37:15.851538Z,1697902635851
-0.028068939223885536,-0.1015004813671112,-0.00784866139292717,2023-10-21T15:37:15.857444Z,1697902635857
-0.021417532116174698,-0.07675724476575851,0.015298237092792988,2023-10-21T15:37:15.868371Z,1697902635868
-0.015830349177122116,-0.05560576915740967,0.0351194329559803,2023-10-21T15:37:15.877605Z,1697902635877
-0.010642251931130886,-0.03990844637155533,0.04961949959397316,2023-10-21T15:37:15.888768Z,1697902635888
-0.00611929502338171,-0.026605630293488503,0.061991117894649506,2023-10-21T15:37:15.900906Z,1697902635900
-0.005321125965565443,-0.022747814655303955,0.052945204079151154,2023-10-21T15:37:15.908778Z,1697902635908
-0.004522957373410463,-0.01942211017012596,0.04522957280278206,2023-10-21T15:37:15.918200Z,1697902635918
-0.0038578163366764784,-0.016495490446686745,0.03857816383242607,2023-10-21T15:37:15.928983Z,1697902635928
-0.003325703786686063,-0.014100983738899231,0.03299098089337349,2023-10-21T15:37:15.938557Z,1697902635938
-0.0027935912366956472,-0.012105561792850494,0.028201967477798462,2023-10-21T15:37:15.951320Z,1697902635951
-0.004522957373410463,-0.03618365898728371,0.0172936599701643,2023-10-21T15:37:15.958685Z,1697902635958
-0.00611929502338171,-0.05680302157998085,0.008114716969430447,2023-10-21T15:37:15.969746Z,1697902635969
-0.009311970323324203,-0.06345442682504654,-0.004256900865584612,2023-10-21T15:37:15.978868Z,1697902635978
-0.011972533538937569,-0.0691746398806572,-0.01476612500846386,2023-10-21T15:37:15.990089Z,1697902635990
-0.010243168100714684,-0.05906450003385544,-0.012637674808502197,2023-10-21T15:37:16.000901Z,1697902636000
-0.008779858238995075,-0.050417669117450714,-0.010775280185043812,2023-10-21T15:37:16.010088Z,1697902636010
-0.007449576631188393,-0.04310112074017525,-0.009178942069411278,2023-10-21T15:37:16.019542Z,1697902636019
-0.0063853515312075615,-0.036848798394203186,-0.00784866139292717,2023-10-21T15:37:16.030338Z,1697902636030
-0.005454154219478369,-0.03139464557170868,-0.006651407573372126,2023-10-21T15:37:16.039847Z,1697902636039
0.00611929502338171,-0.03166069835424423,0.012770703062415123,2023-10-21T15:37:16.051292Z,1697902636051
0.015963377431035042,-0.031926754862070084,0.029399221763014793,2023-10-21T15:37:16.059966Z,1697902636059
0.033390067517757416,-0.01888999715447426,0.04150478169322014,2023-10-21T15:37:16.071158Z,1697902636071
0.0482892207801342,-0.007715632673352957,0.05174795165657997,2023-10-21T15:37:16.080151Z,1697902636080
0.061991117894649506,-0.0011972533538937569,0.0570690780878067,2023-10-21T15:37:16.091465Z,1697902636091
0.0735645666718483,0.004256900865584612,0.06159203499555588,2023-10-21T15:37:16.100775Z,1697902636100
0.06278929114341736,0.0035917600616812706,0.0526791475713253,2023-10-21T15:37:16.111367Z,1697902636111
0.0779544934630394,0.004256900865584612,0.0521470345556736,2023-10-21T15:37:16.120877Z,1697902636120
0.09085822850465775,0.004922041669487953,0.05174795165657997,2023-10-21T15:37:16.134692Z,1697902636134
0.07755541056394577,0.004123872611671686,0.04416534677147865,2023-10-21T15:37:16.141061Z,1697902636141
0.06624802201986313,0.0035917600616812706,0.03764696791768074,2023-10-21T15:37:16.152100Z,1697902636152
0.056536965072155,0.003059647511690855,0.032192811369895935,2023-10-21T15:37:16.161289Z,1697902636161
0.05720210447907448,-0.00944499857723713,0.010642251931130886,2023-10-21T15:37:16.172427Z,1697902636172
0.057867247611284256,-0.019954223185777664,-0.00784866139292717,2023-10-21T15:37:16.183713Z,1697902636183
0.03964238986372948,-0.02979830652475357,-0.019688166677951813,2023-10-21T15:37:16.192472Z,1697902636192
0.024078095331788063,-0.03831210732460022,-0.029931334778666496,2023-10-21T15:37:16.201883Z,1697902636201
0.007715632673352957,-0.044431403279304504,-0.036848798394203186,2023-10-21T15:37:16.212657Z,1697902636212
-0.006252323277294636,-0.049752529710531235,-0.042835064232349396,2023-10-21T15:37:16.222203Z,1697902636222
-0.005321125965565443,-0.04243598133325577,-0.036582741886377335,2023-10-21T15:37:16.234500Z,1697902636234
-0.02035330794751644,-0.04496351629495621,-0.042835064232349396,2023-10-21T15:37:16.242418Z,1697902636242
-0.033124011009931564,-0.04709196463227272,-0.0482892207801342,2023-10-21T15:37:16.253557Z,1697902636253
-0.028334995731711388,-0.040307529270648956,-0.041238728910684586,2023-10-21T15:37:16.262608Z,1697902636262
-0.03232584148645401,-0.04230295121669769,-0.04735802114009857,2023-10-21T15:37:16.273807Z,1697902636273
-0.035651545971632004,-0.04416534677147865,-0.052546121180057526,2023-10-21T15:37:16.283954Z,1697902636283
-0.03046344593167305,-0.03764696791768074,-0.04483048617839813,2023-10-21T15:37:16.293791Z,1697902636293
-0.021151475608348846,-0.04150478169322014,-0.05334429070353508,2023-10-21T15:37:16.303211Z,1697902636303
-0.013169786892831326,-0.044697459787130356,-0.06052780896425247,2023-10-21T15:37:16.317543Z,1697902636317
-0.011307393200695515,-0.03817908093333244,-0.05174795165657997,2023-10-21T15:37:16.323510Z,1697902636323
0.021151475608348846,-0.05241309106349945,-0.061991117894649506,2023-10-21T15:37:16.334558Z,1697902636334
0.06824344396591187,-0.07422970980405807,-0.07861963659524918,2023-10-21T15:37:16.343691Z,1697902636343
0.10123442113399506,-0.08540407568216324,-0.08420681953430176,2023-10-21T15:37:16.354981Z,1697902636354
0.1366199105978012,-0.10070230811834335,-0.091656394302845,2023-10-21T15:37:16.367182Z,1697902636367
0.17306962609291077,-0.12052350491285324,-0.10083533823490143,2023-10-21T15:37:16.374875Z,1697902636374
0.20938630402088165,-0.14433553814888,-0.11147759109735489,2023-10-21T15:37:16.384241Z,1697902636384
0.2442396879196167,-0.17000998556613922,-0.12251892685890198,2023-10-21T15:37:16.395320Z,1697902636395
0.2761664390563965,-0.19608350098133087,-0.13236300647258759,2023-10-21T15:37:16.404644Z,1697902636404
0.30370327830314636,-0.22162489593029022,-0.1399456113576889,2023-10-21T15:37:16.417905Z,1697902636417
0.325918972492218,-0.24676722288131714,-0.14446857571601868,2023-10-21T15:37:16.424743Z,1697902636424
0.3429465889930725,-0.2716434895992279,-0.1459318846464157,2023-10-21T15:37:16.435772Z,1697902636435
0.35531818866729736,-0.29452434182167053,-0.14473463594913483,2023-10-21T15:37:16.444955Z,1697902636444
0.3639650344848633,-0.3144785463809967,-0.14180800318717957,2023-10-21T15:37:16.456103Z,1697902636456
0.3692861497402191,-0.3320382535457611,-0.1378171592950821,2023-10-21T15:37:16.467190Z,1697902636467
0.37114855647087097,-0.3491989076137543,-0.13422539830207825,2023-10-21T15:37:16.476194Z,1697902636476
0.3695521950721741,-0.36742374300956726,-0.13143181800842285,2023-10-21T15:37:16.485586Z,1697902636485
0.3644971251487732,-0.38618072867393494,-0.12970244884490967,2023-10-21T15:37:16.496373Z,1697902636496
0.3566484749317169,-0.403873473405838,-0.12863822281360626,2023-10-21T15:37:16.505884Z,1697902636505
0.3464052975177765,-0.42023593187332153,-0.1273079365491867,2023-10-21T15:37:16.517685Z,1697902636517
0.33403369784355164,-0.4367314279079437,-0.12491343170404434,2023-10-21T15:37:16.526048Z,1697902636525
0.3197996914386749,-0.4545572102069855,-0.12039047479629517,2023-10-21T15:37:16.537141Z,1697902636537
0.3042353689670563,-0.47224992513656616,-0.11307393014431,2023-10-21T15:37:16.546256Z,1697902636546
0.28893715143203735,-0.48555275797843933,-0.10229864716529846,2023-10-21T15:37:16.557563Z,1697902636557
0.2751022279262543,-0.49207112193107605,-0.08753252774477005,2023-10-21T15:37:16.567301Z,1697902636567
0.2635287642478943,-0.49193811416625977,-0.06797738373279572,2023-10-21T15:37:16.577496Z,1697902636577
0.2546158730983734,-0.4852867126464844,-0.04403231665492058,2023-10-21T15:37:16.586920Z,1697902636586
0.24876263737678528,-0.4714517593383789,-0.01636246219277382,2023-10-21T15:37:16.600695Z,1697902636600
0.24610207974910736,-0.4505663514137268,0.01396795641630888,2023-10-21T15:37:16.607168Z,1697902636607
0.2463681399822235,-0.42462587356567383,0.04602774232625961,2023-10-21T15:37:16.618160Z,1697902636618
0.24796447157859802,-0.39602482318878174,0.07822055369615555,2023-10-21T15:37:16.627384Z,1697902636627
0.24995990097522736,-0.3662264943122864,0.1092161163687706,2023-10-21T15:37:16.638533Z,1697902636638
0.25062504410743713,-0.3364281952381134,0.13701899349689484,2023-10-21T15:37:16.650432Z,1697902636650
0.24902869760990143,-0.3083592653274536,0.16043195128440857,2023-10-21T15:37:16.658560Z,1697902636658
0.24437271058559418,-0.2832169234752655,0.1789228618144989,2023-10-21T15:37:16.667943Z,1697902636667
0.2365240603685379,-0.2617993950843811,0.1920926570892334,2023-10-21T15:37:16.678758Z,1697902636678
0.22614786028862,-0.24357454478740692,0.2003403902053833,2023-10-21T15:37:16.688307Z,1697902636688
0.2135101854801178,-0.2282763123512268,0.20499637722969055,2023-10-21T15:37:16.700818Z,1697902636700
0.1998082846403122,-0.21484047174453735,0.20712482929229736,2023-10-21T15:37:16.708499Z,1697902636708
0.18637244403362274,-0.20153765380382538,0.20778997242450714,2023-10-21T15:37:16.719456Z,1697902636719
0.166817307472229,-0.1805192083120346,0.19275778532028198,2023-10-21T15:37:16.728625Z,1697902636728
0.15830349922180176,-0.159101665019989,0.1959504634141922,2023-10-21T15:37:16.739842Z,1697902636739
0.16202828288078308,-0.13462449610233307,0.21484047174453735,2023-10-21T15:37:16.750232Z,1697902636750
0.16202828288078308,-0.09724357724189758,0.2163037806749344,2023-10-21T15:37:16.759850Z,1697902636759
0.16615216434001923,-0.05627090856432915,0.21816617250442505,2023-10-21T15:37:16.769272Z,1697902636769
0.17373476922512054,-0.015830349177122116,0.21962948143482208,2023-10-21T15:37:16.783846Z,1697902636783
0.18371187150478363,0.021284503862261772,0.2201615869998932,2023-10-21T15:37:16.789577Z,1697902636789
0.1948862373828888,0.05307823419570923,0.21883131563663483,2023-10-21T15:37:16.800673Z,1697902636800
0.20619364082813263,0.07808752357959747,0.21417532861232758,2023-10-21T15:37:16.809743Z,1697902636809
0.21656982600688934,0.09644541144371033,0.20433124899864197,2023-10-21T15:37:16.820931Z,1697902636820
0.2256157398223877,0.10934913903474808,0.18836785852909088,2023-10-21T15:37:16.829989Z,1697902636829
0.21284504234790802,0.10615646839141846,0.16562004387378693,2023-10-21T15:37:16.841108Z,1697902636841
0.21763405203819275,0.11134456098079681,0.13755111396312714,2023-10-21T15:37:16.850328Z,1697902636850
0.2217579334974289,0.11586751788854599,0.1136060431599617,2023-10-21T15:37:16.861143Z,1697902636861
0.21444137394428253,0.10682160407304764,0.07582604885101318,2023-10-21T15:37:16.870651Z,1697902636870
0.20832209289073944,0.09923899918794632,0.04363323375582695,2023-10-21T15:37:16.884118Z,1697902636884
0.1894320845603943,0.0779544934630394,0.0034587320405989885,2023-10-21T15:37:16.890829Z,1697902636890
0.17533110082149506,0.05440851300954819,-0.05121583864092827,2023-10-21T15:37:16.901850Z,1697902636901
0.15138603746891022,0.03631668537855148,-0.08646830171346664,2023-10-21T15:37:16.911039Z,1697902636911
0.12557858228683472,0.021151475608348846,-0.11999139189720154,2023-10-21T15:37:16.922212Z,1697902636922
0.09684449434280396,0.005188097711652517,-0.15138603746891022,2023-10-21T15:37:16.933527Z,1697902636933
0.0647847130894661,-0.013834928162395954,-0.17985406517982483,2023-10-21T15:37:16.942219Z,1697902636942
0.029931334778666496,-0.03272492438554764,-0.2041982114315033,2023-10-21T15:37:16.951633Z,1697902636951
-0.005853238515555859,-0.04642682522535324,-0.2228221595287323,2023-10-21T15:37:16.962341Z,1697902636962
-0.040972672402858734,-0.052546121180057526,-0.23306532204151154,2023-10-21T15:37:16.971966Z,1697902636971
-0.053876399993896484,-0.04948647320270538,-0.21856525540351868,2023-10-21T15:37:16.983815Z,1697902636983
-0.08500499278306961,-0.03551851585507393,-0.20818905532360077,2023-10-21T15:37:16.992090Z,1697902636992
-0.11161062121391296,-0.02354598231613636,-0.19940920174121857,2023-10-21T15:37:17.003143Z,1697902637003
-0.12438131868839264,0.019555138424038887,-0.16389068961143494,2023-10-21T15:37:17.012284Z,1697902637012
-0.14260618388652802,0.08952794969081879,-0.12078956514596939,2023-10-21T15:37:17.023455Z,1697902637023
-0.13156484067440033,0.1509869545698166,-0.07343153655529022,2023-10-21T15:37:17.033665Z,1697902637033
-0.11240878701210022,0.21710194647312164,-0.025807460770010948,2023-10-21T15:37:17.043475Z,1697902637043
-0.0877985805273056,0.28175362944602966,0.01755971647799015,2023-10-21T15:37:17.052923Z,1697902637052
-0.061059921979904175,0.3396208584308624,0.05374337360262871,2023-10-21T15:37:17.067463Z,1697902637067
-0.034986402839422226,0.3887082636356354,0.08061505854129791,2023-10-21T15:37:17.073245Z,1697902637073
-0.011706477031111717,0.42954790592193604,0.09737660735845566,2023-10-21T15:37:17.084168Z,1697902637084
0.0063853515312075615,0.4626719057559967,0.10336287319660187,2023-10-21T15:37:17.093431Z,1697902637093
0.016761546954512596,0.4872821271419525,0.09923899918794632,2023-10-21T15:37:17.104563Z,1697902637104
0.017825772985816002,0.504575788974762,0.0867343544960022,2023-10-21T15:37:17.116736Z,1697902637116
0.008912886492908001,0.5168143510818481,0.06811041384935379,2023-10-21T15:37:17.124622Z,1697902637124
-0.009311970323324203,0.5267914533615112,0.04642682522535324,2023-10-21T15:37:17.133991Z,1697902637133
-0.03525245934724808,0.5366355776786804,0.024344151839613914,2023-10-21T15:37:17.144799Z,1697902637144
-0.06691315770149231,0.5490071773529053,0.0038578163366764784,2023-10-21T15:37:17.154326Z,1697902637154
-0.10189956426620483,0.566433846950531,-0.0130367586389184,2023-10-21T15:37:17.167031Z,1697902637167
-0.1371520310640335,0.5901128649711609,-0.025009293109178543,2023-10-21T15:37:17.174523Z,1697902637174
-0.1696108877658844,0.6204432845115662,-0.030995558947324753,2023-10-21T15:37:17.185621Z,1697902637185
-0.19661560654640198,0.6564939022064209,-0.030596474185585976,2023-10-21T15:37:17.194714Z,1697902637194
-0.2157716602087021,0.6983978152275085,-0.024078095331788063,2023-10-21T15:37:17.205908Z,1697902637205
-0.22601483762264252,0.7448246479034424,-0.01223859004676342,2023-10-21T15:37:17.216724Z,1697902637216
-0.22681300342082977,0.7937789559364319,0.0035917600616812706,2023-10-21T15:37:17.225842Z,1697902637225
-0.21763405203819275,0.8432654738426208,0.022082673385739326,2023-10-21T15:37:17.235355Z,1697902637235
-0.19767983257770538,0.8926188945770264,0.041637811809778214,2023-10-21T15:37:17.246050Z,1697902637246
-0.1680145561695099,0.9397108554840088,0.060394782572984695,2023-10-21T15:37:17.255655Z,1697902637255
-0.13023455440998077,0.9805505275726318,0.07542695850133896,2023-10-21T15:37:17.267087Z,1697902637267
-0.08739949762821198,1.0116790533065796,0.0834086537361145,2023-10-21T15:37:17.275860Z,1697902637275
-0.04323415085673332,1.031367301940918,0.08154625445604324,2023-10-21T15:37:17.286940Z,1697902637286
-0.0026605629827827215,1.0384176969528198,0.06771133095026016,2023-10-21T15:37:17.295986Z,1697902637295
0.02886710874736309,1.0326975584030151,0.040972672402858734,2023-10-21T15:37:17.307278Z,1697902637307
0.04762407764792442,1.0160690546035767,0.0018623941577970982,2023-10-21T15:37:17.316669Z,1697902637316
0.05174795165657997,0.9915918707847595,-0.04749105125665665,2023-10-21T15:37:17.327245Z,1697902637327
0.041637811809778214,0.9624586701393127,-0.10389498621225357,2023-10-21T15:37:17.336704Z,1697902637336
0.018756968900561333,0.9318621754646301,-0.1641567349433899,2023-10-21T15:37:17.350316Z,1697902637350
-0.013834928162395954,0.9016647934913635,-0.2249506115913391,2023-10-21T15:37:17.356926Z,1697902637356
-0.05201400816440582,0.8718665242195129,-0.28241875767707825,2023-10-21T15:37:17.367918Z,1697902637367
-0.09085822850465775,0.8431324362754822,-0.3332355320453644,2023-10-21T15:37:17.377162Z,1697902637377
-0.12531252205371857,0.819586455821991,-0.3755384683609009,2023-10-21T15:37:17.388273Z,1697902637388
-0.15191814303398132,0.8042882084846497,-0.4083964228630066,2023-10-21T15:37:17.400023Z,1697902637399
-0.16894575953483582,0.7957744002342224,-0.4312772750854492,2023-10-21T15:37:17.408291Z,1697902637408
-0.17546413838863373,0.7907193303108215,-0.44418099522590637,2023-10-21T15:37:17.417705Z,1697902637417
-0.17054209113121033,0.7875266671180725,-0.4472406506538391,2023-10-21T15:37:17.428508Z,1697902637428
-0.15391357243061066,0.7865954637527466,-0.4419195353984833,2023-10-21T15:37:17.438048Z,1697902637437
-0.1267758309841156,0.7871275544166565,-0.43008002638816833,2023-10-21T15:37:17.450418Z,1697902637450
-0.09178942441940308,0.7879257202148438,-0.4138505756855011,2023-10-21T15:37:17.458245Z,1697902637458
-0.05148189514875412,0.788723886013031,-0.3941624164581299,2023-10-21T15:37:17.469245Z,1697902637469
-0.007981688715517521,0.7916505336761475,-0.37128156423568726,2023-10-21T15:37:17.478505Z,1697902637478
0.035651545971632004,0.7984349727630615,-0.344808965921402,2023-10-21T15:37:17.489593Z,1697902637489
0.07662421464920044,0.8100084066390991,-0.3146115839481354,2023-10-21T15:37:17.499904Z,1697902637499
0.11294090002775192,0.8262378573417664,-0.2810884714126587,2023-10-21T15:37:17.509528Z,1697902637509
0.14393645524978638,0.8469902276992798,-0.2453039139509201,2023-10-21T15:37:17.519131Z,1697902637519
0.1701430082321167,0.8721325397491455,-0.2091202586889267,2023-10-21T15:37:17.533745Z,1697902637533
0.19249173998832703,0.900467574596405,-0.17466595768928528,2023-10-21T15:37:17.539330Z,1697902637539
0.21204687654972076,0.9298667907714844,-0.1448676586151123,2023-10-21T15:37:17.550306Z,1697902637550
0.22960658371448517,0.9582017660140991,-0.12172076106071472,2023-10-21T15:37:17.559539Z,1697902637559
0.24663420021533966,0.9836101531982422,-0.10655555129051208,2023-10-21T15:37:17.570683Z,1697902637570
0.26432693004608154,1.0031652450561523,-0.10017019510269165,2023-10-21T15:37:17.583319Z,1697902637583
0.2838820815086365,1.015137791633606,-0.10322984308004379,2023-10-21T15:37:17.590733Z,1697902637590
0.3058317303657532,1.019128680229187,-0.11586751788854599,2023-10-21T15:37:17.600063Z,1697902637600
0.33004283905029297,1.0156699419021606,-0.13755111396312714,2023-10-21T15:37:17.611030Z,1697902637611
0.3555842638015747,1.0048946142196655,-0.16748245060443878,2023-10-21T15:37:17.620385Z,1697902637620
0.38125869631767273,0.9872019290924072,-0.20459729433059692,2023-10-21T15:37:17.633645Z,1697902637633
0.4054698050022125,0.9637889862060547,-0.24729932844638824,2023-10-21T15:37:17.640568Z,1697902637640
0.42608916759490967,0.9353209137916565,-0.29292798042297363,2023-10-21T15:37:17.651642Z,1697902637651
0.44152042269706726,0.9049904942512512,-0.33775848150253296,2023-10-21T15:37:17.660849Z,1697902637660
0.45096543431282043,0.8761234283447266,-0.3787311613559723,2023-10-21T15:37:17.672004Z,1697902637671
0.4538920521736145,0.8513801693916321,-0.41291937232017517,2023-10-21T15:37:17.683199Z,1697902637683
0.45030030608177185,0.8324901461601257,-0.43832775950431824,2023-10-21T15:37:17.691978Z,1697902637691
0.44072225689888,0.8217148780822754,-0.45362600684165955,2023-10-21T15:37:17.701348Z,1697902637701
0.425956130027771,0.8206506967544556,-0.45788291096687317,2023-10-21T15:37:17.712117Z,1697902637712
0.40693312883377075,0.8290314674377441,-0.45096543431282043,2023-10-21T15:37:17.721704Z,1697902637721
0.3845843970775604,0.8456599712371826,-0.43340572714805603,2023-10-21T15:37:17.733595Z,1697902637733
0.35970813035964966,0.8685408234596252,-0.4065340459346771,2023-10-21T15:37:17.741922Z,1697902637741
0.3342997431755066,0.8955455422401428,-0.3726118505001068,2023-10-21T15:37:17.753Z,1697902637752
0.3099555969238281,0.9253438115119934,-0.3342997431755066,2023-10-21T15:37:17.762078Z,1697902637762
0.28787291049957275,0.9558072686195374,-0.2937261462211609,2023-10-21T15:37:17.773337Z,1697902637773
0.2677856683731079,0.9841422438621521,-0.2536846995353699,2023-10-21T15:37:17.782960Z,1697902637782
0.2491617351770401,1.0082203149795532,-0.21656982600688934,2023-10-21T15:37:17.793300Z,1697902637793
0.23133595287799835,1.0268442630767822,-0.18424399197101593,2023-10-21T15:37:17.802703Z,1697902637802
0.21324412524700165,1.0421425104141235,-0.15723927319049835,2023-10-21T15:37:17.816831Z,1697902637816
0.19408807158470154,1.0558444261550903,-0.13528962433338165,2023-10-21T15:37:17.823062Z,1697902637823
0.17373476922512054,1.0683491230010986,-0.11826203018426895,2023-10-21T15:37:17.834014Z,1697902637833
0.15284934639930725,1.0780601501464844,-0.10549132525920868,2023-10-21T15:37:17.843186Z,1697902637843
0.1327620893716812,1.08364737033844,-0.09564723819494247,2023-10-21T15:37:17.854417Z,1697902637854
0.11533540487289429,1.0844454765319824,-0.08660132437944412,2023-10-21T15:37:17.866392Z,1697902637866
0.10216562449932098,1.0807206630706787,-0.07728935778141022,2023-10-21T15:37:17.874398Z,1697902637874
0.09471604228019714,1.0735372304916382,-0.06731224805116653,2023-10-21T15:37:17.883749Z,1697902637883
0.09311970323324203,1.0640921592712402,-0.05746816098690033,2023-10-21T15:37:17.894622Z,1697902637894
0.0960463285446167,1.0513215065002441,-0.04935344308614731,2023-10-21T15:37:17.904052Z,1697902637904
0.10110139846801758,1.0334956645965576,-0.04483048617839813,2023-10-21T15:37:17.916684Z,1697902637916
0.10509224236011505,1.0103487968444824,-0.04562865570187569,2023-10-21T15:37:17.924235Z,1697902637924
0.10562435537576675,0.9841422438621521,-0.05334429070353508,2023-10-21T15:37:17.935348Z,1697902637935
0.10056928545236588,0.9580687284469604,-0.06930766999721527,2023-10-21T15:37:17.944472Z,1697902637944
0.08886280655860901,0.9326604008674622,-0.09351879358291626,2023-10-21T15:37:17.955648Z,1697902637955
0.06983978301286697,0.9063208103179932,-0.12438131868839264,2023-10-21T15:37:17.966301Z,1697902637966
0.04403231665492058,0.8791830539703369,-0.1597668081521988,2023-10-21T15:37:17.975614Z,1697902637975
0.013568871654570103,0.8533756136894226,-0.19608350098133087,2023-10-21T15:37:17.985083Z,1697902637985
-0.018756968900561333,0.8311598896980286,-0.22987264394760132,2023-10-21T15:37:18.000142Z,1697902638000
-0.04988555610179901,0.8128020167350769,-0.2579415738582611,2023-10-21T15:37:18.005409Z,1697902638005
-0.07715632766485214,0.7971047163009644,-0.2781618535518646,2023-10-21T15:37:18.017255Z,1697902638017
-0.09883991628885269,0.782737672328949,-0.29013440012931824,2023-10-21T15:37:18.025650Z,1697902638025
-0.1136060431599617,0.7675724625587463,-0.2941252589225769,2023-10-21T15:37:18.036873Z,1697902638036
-0.12118864804506302,0.7510769367218018,-0.29159772396087646,2023-10-21T15:37:18.049757Z,1697902638049
-0.12278498709201813,0.7327190637588501,-0.28414812684059143,2023-10-21T15:37:18.056727Z,1697902638056
-0.12078956514596939,0.7128978371620178,-0.2737719416618347,2023-10-21T15:37:18.066303Z,1697902638066
-0.11733082681894302,0.6930766701698303,-0.26273059844970703,2023-10-21T15:37:18.077035Z,1697902638077
-0.11400512605905533,0.6752508878707886,-0.25222137570381165,2023-10-21T15:37:18.086533Z,1697902638086
-0.11174365133047104,0.6599526405334473,-0.2431754618883133,2023-10-21T15:37:18.099837Z,1697902638099
-0.11081244796514511,0.6473149657249451,-0.23572587966918945,2023-10-21T15:37:18.106667Z,1697902638106
-0.11147759109735489,0.636406660079956,-0.23013870418071747,2023-10-21T15:37:18.117716Z,1697902638117
-0.11320696026086807,0.6253653168678284,-0.22694602608680725,2023-10-21T15:37:18.126895Z,1697902638126
-0.1146702691912651,0.6112643480300903,-0.22628088295459747,2023-10-21T15:37:18.138006Z,1697902638137
-0.11480329185724258,0.5911771059036255,-0.2282763123512268,2023-10-21T15:37:18.149516Z,1697902638149
-0.11307393014431,0.5643054246902466,-0.23240017890930176,2023-10-21T15:37:18.158076Z,1697902638158
-0.1086840033531189,0.5319795608520508,-0.237056165933609,2023-10-21T15:37:18.167479Z,1697902638167
-0.10136745125055313,0.4979243874549866,-0.2398497611284256,2023-10-21T15:37:18.178206Z,1697902638178
-0.09099125862121582,0.46506643295288086,-0.23812039196491241,2023-10-21T15:37:18.187779Z,1697902638187
-0.07782147079706192,0.43433693051338196,-0.22973962128162384,2023-10-21T15:37:18.199922Z,1697902638199
-0.06239020451903343,0.40640100836753845,-0.21324412524700165,2023-10-21T15:37:18.207974Z,1697902638207
-0.05028464272618294,0.36463016271591187,-0.18796877562999725,2023-10-21T15:37:18.219069Z,1697902638219
-0.031527671962976456,0.35159340500831604,-0.15231724083423615,2023-10-21T15:37:18.228115Z,1697902638228
-0.006252323277294636,0.36582741141319275,-0.10575737804174423,2023-10-21T15:37:18.239349Z,1697902638239
0.015298237092792988,0.3667586147785187,-0.05055069923400879,2023-10-21T15:37:18.249289Z,1697902638249
0.037513937801122665,0.37394213676452637,0.010908308438956738,2023-10-21T15:37:18.259275Z,1697902638259
0.06026175245642662,0.385249525308609,0.07609210163354874,2023-10-21T15:37:18.268808Z,1697902638268
0.08367470651865005,0.4001486897468567,0.14247314631938934,2023-10-21T15:37:18.283286Z,1697902638283
0.10801886022090912,0.41744235157966614,0.207523912191391,2023-10-21T15:37:18.289043Z,1697902638289
0.13302814960479736,0.4340708553791046,0.2689829170703888,2023-10-21T15:37:18.299955Z,1697902638299
0.15817047655582428,0.44591036438941956,0.32472172379493713,2023-10-21T15:37:18.309189Z,1697902638309
0.1827806830406189,0.45083239674568176,0.3727448880672455,2023-10-21T15:37:18.320380Z,1697902638320
0.205794557929039,0.4489700198173523,0.4117221236228943,2023-10-21T15:37:18.333161Z,1697902638333
0.22574877738952637,0.44205254316329956,0.4412543773651123,2023-10-21T15:37:18.340390Z,1697902638340
0.2421112358570099,0.4330066442489624,0.46120861172676086,2023-10-21T15:37:18.349855Z,1697902638349
0.2542167901992798,0.4243597984313965,0.47185084223747253,2023-10-21T15:37:18.360726Z,1697902638360
0.2619324326515198,0.41744235157966614,0.4746444523334503,2023-10-21T15:37:18.370189Z,1697902638370
0.26432693004608154,0.41185516119003296,0.47185084223747253,2023-10-21T15:37:18.382990Z,1697902638382
0.26100122928619385,0.4078643023967743,0.46626368165016174,2023-10-21T15:37:18.390383Z,1697902638390
0.2530195415019989,0.407731294631958,0.4605434536933899,2023-10-21T15:37:18.401337Z,1697902638401
0.2426433563232422,0.414781779050827,0.4577498733997345,2023-10-21T15:37:18.410509Z,1697902638410
0.23240017890930176,0.43061211705207825,0.46027740836143494,2023-10-21T15:37:18.421697Z,1697902638421
0.2244184911251068,0.4545572102069855,0.46945634484291077,2023-10-21T15:37:18.432661Z,1697902638432
0.21962948143482208,0.48262614011764526,0.48502063751220703,2023-10-21T15:37:18.441641Z,1697902638441
0.21816617250442505,0.5092317461967468,0.5053739547729492,2023-10-21T15:37:18.451180Z,1697902638451
0.21936342120170593,0.5305162668228149,0.5285208225250244,2023-10-21T15:37:18.466938Z,1697902638466
0.2228221595287323,0.5468787550926208,0.5515347123146057,2023-10-21T15:37:18.471481Z,1697902638471
0.22694602608680725,0.5619109272956848,0.570956826210022,2023-10-21T15:37:18.483836Z,1697902638483
0.22960658371448517,0.5785394310951233,0.5837275385856628,2023-10-21T15:37:18.491790Z,1697902638491
0.2282763123512268,0.596365213394165,0.5878514051437378,2023-10-21T15:37:18.502773Z,1697902638502
0.22029462456703186,0.6148561239242554,0.5819981694221497,2023-10-21T15:37:18.511838Z,1697902638511
0.20379912853240967,0.6346772909164429,0.5660347938537598,2023-10-21T15:37:18.523078Z,1697902638523
0.17865680158138275,0.6576911807060242,0.5407594442367554,2023-10-21T15:37:18.532758Z,1697902638532
0.14673005044460297,0.6838977336883545,0.5083005428314209,2023-10-21T15:37:18.543018Z,1697902638543
0.11041336506605148,0.7122327089309692,0.4715847969055176,2023-10-21T15:37:18.552493Z,1697902638552
0.07223428785800934,0.7407007217407227,0.43340572714805603,2023-10-21T15:37:18.566628Z,1697902638566
0.03392218053340912,0.7665082216262817,0.396157830953598,2023-10-21T15:37:18.572727Z,1697902638572
-0.0029266192577779293,0.7879257202148438,0.3621026277542114,2023-10-21T15:37:18.583701Z,1697902638583
-0.036848798394203186,0.8062836527824402,0.33336853981018066,2023-10-21T15:37:18.592976Z,1697902638592
-0.06717921793460846,0.8242424130439758,0.311152845621109,2023-10-21T15:37:18.604075Z,1697902638604
-0.09458301961421967,0.845526933670044,0.29598763585090637,2023-10-21T15:37:18.616106Z,1697902638616
-0.12025745213031769,0.8717334866523743,0.28734081983566284,2023-10-21T15:37:18.624095Z,1697902638624
-0.14460159838199615,0.9033941626548767,0.2844142019748688,2023-10-21T15:37:18.633523Z,1697902638633
-0.16814757883548737,0.9397108554840088,0.28521236777305603,2023-10-21T15:37:18.644310Z,1697902638644
-0.19142751395702362,0.977357804775238,0.28574445843696594,2023-10-21T15:37:18.653817Z,1697902638653
-0.21523955464363098,1.0120781660079956,0.2814875841140747,2023-10-21T15:37:18.666288Z,1697902638666
-0.24011582136154175,1.0396150350570679,0.2679187059402466,2023-10-21T15:37:18.674007Z,1697902638673
-0.26632237434387207,1.0566426515579224,0.2421112358570099,2023-10-21T15:37:18.685027Z,1697902638684
-0.29399222135543823,1.0619637966156006,0.2031339854001999,2023-10-21T15:37:18.694205Z,1697902638694
-0.3225932717323303,1.0570416450500488,0.15245026350021362,2023-10-21T15:37:18.705384Z,1697902638705
-0.35092827677726746,1.046399474143982,0.09365181624889374,2023-10-21T15:37:18.715808Z,1697902638715
-0.3771347999572754,1.0354911088943481,0.03205978497862816,2023-10-21T15:37:18.725371Z,1697902638725
-0.3996165692806244,1.0271103382110596,-0.02633957378566265,2023-10-21T15:37:18.734835Z,1697902638734
-0.4177083969116211,1.0211241245269775,-0.07635816186666489,2023-10-21T15:37:18.749564Z,1697902638749
-0.4303460717201233,1.0143396854400635,-0.1141381561756134,2023-10-21T15:37:18.755126Z,1697902638755
-0.4367314279079437,1.0034313201904297,-0.1367529332637787,2023-10-21T15:37:18.766103Z,1697902638766
-0.4358002245426178,0.985073447227478,-0.14367040991783142,2023-10-21T15:37:18.775334Z,1697902638775
-0.42662128806114197,0.9572705626487732,-0.13582174479961395,2023-10-21T15:37:18.786517Z,1697902638786
-0.4083964228630066,0.919623613357544,-0.11573449522256851,2023-10-21T15:37:18.798955Z,1697902638798
-0.3815247416496277,0.8729307055473328,-0.08553709834814072,2023-10-21T15:37:18.806547Z,1697902638806
-0.34773558378219604,0.8183891773223877,-0.0482892207801342,2023-10-21T15:37:18.815885Z,1697902638815
-0.30982255935668945,0.7561320066452026,-0.007316548377275467,2023-10-21T15:37:18.826682Z,1697902638826
-0.2705792486667633,0.6884207129478455,0.033789150416851044,2023-10-21T15:37:18.836207Z,1697902638836
-0.23226715624332428,0.6193791031837463,0.07210125774145126,2023-10-21T15:37:18.849495Z,1697902638849
-0.1964825838804245,0.5540622472763062,0.10602343827486038,2023-10-21T15:37:18.856385Z,1697902638856
-0.16455581784248352,0.49699318408966064,0.13462449610233307,2023-10-21T15:37:18.867409Z,1697902638867
-0.13741807639598846,0.4501672685146332,0.1575053334236145,2023-10-21T15:37:18.876583Z,1697902638876
-0.11546843498945236,0.41305240988731384,0.17466595768928528,2023-10-21T15:37:18.887782Z,1697902638887
-0.09883991628885269,0.3840522766113281,0.18557427823543549,2023-10-21T15:37:18.898859Z,1697902638898
-0.08793161064386368,0.36196959018707275,0.19023025035858154,2023-10-21T15:37:18.907751Z,1697902638907
-0.08207836747169495,0.34653833508491516,0.18850089609622955,2023-10-21T15:37:18.917217Z,1697902638917
-0.08021597564220428,0.3369603157043457,0.18145039677619934,2023-10-21T15:37:18.927990Z,1697902638927
-0.08088111877441406,0.33070799708366394,0.1701430082321167,2023-10-21T15:37:18.937533Z,1697902638937
-0.08314259350299835,0.32512080669403076,0.1552438586950302,2023-10-21T15:37:18.949199Z,1697902638949
-0.08633527159690857,0.3183363676071167,0.13795019686222076,2023-10-21T15:37:18.957693Z,1697902638957
-0.08154625445604324,0.29159772396087646,0.11959230899810791,2023-10-21T15:37:18.968731Z,1697902638968
-0.08513801544904709,0.2838820815086365,0.10176653414964676,2023-10-21T15:37:18.977901Z,1697902638977
-0.08806463330984116,0.27736368775367737,0.08660132437944412,2023-10-21T15:37:18.989133Z,1697902638989
-0.0877985805273056,0.27137744426727295,0.07622513175010681,2023-10-21T15:37:18.998903Z,1697902638998
-0.09258759021759033,0.28574445843696594,0.07196822762489319,2023-10-21T15:37:19.009049Z,1697902639009
-0.08872977644205093,0.2833499610424042,0.07236731797456741,2023-10-21T15:37:19.018595Z,1697902639018
-0.08407378941774368,0.28029030561447144,0.07715632766485214,2023-10-21T15:37:19.032614Z,1697902639032
-0.0784866064786911,0.2744370698928833,0.08540407568216324,2023-10-21T15:37:19.038818Z,1697902639038
-0.07143611460924149,0.26539117097854614,0.0965784415602684,2023-10-21T15:37:19.049747Z,1697902639049
-0.06292231380939484,0.2535516619682312,0.10988125205039978,2023-10-21T15:37:19.059006Z,1697902639058
-0.05334429070353508,0.23945067822933197,0.12424829602241516,2023-10-21T15:37:19.070189Z,1697902639070
-0.04483048617839813,0.21497349441051483,0.1218537837266922,2023-10-21T15:37:19.082010Z,1697902639081
-0.0351194329559803,0.19967526197433472,0.13528962433338165,2023-10-21T15:37:19.090198Z,1697902639090
-0.026871686801314354,0.1866385042667389,0.14686307311058044,2023-10-21T15:37:19.099597Z,1697902639099
-0.017426688224077225,0.172404482960701,0.15484477579593658,2023-10-21T15:37:19.110413Z,1697902639110
-0.00944499857723713,0.16016589105129242,0.16162919998168945,2023-10-21T15:37:19.119918Z,1697902639119
-0.007981688715517521,0.1367529332637787,0.13808321952819824,2023-10-21T15:37:19.132514Z,1697902639132
0.010376195423305035,0.12039047479629517,0.1471291333436966,2023-10-21T15:37:19.140100Z,1697902639140
0.026206545531749725,0.10642252117395401,0.15484477579593658,2023-10-21T15:37:19.151171Z,1697902639151
0.04083964228630066,0.07090400159358978,0.1316978633403778,2023-10-21T15:37:19.160295Z,1697902639160
0.06358745694160461,0.025541406124830246,0.10309682041406631,2023-10-21T15:37:19.171449Z,1697902639171
0.07383062690496445,-0.008114716969430447,0.06372048705816269,2023-10-21T15:37:19.182126Z,1697902639182
0.08008294552564621,-0.034720346331596375,0.016761546954512596,2023-10-21T15:37:19.191474Z,1697902639191
0.08088111877441406,-0.05188097804784775,-0.03485337644815445,2023-10-21T15:37:19.200930Z,1697902639200
0.07542695850133896,-0.058532387018203735,-0.08753252774477005,2023-10-21T15:37:19.215654Z,1697902639215
0.06398653984069824,-0.05520668253302574,-0.137285053730011,2023-10-21T15:37:19.221201Z,1697902639221
0.048821330070495605,-0.0438992902636528,-0.1810513138771057,2023-10-21T15:37:19.232471Z,1697902639232
0.033124011009931564,-0.030197391286492348,-0.21710194647312164,2023-10-21T15:37:19.241390Z,1697902639241
0.021417532116174698,-0.02008725143969059,-0.2442396879196167,2023-10-21T15:37:19.252551Z,1697902639252
0.01755971647799015,-0.017958801239728928,-0.26219847798347473,2023-10-21T15:37:19.265690Z,1697902639265
0.023945067077875137,-0.027137743309140205,-0.2712444067001343,2023-10-21T15:37:19.272611Z,1697902639272
0.04044055938720703,-0.04935344308614731,-0.2735058665275574,2023-10-21T15:37:19.282493Z,1697902639282
0.06571590900421143,-0.08500499278306961,-0.2711113691329956,2023-10-21T15:37:19.292892Z,1697902639292
0.09631238132715225,-0.1301015317440033,-0.26645538210868835,2023-10-21T15:37:19.302295Z,1697902639302
0.12810611724853516,-0.1778586357831955,-0.26153334975242615,2023-10-21T15:37:19.315810Z,1697902639315
0.15737231075763702,-0.2222900390625,-0.25873976945877075,2023-10-21T15:37:19.322546Z,1697902639322
0.1811843365430832,-0.2596709430217743,-0.2606021463871002,2023-10-21T15:37:19.333440Z,1697902639333
0.19767983257770538,-0.2881389856338501,-0.26978108286857605,2023-10-21T15:37:19.342693Z,1697902639342
0.205794557929039,-0.3062308132648468,-0.28773990273475647,2023-10-21T15:37:19.353845Z,1697902639353
0.2052624374628067,-0.31314826011657715,-0.3135473430156708,2023-10-21T15:37:19.365314Z,1697902639365
0.19688166677951813,-0.3083592653274536,-0.3457401692867279,2023-10-21T15:37:19.373831Z,1697902639373
0.181583434343338,-0.293194055557251,-0.381391704082489,2023-10-21T15:37:19.383275Z,1697902639383
0.16069801151752472,-0.26978108286857605,-0.41730931401252747,2023-10-21T15:37:19.394124Z,1697902639394
0.13542266190052032,-0.24064792692661285,-0.4505663514137268,2023-10-21T15:37:19.403663Z,1697902639403
0.10828491300344467,-0.2068587690591812,-0.47783711552619934,2023-10-21T15:37:19.415808Z,1697902639415
0.08141323179006577,-0.16947786509990692,-0.496860146522522,2023-10-21T15:37:19.423758Z,1697902639423
0.05693604797124863,-0.12996850907802582,-0.5065711736679077,2023-10-21T15:37:19.434843Z,1697902639434
0.03605062887072563,-0.09085822850465775,-0.5072363615036011,2023-10-21T15:37:19.443943Z,1697902639443
0.01942211017012596,-0.05454154312610626,-0.49925464391708374,2023-10-21T15:37:19.455165Z,1697902639455
0.007981688715517521,-0.022215701639652252,-0.4839564263820648,2023-10-21T15:37:19.464977Z,1697902639464
0.0019954221788793802,0.005188097711652517,-0.46347007155418396,2023-10-21T15:37:19.475238Z,1697902639475
0.0013302814913913608,0.026206545531749725,-0.4401901662349701,2023-10-21T15:37:19.484704Z,1697902639484
0.00611929502338171,0.03990844637155533,-0.4166441857814789,2023-10-21T15:37:19.498983Z,1697902639498
0.015830349177122116,0.04642682522535324,-0.39482754468917847,2023-10-21T15:37:19.504869Z,1697902639504
0.02979830652475357,0.04602774232625961,-0.37620362639427185,2023-10-21T15:37:19.515859Z,1697902639515
0.04682590812444687,0.038445137441158295,-0.3623686730861664,2023-10-21T15:37:19.525098Z,1697902639525
0.06571590900421143,0.02474323660135269,-0.3538548946380615,2023-10-21T15:37:19.536196Z,1697902639536
0.08500499278306961,0.007582604885101318,-0.35052919387817383,2023-10-21T15:37:19.548485Z,1697902639548
0.10336287319660187,-0.011041336692869663,-0.351859450340271,2023-10-21T15:37:19.556411Z,1697902639556
0.11892716586589813,-0.030197391286492348,-0.3566484749317169,2023-10-21T15:37:19.565644Z,1697902639565
0.13089969754219055,-0.050018586218357086,-0.36369895935058594,2023-10-21T15:37:19.576434Z,1697902639576
0.13861533999443054,-0.06890857964754105,-0.37088248133659363,2023-10-21T15:37:19.585981Z,1697902639585
0.14194104075431824,-0.0834086537361145,-0.3759375512599945,2023-10-21T15:37:19.599019Z,1697902639598
0.14140892028808594,-0.09019308537244797,-0.37633663415908813,2023-10-21T15:37:19.606187Z,1697902639606
0.13821625709533691,-0.08819766342639923,-0.37008431553840637,2023-10-21T15:37:19.617212Z,1697902639617
0.12611068785190582,-0.0790187194943428,-0.33829060196876526,2023-10-21T15:37:19.626349Z,1697902639626
0.12331710010766983,-0.06318837404251099,-0.3167400360107422,2023-10-21T15:37:19.637494Z,1697902639637
0.12092258781194687,-0.04961949959397316,-0.29838213324546814,2023-10-21T15:37:19.648444Z,1697902639648
0.10336287319660187,-0.04243598133325577,-0.25488194823265076,2023-10-21T15:37:19.657661Z,1697902639657
0.12384921312332153,-0.02979830652475357,-0.20778997242450714,2023-10-21T15:37:19.667004Z,1697902639666
0.16043195128440857,-0.026738658547401428,-0.15072089433670044,2023-10-21T15:37:19.677707Z,1697902639677
0.17852377891540527,-0.04270203784108162,-0.08926188945770264,2023-10-21T15:37:19.687325Z,1697902639687
0.20100553333759308,-0.06411956995725632,-0.026738658547401428,2023-10-21T15:37:19.698910Z,1697902639698
0.22588180005550385,-0.08846372365951538,0.03485337644815445,2023-10-21T15:37:19.707499Z,1697902639707
0.25102412700653076,-0.1141381561756134,0.09418392926454544,2023-10-21T15:37:19.718563Z,1697902639718
0.27483615279197693,-0.14074379205703735,0.14992272853851318,2023-10-21T15:37:19.727592Z,1697902639727
0.2958545982837677,-0.16535399854183197,0.20153765380382538,2023-10-21T15:37:19.738913Z,1697902639738
0.3139464259147644,-0.18451005220413208,0.2486296147108078,2023-10-21T15:37:19.748295Z,1697902639748
0.32911163568496704,-0.19794589281082153,0.29053348302841187,2023-10-21T15:37:19.758843Z,1697902639758
0.34161630272865295,-0.20872117578983307,0.3265841007232666,2023-10-21T15:37:19.768352Z,1697902639768
0.3523915708065033,-0.21883131563663483,0.3574466407299042,2023-10-21T15:37:19.782307Z,1697902639782
0.3622356653213501,-0.22761116921901703,0.3845843970775604,2023-10-21T15:37:19.788543Z,1697902639788
0.3720797300338745,-0.23479469120502472,0.4101257920265198,2023-10-21T15:37:19.799463Z,1697902639799
0.38218986988067627,-0.24330848455429077,0.43540114164352417,2023-10-21T15:37:19.808724Z,1697902639808
0.3924330472946167,-0.2562122344970703,0.4616076946258545,2023-10-21T15:37:19.819959Z,1697902639819
0.4024101495742798,-0.27363890409469604,0.4896766245365143,2023-10-21T15:37:19.831827Z,1697902639831
0.4121212065219879,-0.2946573495864868,0.5200070738792419,2023-10-21T15:37:19.839850Z,1697902639839
0.4215662181377411,-0.318203330039978,0.5531310439109802,2023-10-21T15:37:19.849309Z,1697902639849
0.4303460717201233,-0.3418823480606079,0.5885165333747864,2023-10-21T15:37:19.860069Z,1697902639860
0.43872684240341187,-0.36143749952316284,0.625498354434967,2023-10-21T15:37:19.869659Z,1697902639869
0.4463094472885132,-0.37407517433166504,0.6626132130622864,2023-10-21T15:37:19.882156Z,1697902639882
0.45256176590919495,-0.3792632520198822,0.6985308527946472,2023-10-21T15:37:19.889859Z,1697902639889
0.45522233843803406,-0.37793296575546265,0.7308566570281982,2023-10-21T15:37:19.900897Z,1697902639900
0.4521626830101013,-0.37128156423568726,0.7571962475776672,2023-10-21T15:37:19.910112Z,1697902639910
0.44165346026420593,-0.35864388942718506,0.7752880454063416,2023-10-21T15:37:19.921283Z,1697902639921
0.422763466835022,-0.33948785066604614,0.7828706502914429,2023-10-21T15:37:19.931596Z,1697902639931
0.3950936198234558,-0.3134143352508545,0.7787467837333679,2023-10-21T15:37:19.941255Z,1697902639941
0.3594420552253723,-0.28082242608070374,0.7629164457321167,2023-10-21T15:37:19.950655Z,1697902639950
0.31807032227516174,-0.2414460927248001,0.736842930316925,2023-10-21T15:37:19.961373Z,1697902639961
0.27363890409469604,-0.1970146894454956,0.7030537724494934,2023-10-21T15:37:19.970985Z,1697902639970
0.2282763123512268,-0.15111997723579407,0.6638104915618896,2023-10-21T15:37:19.981934Z,1697902639981
0.18331278860569,-0.10801886022090912,0.6208423972129822,2023-10-21T15:37:19.991156Z,1697902639991
0.1394135057926178,-0.0707709789276123,0.5748146176338196,2023-10-21T15:37:20.002392Z,1697902640002
0.09671146422624588,-0.041637811809778214,0.525993287563324,2023-10-21T15:37:20.014865Z,1697902640014
0.06997280567884445,-0.027137743309140205,0.4644012749195099,2023-10-21T15:37:20.022433Z,1697902640022
0.025674432516098022,-0.010642251931130886,0.41132304072380066,2023-10-21T15:37:20.031730Z,1697902640031
-0.012105561792850494,0.003325703786686063,0.3659604489803314,2023-10-21T15:37:20.042648Z,1697902640042
-0.05693604797124863,0.022481758147478104,0.3127491772174835,2023-10-21T15:37:20.052015Z,1697902640051
-0.12358315289020538,0.056536965072155,0.26579025387763977,2023-10-21T15:37:20.064983Z,1697902640064
-0.16615216434001923,0.091656394302845,0.22468455135822296,2023-10-21T15:37:20.072228Z,1697902640072
-0.2101844847202301,0.13874836266040802,0.19169357419013977,2023-10-21T15:37:20.083271Z,1697902640083
-0.2551479935646057,0.1986110359430313,0.16695033013820648,2023-10-21T15:37:20.092476Z,1697902640092
-0.29984545707702637,0.2700471580028534,0.1492575854063034,2023-10-21T15:37:20.103597Z,1697902640103
-0.3434786796569824,0.348400741815567,0.13582174479961395,2023-10-21T15:37:20.114831Z,1697902640114
-0.38564860820770264,0.4264882504940033,0.12265195697546005,2023-10-21T15:37:20.123554Z,1697902640123
-0.42515796422958374,0.49805739521980286,0.10628949105739594,2023-10-21T15:37:20.133042Z,1697902640133
-0.46080952882766724,0.5572549104690552,0.08354167640209198,2023-10-21T15:37:20.143749Z,1697902640143
-0.49140599370002747,0.6010211706161499,0.05241309106349945,2023-10-21T15:37:20.153331Z,1697902640153
-0.5158831477165222,0.6286910176277161,0.0130367586389184,2023-10-21T15:37:20.165069Z,1697902640165
-0.5325117111206055,0.6411957144737244,-0.03272492438554764,2023-10-21T15:37:20.173580Z,1697902640173
-0.540892481803894,0.637337863445282,-0.08194534480571747,2023-10-21T15:37:20.184611Z,1697902640184
-0.540892481803894,0.6140579581260681,-0.13050061464309692,2023-10-21T15:37:20.193711Z,1697902640193
-0.5325117111206055,0.5690944194793701,-0.17426687479019165,2023-10-21T15:37:20.204931Z,1697902640204
-0.5158831477165222,0.5031124949455261,-0.2091202586889267,2023-10-21T15:37:20.214516Z,1697902640214
-0.46852514147758484,0.43114423751831055,-0.2073908895254135,2023-10-21T15:37:20.224987Z,1697902640224
-0.4403231739997864,0.33124008774757385,-0.21816617250442505,2023-10-21T15:37:20.234404Z,1697902640234
-0.4279515743255615,0.21364320814609528,-0.2326662391424179,2023-10-21T15:37:20.248409Z,1697902640248
-0.3836531937122345,0.1141381561756134,-0.19741377234458923,2023-10-21T15:37:20.254642Z,1697902640254
-0.33616214990615845,0.02447718009352684,-0.1427392065525055,2023-10-21T15:37:20.265605Z,1697902640265
-0.28773990273475647,-0.052280064672231674,-0.07236731797456741,2023-10-21T15:37:20.274840Z,1697902640274
-0.24104700982570648,-0.11453723907470703,0.008912886492908001,2023-10-21T15:37:20.285999Z,1697902640285
-0.19834497570991516,-0.16202828288078308,0.09524815529584885,2023-10-21T15:37:20.297836Z,1697902640297
-0.16096405684947968,-0.1942211091518402,0.1799870878458023,2023-10-21T15:37:20.306050Z,1697902640306
-0.12930336594581604,-0.2129780650138855,0.2567443251609802,2023-10-21T15:37:20.315411Z,1697902640315
-0.10402801632881165,-0.22082673013210297,0.3200657367706299,2023-10-21T15:37:20.326271Z,1697902640326
-0.08553709834814072,-0.2200285643339157,0.36662557721138,2023-10-21T15:37:20.335775Z,1697902640335
-0.07383062690496445,-0.2124459594488144,0.3940293788909912,2023-10-21T15:37:20.348156Z,1697902640348
-0.0691746398806572,-0.20127159357070923,0.40147897601127625,2023-10-21T15:37:20.355883Z,1697902640355
-0.07090400159358978,-0.19023025035858154,0.38950642943382263,2023-10-21T15:37:20.367019Z,1697902640366
-0.0779544934630394,-0.18091829121112823,0.36130446195602417,2023-10-21T15:37:20.376111Z,1697902640376
-0.07662421464920044,-0.16375765204429626,0.31860241293907166,2023-10-21T15:37:20.387290Z,1697902640387
-0.09272062033414841,-0.1580374389886856,0.2717765271663666,2023-10-21T15:37:20.397886Z,1697902640397
-0.10655555129051208,-0.15324842929840088,0.2316020131111145,2023-10-21T15:37:20.407256Z,1697902640407
-0.12265195697546005,-0.14460159838199615,0.18570730090141296,2023-10-21T15:37:20.416731Z,1697902640416
-0.13635385036468506,-0.1371520310640335,0.14646399021148682,2023-10-21T15:37:20.431685Z,1697902640431
-0.14699611067771912,-0.11892716586589813,0.11600054800510406,2023-10-21T15:37:20.437025Z,1697902640436
-0.1559089869260788,-0.10336287319660187,0.08992703258991241,2023-10-21T15:37:20.448631Z,1697902640448
-0.16096405684947968,-0.07875266671180725,0.07689027488231659,2023-10-21T15:37:20.457194Z,1697902640457
-0.1652209609746933,-0.05773421749472618,0.0658489316701889,2023-10-21T15:37:20.468255Z,1697902640468
-0.16894575953483582,-0.03711485490202904,0.06225717440247536,2023-10-21T15:37:20.481015Z,1697902640480
-0.1722714602947235,-0.019555138424038887,0.059197526425123215,2023-10-21T15:37:20.488407Z,1697902640488
-0.1778586357831955,0.005321125965565443,0.05587182566523552,2023-10-21T15:37:20.497859Z,1697902640497
-0.19914314150810242,0.04429837316274643,0.05440851300954819,2023-10-21T15:37:20.508677Z,1697902640508
-0.20459729433059692,0.07702329754829407,0.047890134155750275,2023-10-21T15:37:20.518145Z,1697902640518
-0.211381733417511,0.11121153831481934,0.04017450287938118,2023-10-21T15:37:20.531707Z,1697902640531
-0.2179001122713089,0.1438034325838089,0.032192811369895935,2023-10-21T15:37:20.538329Z,1697902640538
-0.22202397882938385,0.17080815136432648,0.025009293109178543,2023-10-21T15:37:20.549452Z,1697902640549
-0.2217579334974289,0.1882348358631134,0.017692744731903076,2023-10-21T15:37:20.558520Z,1697902640558
-0.20433124899864197,0.1799870878458023,0.012770703062415123,2023-10-21T15:37:20.569758Z,1697902640569
-0.1959504634141922,0.17280356585979462,-0.0027935912366956472,2023-10-21T15:37:20.580989Z,1697902640580
-0.1887669414281845,0.16668426990509033,-0.016229433938860893,2023-10-21T15:37:20.589686Z,1697902640589
-0.17466595768928528,0.13236300647258759,-0.04842224717140198,2023-10-21T15:37:20.599120Z,1697902640599
-0.16881272196769714,0.0905921682715416,-0.10256470739841461,2023-10-21T15:37:20.609903Z,1697902640609
-0.15830349922180176,0.05121583864092827,-0.14739519357681274,2023-10-21T15:37:20.619446Z,1697902640619
-0.1536475121974945,0.017958801239728928,-0.1970146894454956,2023-10-21T15:37:20.631337Z,1697902640631
-0.15497779846191406,-0.0037247883155941963,-0.24663420021533966,2023-10-21T15:37:20.639704Z,1697902640639
-0.1608310341835022,-0.012637674808502197,-0.2914646863937378,2023-10-21T15:37:20.650777Z,1697902640650
-0.1678815335035324,-0.0130367586389184,-0.32791438698768616,2023-10-21T15:37:20.659805Z,1697902640659
-0.17267054319381714,-0.011573448777198792,-0.3541209399700165,2023-10-21T15:37:20.671050Z,1697902640671
-0.1722714602947235,-0.01396795641630888,-0.3692861497402191,2023-10-21T15:37:20.680993Z,1697902640680
-0.16535399854183197,-0.02421112358570099,-0.37394213676452637,2023-10-21T15:37:20.691087Z,1697902640691
-0.15231724083423615,-0.04456442967057228,-0.3694191873073578,2023-10-21T15:37:20.700470Z,1697902640700
-0.13382631540298462,-0.0746287927031517,-0.3579787611961365,2023-10-21T15:37:20.711200Z,1697902640711
-0.11200970411300659,-0.11001428216695786,-0.3429465889930725,2023-10-21T15:37:20.720693Z,1697902640720
-0.08979400247335434,-0.14420251548290253,-0.32791438698768616,2023-10-21T15:37:20.731699Z,1697902640731
-0.07037189602851868,-0.17280356585979462,-0.3162079155445099,2023-10-21T15:37:20.740871Z,1697902640740
-0.05560576915740967,-0.19328990578651428,-0.30982255935668945,2023-10-21T15:37:20.752089Z,1697902640752
-0.04483048617839813,-0.20619364082813263,-0.30982255935668945,2023-10-21T15:37:20.764081Z,1697902640764
-0.036848798394203186,-0.21377624571323395,-0.3172721564769745,2023-10-21T15:37:20.772159Z,1697902640772
-0.030064363032579422,-0.21962948143482208,-0.33230432868003845,2023-10-21T15:37:20.781486Z,1697902640781
-0.02288084290921688,-0.2272120863199234,-0.3539879024028778,2023-10-21T15:37:20.792361Z,1697902640792
-0.01396795641630888,-0.2375882863998413,-0.38125869631767273,2023-10-21T15:37:20.801781Z,1697902640801
-0.0018623941577970982,-0.25049200654029846,-0.4137175381183624,2023-10-21T15:37:20.814851Z,1697902640814
0.013302815146744251,-0.26419392228126526,-0.4510984718799591,2023-10-21T15:37:20.821926Z,1697902640821
0.029133165255188942,-0.2770976424217224,-0.4935344457626343,2023-10-21T15:37:20.833066Z,1697902640833
0.042569007724523544,-0.28893715143203735,-0.5395621657371521,2023-10-21T15:37:20.842195Z,1697902640842
0.05108281224966049,-0.2991803288459778,-0.5867871642112732,2023-10-21T15:37:20.853407Z,1697902640853
0.05467456951737404,-0.30490052700042725,-0.6308194994926453,2023-10-21T15:37:20.864349Z,1697902640864
0.05400943011045456,-0.30104270577430725,-0.6666040420532227,2023-10-21T15:37:20.873508Z,1697902640873
0.05055069923400879,-0.2860105335712433,-0.689617931842804,2023-10-21T15:37:20.882866Z,1697902640882
0.04602774232625961,-0.26153334975242615,-0.6970674991607666,2023-10-21T15:37:20.893580Z,1697902640893
0.042569007724523544,-0.2305377870798111,-0.6876225471496582,2023-10-21T15:37:20.903120Z,1697902640903
0.042169924825429916,-0.19501927495002747,-0.6619480848312378,2023-10-21T15:37:20.914531Z,1697902640914
0.046293795108795166,-0.15790441632270813,-0.623236894607544,2023-10-21T15:37:20.923303Z,1697902640923
0.05494062602519989,-0.12331710010766983,-0.5758788585662842,2023-10-21T15:37:20.934413Z,1697902640934
0.06731224805116653,-0.09511512517929077,-0.5247960686683655,2023-10-21T15:37:20.943430Z,1697902640943
0.08261048048734665,-0.07422970980405807,-0.474378377199173,2023-10-21T15:37:20.954724Z,1697902640954
0.0999041423201561,-0.05879844352602959,-0.4276854991912842,2023-10-21T15:37:20.964070Z,1697902640964
0.11826203018426895,-0.04709196463227272,-0.3875110149383545,2023-10-21T15:37:20.974690Z,1697902640974
0.1360878050327301,-0.040041472762823105,-0.355717271566391,2023-10-21T15:37:20.984208Z,1697902640984
0.1525832861661911,-0.039376333355903625,-0.33296945691108704,2023-10-21T15:37:20.998048Z,1697902640997
0.16748245060443878,-0.045096542686223984,-0.31860241293907166,2023-10-21T15:37:21.004404Z,1697902641004
0.1810513138771057,-0.05494062602519989,-0.311152845621109,2023-10-21T15:37:21.015400Z,1697902641015
0.19328990578651428,-0.06691315770149231,-0.30822622776031494,2023-10-21T15:37:21.024646Z,1697902641024
0.20393215119838715,-0.07941780984401703,-0.30649685859680176,2023-10-21T15:37:21.036137Z,1697902641036
0.21417532861232758,-0.09258759021759033,-0.3047674894332886,2023-10-21T15:37:21.047376Z,1697902641047
0.2256157398223877,-0.10695463418960571,-0.30277207493782043,2023-10-21T15:37:21.056105Z,1697902641056
0.23812039196491241,-0.1229180097579956,-0.2995794117450714,2023-10-21T15:37:21.065545Z,1697902641065
0.25168925523757935,-0.14127589762210846,-0.29439130425453186,2023-10-21T15:37:21.076262Z,1697902641076
0.26645538210868835,-0.16123011708259583,-0.28614354133605957,2023-10-21T15:37:21.085853Z,1697902641085
0.28228574991226196,-0.18131737411022186,-0.274304062128067,2023-10-21T15:37:21.097861Z,1697902641097
0.2990472912788391,-0.20073948800563812,-0.25834065675735474,2023-10-21T15:37:21.105995Z,1697902641105
0.3162079155445099,-0.21856525540351868,-0.2375882863998413,2023-10-21T15:37:21.117077Z,1697902641117
0.3337676227092743,-0.23346440494060516,-0.2107165902853012,2023-10-21T15:37:21.126198Z,1697902641126
0.351859450340271,-0.24437271058559418,-0.1767944097518921,2023-10-21T15:37:21.137401Z,1697902641137
0.37021735310554504,-0.2514232099056244,-0.1360878050327301,2023-10-21T15:37:21.147355Z,1697902641147
0.3892403841018677,-0.2546158730983734,-0.08912885934114456,2023-10-21T15:37:21.157367Z,1697902641157
0.4083964228630066,-0.25448286533355713,-0.03698182478547096,2023-10-21T15:37:21.166874Z,1697902641166
0.42781853675842285,-0.25115716457366943,0.019289081916213036,2023-10-21T15:37:21.181441Z,1697902641181
0.44750669598579407,-0.24463877081871033,0.07861963659524918,2023-10-21T15:37:21.187123Z,1697902641187
0.46732789278030396,-0.23452863097190857,0.13928046822547913,2023-10-21T15:37:21.198091Z,1697902641198
0.4868830442428589,-0.22095976769924164,0.1992761790752411,2023-10-21T15:37:21.207382Z,1697902641207
0.5059060454368591,-0.20725786685943604,0.2567443251609802,2023-10-21T15:37:21.218478Z,1697902641218
0.5233327746391296,-0.19794589281082153,0.3099555969238281,2023-10-21T15:37:21.230616Z,1697902641230
0.5388970375061035,-0.19462019205093384,0.3578457236289978,2023-10-21T15:37:21.242369Z,1697902641242
0.5521998405456543,-0.1943541318178177,0.400015652179718,2023-10-21T15:37:21.247911Z,1697902641247
0.5629751682281494,-0.19235870242118835,0.43606626987457275,2023-10-21T15:37:21.258781Z,1697902641258
0.5708237886428833,-0.1859733611345291,0.46666276454925537,2023-10-21T15:37:21.268216Z,1697902641268
0.5754798054695129,-0.17519807815551758,0.49207112193107605,2023-10-21T15:37:21.281080Z,1697902641281
0.5761449337005615,-0.16162919998168945,0.5130895972251892,2023-10-21T15:37:21.288419Z,1697902641288
0.5729522705078125,-0.14845941960811615,0.5306493043899536,2023-10-21T15:37:21.299477Z,1697902641299
0.5659017562866211,-0.137285053730011,0.5448833107948303,2023-10-21T15:37:21.308611Z,1697902641308
0.5556585788726807,-0.12757399678230286,0.5560576915740967,2023-10-21T15:37:21.319858Z,1697902641319
0.5427548885345459,-0.11639963090419769,0.5637733340263367,2023-10-21T15:37:21.330673Z,1697902641330
0.5277226567268372,-0.10136745125055313,0.5680302381515503,2023-10-21T15:37:21.339849Z,1697902641339
0.5098969340324402,-0.08167928457260132,0.5685623288154602,2023-10-21T15:37:21.349272Z,1697902641349
0.4884793758392334,-0.05839935690164566,0.5649705529212952,2023-10-21T15:37:21.359968Z,1697902641359
0.4621398150920868,-0.03259189799427986,0.5571218729019165,2023-10-21T15:37:21.369540Z,1697902641369
0.4310111999511719,-0.004922041669487953,0.5448833107948303,2023-10-21T15:37:21.381013Z,1697902641380
0.39549270272254944,0.02354598231613636,0.5289199352264404,2023-10-21T15:37:21.389746Z,1697902641389
0.3571805953979492,0.05108281224966049,0.5094978213310242,2023-10-21T15:37:21.400806Z,1697902641400
0.31807032227516174,0.07609210163354874,0.48754817247390747,2023-10-21T15:37:21.409836Z,1697902641409
0.28068938851356506,0.0971105545759201,0.46400219202041626,2023-10-21T15:37:21.421115Z,1697902641421
0.24716630578041077,0.11147759109735489,0.43992409110069275,2023-10-21T15:37:21.430599Z,1697902641430
0.2189643383026123,0.11666569113731384,0.41584599018096924,2023-10-21T15:37:21.441099Z,1697902641441
0.19116145372390747,0.1081518903374672,0.37447425723075867,2023-10-21T15:37:21.450612Z,1697902641450
0.17160631716251373,0.09963808953762054,0.35106128454208374,2023-10-21T15:37:21.464253Z,1697902641464
0.1547117382287979,0.09245456755161285,0.33124008774757385,2023-10-21T15:37:21.470831Z,1697902641470
0.1322299838066101,0.07888569682836533,0.2828178405761719,2023-10-21T15:37:21.481807Z,1697902641481
0.10722068697214127,0.07994992285966873,0.26219847798347473,2023-10-21T15:37:21.491041Z,1697902641491
0.08606921136379242,0.08074808865785599,0.24463877081871033,2023-10-21T15:37:21.502267Z,1697902641502
0.03990844637155533,0.1081518903374672,0.1942211091518402,2023-10-21T15:37:21.513901Z,1697902641513
-0.027802884578704834,0.16402371227741241,0.13542266190052032,2023-10-21T15:37:21.522177Z,1697902641522
-0.08700041472911835,0.21470743417739868,0.07915174961090088,2023-10-21T15:37:21.531604Z,1697902641531
-0.14939060807228088,0.2781618535518646,0.021284503862261772,2023-10-21T15:37:21.542325Z,1697902641542
-0.21151475608348846,0.3523915708065033,-0.03764696791768074,2023-10-21T15:37:21.551911Z,1697902641551
-0.2699141204357147,0.43047910928726196,-0.09777569025754929,2023-10-21T15:37:21.564016Z,1697902641563
-0.322061151266098,0.5011170506477356,-0.15989984571933746,2023-10-21T15:37:21.572083Z,1697902641572
-0.36569440364837646,0.5541952848434448,-0.22534969449043274,2023-10-21T15:37:21.583136Z,1697902641583
-0.3985523581504822,0.5830624103546143,-0.29505643248558044,2023-10-21T15:37:21.592225Z,1697902641592
-0.41850656270980835,0.5830624103546143,-0.3692861497402191,2023-10-21T15:37:21.603492Z,1697902641603
-0.42449283599853516,0.5516677498817444,-0.4460434019565582,2023-10-21T15:37:21.613553Z,1697902641613
-0.4165111482143402,0.49047479033470154,-0.5213373303413391,2023-10-21T15:37:21.623423Z,1697902641623
-0.3956257104873657,0.40467163920402527,-0.589181661605835,2023-10-21T15:37:21.632931Z,1697902641632
-0.3632998764514923,0.30157482624053955,-0.6435902118682861,2023-10-21T15:37:21.647523Z,1697902641647
-0.3225932717323303,0.18916603922843933,-0.6789757013320923,2023-10-21T15:37:21.653200Z,1697902641653
-0.2760334014892578,0.07662421464920044,-0.6897509694099426,2023-10-21T15:37:21.664134Z,1697902641664
-0.22588180005550385,-0.02633957378566265,-0.6719251871109009,2023-10-21T15:37:21.673384Z,1697902641673
-0.17333568632602692,-0.11107850819826126,-0.6236359477043152,2023-10-21T15:37:21.684510Z,1697902641684
-0.12025745213031769,-0.17094117403030396,-0.5464796423912048,2023-10-21T15:37:21.697005Z,1697902641696
-0.06877555698156357,-0.2036661058664322,-0.44431403279304504,2023-10-21T15:37:21.704551Z,1697902641704
-0.021151475608348846,-0.21231293678283691,-0.322726309299469,2023-10-21T15:37:21.713956Z,1697902641713
0.021284503862261772,-0.20100553333759308,-0.18956512212753296,2023-10-21T15:37:21.724775Z,1697902641724
0.05773421749472618,-0.17373476922512054,-0.053211260586977005,2023-10-21T15:37:21.734306Z,1697902641734
0.08713343739509583,-0.13528962433338165,0.0779544934630394,2023-10-21T15:37:21.747207Z,1697902641747
0.1086840033531189,-0.09232153743505478,0.19688166677951813,2023-10-21T15:37:21.754459Z,1697902641754
0.1229180097579956,-0.05094978213310242,0.2990472912788391,2023-10-21T15:37:21.765530Z,1697902641765
0.13103273510932922,-0.01569732278585434,0.3819238245487213,2023-10-21T15:37:21.774710Z,1697902641774
0.1339593529701233,0.012105561792850494,0.44418099522590637,2023-10-21T15:37:21.785866Z,1697902641785
0.13316118717193604,0.03299098089337349,0.48595184087753296,2023-10-21T15:37:21.796810Z,1697902641796
0.1295694261789322,0.04762407764792442,0.5079014897346497,2023-10-21T15:37:21.805904Z,1697902641805
0.12371618300676346,0.05560576915740967,0.51096111536026,2023-10-21T15:37:21.815302Z,1697902641815
0.11506935209035873,0.05560576915740967,0.49712619185447693,2023-10-21T15:37:21.826003Z,1697902641825
0.10216562449932098,0.049752529710531235,0.4506993889808655,2023-10-21T15:37:21.835640Z,1697902641835
0.08739949762821198,0.04083964228630066,0.4099927544593811,2023-10-21T15:37:21.846944Z,1697902641846
0.07476182281970978,0.033124011009931564,0.3752724230289459,2023-10-21T15:37:21.855752Z,1697902641855
0.06385350972414017,0.028334995731711388,0.3204648196697235,2023-10-21T15:37:21.867004Z,1697902641866
0.031926754862070084,0.032458867877721786,0.24570299685001373,2023-10-21T15:37:21.875939Z,1697902641875
-0.010908308438956738,0.04589471220970154,0.15723927319049835,2023-10-21T15:37:21.887196Z,1697902641887
-0.045096542686223984,0.06398653984069824,0.0784866064786911,2023-10-21T15:37:21.896556Z,1697902641896
-0.08407378941774368,0.09085822850465775,-5.321126081980765E-4,2023-10-21T15:37:21.907319Z,1697902641907
-0.12690885365009308,0.12597766518592834,-0.07675724476575851,2023-10-21T15:37:21.916713Z,1697902641916
-0.17253752052783966,0.1678815335035324,-0.14739519357681274,2023-10-21T15:37:21.930531Z,1697902641930
-0.21816617250442505,0.21430835127830505,-0.2096523642539978,2023-10-21T15:37:21.936883Z,1697902641936
-0.2612673044204712,0.26472601294517517,-0.2608681917190552,2023-10-21T15:37:21.947881Z,1697902641947
-0.2990472912788391,0.3176712393760681,-0.29824912548065186,2023-10-21T15:37:21.957106Z,1697902641957
-0.32951071858406067,0.3699512779712677,-0.32019877433776855,2023-10-21T15:37:21.968202Z,1697902641968
-0.34986403584480286,0.41677719354629517,-0.3260520100593567,2023-10-21T15:37:21.980163Z,1697902641980
-0.3579787611961365,0.4532269239425659,-0.3160748779773712,2023-10-21T15:37:21.988263Z,1697902641988
-0.351859450340271,0.4746444523334503,-0.2914646863937378,2023-10-21T15:37:21.997654Z,1697902641997
-0.3313731253147125,0.47730499505996704,-0.2552810311317444,2023-10-21T15:37:22.008502Z,1697902642008
-0.2981160879135132,0.45974528789520264,-0.21164779365062714,2023-10-21T15:37:22.017966Z,1697902642017
-0.2580746114253998,0.4131854474544525,-0.17479899525642395,2023-10-21T15:37:22.030555Z,1697902642030
-0.22042764723300934,0.3527906537055969,-0.1492575854063034,2023-10-21T15:37:22.038152Z,1697902642038
-0.16349159181118011,0.303437203168869,-0.09750963747501373,2023-10-21T15:37:22.049205Z,1697902642049
-0.10163351148366928,0.25168925523757935,-0.0433671772480011,2023-10-21T15:37:22.058362Z,1697902642058
-0.07343153655529022,0.20539546012878418,-0.02727077156305313,2023-10-21T15:37:22.069532Z,1697902642069
-0.03857816383242607,0.15617504715919495,-0.01223859004676342,2023-10-21T15:37:22.079940Z,1697902642079
-0.008779858238995075,0.1141381561756134,5.321126081980765E-4,2023-10-21T15:37:22.089560Z,1697902642089
0.013701899908483028,0.07117006182670593,0.001064225216396153,2023-10-21T15:37:22.099186Z,1697902642099
0.04416534677147865,0.015830349177122116,-1.3302815204951912E-4,2023-10-21T15:37:22.109742Z,1697902642109
0.0609268918633461,-0.027536828070878983,-0.004389929119497538,2023-10-21T15:37:22.119285Z,1697902642119
0.07675724476575851,-0.07223428785800934,-0.009311970323324203,2023-10-21T15:37:22.130349Z,1697902642130
0.09032611548900604,-0.11506935209035873,-0.015431265346705914,2023-10-21T15:37:22.139461Z,1697902642139
0.09857386350631714,-0.15085391700267792,-0.024344151839613914,2023-10-21T15:37:22.150649Z,1697902642150
0.09857386350631714,-0.17306962609291077,-0.03817908093333244,2023-10-21T15:37:22.163342Z,1697902642163
0.08806463330984116,-0.17799167335033417,-0.058266330510377884,2023-10-21T15:37:22.170674Z,1697902642170
0.0740966796875,-0.162959486246109,-0.06491773575544357,2023-10-21T15:37:22.179978Z,1697902642179
0.040041472762823105,-0.13289512693881989,-0.10189956426620483,2023-10-21T15:37:22.190898Z,1697902642190
-0.009844083338975906,-0.09045914560556412,-0.16216132044792175,2023-10-21T15:37:22.200348Z,1697902642200
-0.053876399993896484,-0.03644971549510956,-0.19767983257770538,2023-10-21T15:37:22.213798Z,1697902642213
-0.0965784415602684,0.021550560370087624,-0.22987264394760132,2023-10-21T15:37:22.220606Z,1697902642220
-0.13356027007102966,0.07915174961090088,-0.25541403889656067,2023-10-21T15:37:22.231608Z,1697902642231
-0.16069801151752472,0.13249604403972626,-0.2723086178302765,2023-10-21T15:37:22.240750Z,1697902642240
-0.1755971610546112,0.17573018372058868,-0.2800242602825165,2023-10-21T15:37:22.251976Z,1697902642251
-0.1767944097518921,0.2036661058664322,-0.2793591320514679,2023-10-21T15:37:22.263286Z,1697902642263
-0.16389068961143494,0.21643680334091187,-0.2717765271663666,2023-10-21T15:37:22.271966Z,1697902642271
-0.13808321952819824,0.21763405203819275,-0.25940489768981934,2023-10-21T15:37:22.281351Z,1697902642281
-0.10176653414964676,0.20925328135490417,-0.24463877081871033,2023-10-21T15:37:22.292145Z,1697902642292
-0.05813330411911011,0.19169357419013977,-0.23067080974578857,2023-10-21T15:37:22.301663Z,1697902642301
-0.010243168100714684,0.16562004387378693,-0.22095976769924164,2023-10-21T15:37:22.313693Z,1697902642313
0.039110276848077774,0.13249604403972626,-0.21869827806949615,2023-10-21T15:37:22.321807Z,1697902642321
0.0877985805273056,0.09311970323324203,-0.22574877738952637,2023-10-21T15:37:22.332911Z,1697902642332
0.13356027007102966,0.048821330070495605,-0.2421112358570099,2023-10-21T15:37:22.342061Z,1697902642342
0.17439991235733032,0.0017293660202994943,-0.266588419675827,2023-10-21T15:37:22.353369Z,1697902642353
0.20885419845581055,-0.044697459787130356,-0.29651975631713867,2023-10-21T15:37:22.363423Z,1697902642363
0.23572587966918945,-0.08460590243339539,-0.32951071858406067,2023-10-21T15:37:22.373243Z,1697902642373
0.2551479935646057,-0.11294090002775192,-0.3626347482204437,2023-10-21T15:37:22.382686Z,1697902642382
0.26645538210868835,-0.1283721625804901,-0.3941624164581299,2023-10-21T15:37:22.396942Z,1697902642396
0.2699141204357147,-0.13515660166740417,-0.42302951216697693,2023-10-21T15:37:22.402964Z,1697902642402
0.2660562992095947,-0.1378171592950821,-0.44843789935112,2023-10-21T15:37:22.414117Z,1697902642414
0.25701040029525757,-0.13874836266040802,-0.47012150287628174,2023-10-21T15:37:22.423184Z,1697902642423
0.24556997418403625,-0.1388813853263855,-0.48754817247390747,2023-10-21T15:37:22.434289Z,1697902642434
0.2338634878396988,-0.13901442289352417,-0.5003188848495483,2023-10-21T15:37:22.446406Z,1697902642446
0.22362032532691956,-0.14061075448989868,-0.5080345273017883,2023-10-21T15:37:22.454368Z,1697902642454
0.2163037806749344,-0.1460649073123932,-0.5102959871292114,2023-10-21T15:37:22.463748Z,1697902642463
0.21284504234790802,-0.15710625052452087,-0.5064381957054138,2023-10-21T15:37:22.474596Z,1697902642474
0.21377624571323395,-0.17519807815551758,-0.49646106362342834,2023-10-21T15:37:22.484049Z,1697902642484
0.21923039853572845,-0.20020736753940582,-0.4802316427230835,2023-10-21T15:37:22.496911Z,1697902642496
0.22840933501720428,-0.23067080974578857,-0.45854803919792175,2023-10-21T15:37:22.504262Z,1697902642504
0.24024884402751923,-0.26379483938217163,-0.4318093955516815,2023-10-21T15:37:22.515295Z,1697902642515
0.25328558683395386,-0.29665279388427734,-0.400015652179718,2023-10-21T15:37:22.524467Z,1697902642524
0.26579025387763977,-0.32685017585754395,-0.36369895935058594,2023-10-21T15:37:22.535636Z,1697902642535
0.2755013108253479,-0.35146036744117737,-0.3239235579967499,2023-10-21T15:37:22.546275Z,1697902642546
0.28082242608070374,-0.3687540292739868,-0.2820196747779846,2023-10-21T15:37:22.555631Z,1697902642555
0.28029030561447144,-0.377533882856369,-0.23958370089530945,2023-10-21T15:37:22.565062Z,1697902642565
0.27297377586364746,-0.3764696717262268,-0.198078915476799,2023-10-21T15:37:22.575827Z,1697902642575
0.259537935256958,-0.36303383111953735,-0.1580374389886856,2023-10-21T15:37:22.585351Z,1697902642585
0.23306532204151154,-0.3271162211894989,-0.1283721625804901,2023-10-21T15:37:22.596812Z,1697902642596
0.21324412524700165,-0.29173073172569275,-0.09032611548900604,2023-10-21T15:37:22.605551Z,1697902642605
0.19621652364730835,-0.26153334975242615,-0.05800027400255203,2023-10-21T15:37:22.616647Z,1697902642616
0.17586322128772736,-0.2244184911251068,-0.021816616877913475,2023-10-21T15:37:22.625739Z,1697902642625
0.15843652188777924,-0.19275778532028198,0.008912886492908001,2023-10-21T15:37:22.636938Z,1697902642636
0.14300526678562164,-0.1750650554895401,0.03764696791768074,2023-10-21T15:37:22.646183Z,1697902642646
0.133427232503891,-0.17267054319381714,0.07569301873445511,2023-10-21T15:37:22.656894Z,1697902642656
0.11866111308336258,-0.17652836441993713,0.0883306935429573,2023-10-21T15:37:22.666494Z,1697902642666
0.10083533823490143,-0.18584032356739044,0.09152337163686752,2023-10-21T15:37:22.679961Z,1697902642679
0.08433984965085983,-0.1773265302181244,0.08407378941774368,2023-10-21T15:37:22.686660Z,1697902642686
0.05587182566523552,-0.18012011051177979,0.07316548377275467,2023-10-21T15:37:22.697652Z,1697902642697
0.031527671962976456,-0.18251462280750275,0.06385350972414017,2023-10-21T15:37:22.706849Z,1697902642706
-0.003325703786686063,-0.1602989286184311,0.053876399993896484,2023-10-21T15:37:22.717963Z,1697902642717
-0.03325703740119934,-0.14127589762210846,0.045362599194049835,2023-10-21T15:37:22.729347Z,1697902642729
-0.06278929114341736,-0.11320696026086807,0.049752529710531235,2023-10-21T15:37:22.737975Z,1697902642737
-0.10243167728185654,-0.08567012846469879,0.06811041384935379,2023-10-21T15:37:22.747476Z,1697902642747
-0.11294090002775192,-0.06784436106681824,0.09378484636545181,2023-10-21T15:37:22.758204Z,1697902642758
-0.11440420895814896,-0.05773421749472618,0.1301015317440033,2023-10-21T15:37:22.767719Z,1697902642767
-0.10748674720525742,-0.05587182566523552,0.1773265302181244,2023-10-21T15:37:22.779869Z,1697902642779
-0.095514215528965,-0.057601191103458405,0.2354598343372345,2023-10-21T15:37:22.787954Z,1697902642787
-0.08167928457260132,-0.053211260586977005,0.303437203168869,2023-10-21T15:37:22.799046Z,1697902642799
-0.07063794881105423,-0.032458867877721786,0.37793296575546265,2023-10-21T15:37:22.808087Z,1697902642808
-0.0658489316701889,0.011174364946782589,0.4549562931060791,2023-10-21T15:37:22.819335Z,1697902642819
-0.07010583579540253,0.0784866064786911,0.529585063457489,2023-10-21T15:37:22.829453Z,1697902642829
-0.08433984965085983,0.16482187807559967,0.597296416759491,2023-10-21T15:37:22.839316Z,1697902642839
-0.10788583010435104,0.26273059844970703,0.6535673141479492,2023-10-21T15:37:22.848961Z,1697902642848
-0.1399456113576889,0.3639650344848633,0.6933427453041077,2023-10-21T15:37:22.859449Z,1697902642859
-0.1783907562494278,0.4588140845298767,0.7124987840652466,2023-10-21T15:37:22.869044Z,1697902642869
-0.22095976769924164,0.5379658341407776,0.7079758048057556,2023-10-21T15:37:22.879962Z,1697902642879
-0.2644599676132202,0.5942367315292358,0.6793747544288635,2023-10-21T15:37:22.889212Z,1697902642889
-0.30556565523147583,0.6256313920021057,0.6288240551948547,2023-10-21T15:37:22.900383Z,1697902642900
-0.34108418226242065,0.633613109588623,0.5625760555267334,2023-10-21T15:37:22.912831Z,1697902642912
-0.3682219386100769,0.6200442314147949,0.48874542117118835,2023-10-21T15:37:22.920384Z,1697902642920
-0.3848504424095154,0.5867871642112732,0.41624507308006287,2023-10-21T15:37:22.929805Z,1697902642929
-0.3897724747657776,0.5367686152458191,0.3534558117389679,2023-10-21T15:37:22.940626Z,1697902642940
-0.36090537905693054,0.470919668674469,0.30157482624053955,2023-10-21T15:37:22.950122Z,1697902642950
-0.34720346331596375,0.40374043583869934,0.27696460485458374,2023-10-21T15:37:22.963239Z,1697902642963
-0.3462722897529602,0.34001997113227844,0.281620591878891,2023-10-21T15:37:22.970303Z,1697902642970
-0.3123500943183899,0.27590039372444153,0.3023729920387268,2023-10-21T15:37:22.981305Z,1697902642981
-0.27470314502716064,0.21869827806949615,0.34001997113227844,2023-10-21T15:37:22.990507Z,1697902642990
-0.2359919399023056,0.16867969930171967,0.389107346534729,2023-10-21T15:37:23.001652Z,1697902643001
-0.19821195304393768,0.12504646182060242,0.44378191232681274,2023-10-21T15:37:23.012714Z,1697902643012
-0.162959486246109,0.08753252774477005,0.4988555610179901,2023-10-21T15:37:23.021655Z,1697902643021
-0.13143181800842285,0.055738795548677444,0.5503374934196472,2023-10-21T15:37:23.031113Z,1697902643031
-0.10456012934446335,0.029000137001276016,0.5950348973274231,2023-10-21T15:37:23.041816Z,1697902643041
-0.08247745782136917,0.0065183793194592,0.6305534243583679,2023-10-21T15:37:23.051422Z,1697902643051
-0.06518379598855972,-0.012770703062415123,0.6552966833114624,2023-10-21T15:37:23.063207Z,1697902643063
-0.05174795165657997,-0.029665278270840645,0.6688655614852905,2023-10-21T15:37:23.071632Z,1697902643071
-0.041637811809778214,-0.04576168581843376,0.6717921495437622,2023-10-21T15:37:23.082850Z,1697902643082
-0.03418823331594467,-0.06265626102685928,0.6654068231582642,2023-10-21T15:37:23.091728Z,1697902643091
-0.02860105223953724,-0.08141323179006577,0.6510397791862488,2023-10-21T15:37:23.103115Z,1697902643103
-0.023945067077875137,-0.10256470739841461,0.630021333694458,2023-10-21T15:37:23.112720Z,1697902643112
-0.020220279693603516,-0.12717491388320923,0.6035487055778503,2023-10-21T15:37:23.122984Z,1697902643122
-0.01755971647799015,-0.15511082112789154,0.5722870826721191,2023-10-21T15:37:23.132544Z,1697902643132
-0.016229433938860893,-0.18464307487010956,0.5363695025444031,2023-10-21T15:37:23.146748Z,1697902643146
-0.01636246219277382,-0.21204687654972076,0.49539685249328613,2023-10-21T15:37:23.152771Z,1697902643152
-0.01915605366230011,-0.23412954807281494,0.4488369822502136,2023-10-21T15:37:23.163980Z,1697902643163
-0.026206545531749725,-0.2480975091457367,0.3966899514198303,2023-10-21T15:37:23.172932Z,1697902643172
-0.02886710874736309,-0.23426257073879242,0.34228143095970154,2023-10-21T15:37:23.184077Z,1697902643184
-0.051348865032196045,-0.22840933501720428,0.2826848328113556,2023-10-21T15:37:23.196041Z,1697902643196
-0.07063794881105423,-0.2233542650938034,0.23173503577709198,2023-10-21T15:37:23.204067Z,1697902643204
-0.10628949105739594,-0.18756969273090363,0.17639532685279846,2023-10-21T15:37:23.213500Z,1697902643213
-0.16548702120780945,-0.14367040991783142,0.11719780415296555,2023-10-21T15:37:23.224319Z,1697902643224
-0.20167067646980286,-0.09019308537244797,0.07635816186666489,2023-10-21T15:37:23.233808Z,1697902643233
-0.23732222616672516,-0.03525245934724808,0.04070661589503288,2023-10-21T15:37:23.246329Z,1697902643246
-0.27084532380104065,0.014367040246725082,0.009045914746820927,2023-10-21T15:37:23.253996Z,1697902643253
-0.29997849464416504,0.053477317094802856,-0.020885419100522995,2023-10-21T15:37:23.265024Z,1697902643264
-0.32299235463142395,0.0784866064786911,-0.05148189514875412,2023-10-21T15:37:23.274209Z,1697902643274
-0.3392217755317688,0.08806463330984116,-0.08513801544904709,2023-10-21T15:37:23.285392Z,1697902643285
-0.34773558378219604,0.0795508325099945,-0.12345012277364731,2023-10-21T15:37:23.295657Z,1697902643295
-0.3478686213493347,0.04802316427230835,-0.16641822457313538,2023-10-21T15:37:23.305402Z,1697902643305
-0.3386896848678589,-0.008912886492908001,-0.21430835127830505,2023-10-21T15:37:23.314830Z,1697902643314
-0.32033178210258484,-0.0883306935429573,-0.26632237434387207,2023-10-21T15:37:23.329621Z,1697902643329
-0.29452434182167053,-0.18304674327373505,-0.3209969401359558,2023-10-21T15:37:23.335318Z,1697902643335
-0.26472601294517517,-0.28507933020591736,-0.3760705888271332,2023-10-21T15:37:23.346334Z,1697902643346
-0.23585891723632812,-0.38657981157302856,-0.42835065722465515,2023-10-21T15:37:23.355311Z,1697902643355
-0.21178081631660461,-0.4795664846897125,-0.4746444523334503,2023-10-21T15:37:23.366515Z,1697902643366
