GYR_X,GYR_Y,GYR_Z,DATE,UNIX_TIMESTAMP
-0.003059647511690855,-0.0038578163366764784,-0.004389929119497538,2023-10-21T15:34:54.343620Z,1697902494343
0.003325703786686063,-0.0019954221788793802,-0.0037247883155941963,2023-10-21T15:34:54.364357Z,1697902494364
-5.321126081980765E-4,0.0047890134155750275,0.004123872611671686,2023-10-21T15:34:54.373434Z,1697902494373
-0.003325703786686063,0.0026605629827827215,-0.0031926757656037807,2023-10-21T15:34:54.383982Z,1697902494383
0.0023945067077875137,0.0034587320405989885,-7.981689414009452E-4,2023-10-21T15:34:54.393514Z,1697902494393
-0.0031926757656037807,0.003059647511690855,-0.003059647511690855,2023-10-21T15:34:54.404260Z,1697902494404
-0.0039908443577587605,3.990844707004726E-4,-5.321126081980765E-4,2023-10-21T15:34:54.415660Z,1697902494415
-0.0027935912366956472,-0.0014633096288889647,0.0035917600616812706,2023-10-21T15:34:54.424560Z,1697902494424
-0.0023945067077875137,0.0019954221788793802,-0.004922041669487953,2023-10-21T15:34:54.434122Z,1697902494434
0.004655985161662102,0.004922041669487953,-0.0037247883155941963,2023-10-21T15:34:54.445026Z,1697902494445
0.0034587320405989885,0.0014633096288889647,0.0034587320405989885,2023-10-21T15:34:54.454492Z,1697902494454
-0.003325703786686063,-0.004123872611671686,-0.0027935912366956472,2023-10-21T15:34:54.466964Z,1697902494466
9.311970788985491E-4,0.0022614786867052317,-0.0022614786867052317,2023-10-21T15:34:54.474759Z,1697902494474
0.0047890134155750275,-0.0013302814913913608,-0.0023945067077875137,2023-10-21T15:34:54.485660Z,1697902494485
-0.001064225216396153,0.002128450432792306,-0.004922041669487953,2023-10-21T15:34:54.494912Z,1697902494494
-0.0038578163366764784,6.651407456956804E-4,0.0011972533538937569,2023-10-21T15:34:54.505971Z,1697902494505
0.0025275349617004395,3.990844707004726E-4,0.0039908443577587605,2023-10-21T15:34:54.516472Z,1697902494516
-0.0027935912366956472,0.004389929119497538,0.0027935912366956472,2023-10-21T15:34:54.526067Z,1697902494526
0.003325703786686063,0.004123872611671686,-6.651407456956804E-4,2023-10-21T15:34:54.535593Z,1697902494535
-0.0034587320405989885,0.0022614786867052317,0.0027935912366956472,2023-10-21T15:34:54.546125Z,1697902494546
0.0035917600616812706,-0.004256900865584612,-0.0034587320405989885,2023-10-21T15:34:54.555767Z,1697902494555
7.981689414009452E-4,0.0017293660202994943,-0.0047890134155750275,2023-10-21T15:34:54.566890Z,1697902494566
0.0015963378828018904,-0.004655985161662102,0.0047890134155750275,2023-10-21T15:34:54.575951Z,1697902494575
-3.990844707004726E-4,0.0029266192577779293,0.0029266192577779293,2023-10-21T15:34:54.587057Z,1697902494586
0.0019954221788793802,-0.0018623941577970982,6.651407456956804E-4,2023-10-21T15:34:54.596134Z,1697902494596
0.0031926757656037807,-0.004655985161662102,-0.0015963378828018904,2023-10-21T15:34:54.607403Z,1697902494607
-9.311970788985491E-4,0.0,0.0015963378828018904,2023-10-21T15:34:54.616552Z,1697902494616
-0.0013302814913913608,0.0039908443577587605,-2.6605630409903824E-4,2023-10-21T15:34:54.627344Z,1697902494627
0.0029266192577779293,-0.003059647511690855,0.0013302814913913608,2023-10-21T15:34:54.636851Z,1697902494636
-0.0015963378828018904,0.0,0.003325703786686063,2023-10-21T15:34:54.650345Z,1697902494650
0.0013302814913913608,-0.0022614786867052317,-0.0047890134155750275,2023-10-21T15:34:54.657101Z,1697902494657
-0.0023945067077875137,-0.0047890134155750275,-0.0039908443577587605,2023-10-21T15:34:54.668054Z,1697902494668
-0.0019954221788793802,-0.001064225216396153,0.0037247883155941963,2023-10-21T15:34:54.677325Z,1697902494677
-0.001064225216396153,0.004922041669487953,-0.0017293660202994943,2023-10-21T15:34:54.688426Z,1697902494688
-0.0014633096288889647,5.321126081980765E-4,9.311970788985491E-4,2023-10-21T15:34:54.699615Z,1697902494699
7.981689414009452E-4,0.001064225216396153,-0.0029266192577779293,2023-10-21T15:34:54.708484Z,1697902494708
-0.0027935912366956472,-0.004922041669487953,0.0018623941577970982,2023-10-21T15:34:54.717883Z,1697902494717
-0.0011972533538937569,-3.990844707004726E-4,0.003059647511690855,2023-10-21T15:34:54.728708Z,1697902494728
-0.001064225216396153,-0.0019954221788793802,0.0038578163366764784,2023-10-21T15:34:54.738208Z,1697902494738
3.990844707004726E-4,0.0027935912366956472,-0.0018623941577970982,2023-10-21T15:34:54.750192Z,1697902494750
0.0013302814913913608,0.004522957373410463,0.0037247883155941963,2023-10-21T15:34:54.758342Z,1697902494758
1.3302815204951912E-4,0.004123872611671686,-0.0011972533538937569,2023-10-21T15:34:54.769454Z,1697902494769
-0.0013302814913913608,-0.004522957373410463,-0.0039908443577587605,2023-10-21T15:34:54.778552Z,1697902494778
-0.0039908443577587605,-0.0025275349617004395,-0.0011972533538937569,2023-10-21T15:34:54.789790Z,1697902494789
-0.004922041669487953,0.0027935912366956472,0.0014633096288889647,2023-10-21T15:34:54.799502Z,1697902494799
0.0026605629827827215,0.0017293660202994943,-6.651407456956804E-4,2023-10-21T15:34:54.809763Z,1697902494809
0.0037247883155941963,0.002128450432792306,-0.0023945067077875137,2023-10-21T15:34:54.819141Z,1697902494819
0.0027935912366956472,0.0011972533538937569,0.001064225216396153,2023-10-21T15:34:54.833458Z,1697902494833
-0.004655985161662102,7.981689414009452E-4,0.0023945067077875137,2023-10-21T15:34:54.839493Z,1697902494839
0.0037247883155941963,0.0035917600616812706,-0.003059647511690855,2023-10-21T15:34:54.850440Z,1697902494850
0.0018623941577970982,0.0047890134155750275,0.0039908443577587605,2023-10-21T15:34:54.859715Z,1697902494859
-2.6605630409903824E-4,-0.004256900865584612,-0.004922041669487953,2023-10-21T15:34:54.870802Z,1697902494870
-6.651407456956804E-4,9.311970788985491E-4,0.0017293660202994943,2023-10-21T15:34:54.882664Z,1697902494882
-0.0019954221788793802,0.0,-9.311970788985491E-4,2023-10-21T15:34:54.890847Z,1697902494890
-0.003325703786686063,-0.0018623941577970982,0.001064225216396153,2023-10-21T15:34:54.900256Z,1697902494900
0.0031926757656037807,-0.004655985161662102,-6.651407456956804E-4,2023-10-21T15:34:54.911083Z,1697902494911
-0.0017293660202994943,0.0018623941577970982,0.0029266192577779293,2023-10-21T15:34:54.920585Z,1697902494920
0.0025275349617004395,-0.001064225216396153,0.0022614786867052317,2023-10-21T15:34:54.933324Z,1697902494933
-0.0011972533538937569,-6.651407456956804E-4,0.0014633096288889647,2023-10-21T15:34:54.940798Z,1697902494940
0.0013302814913913608,-0.004123872611671686,-9.311970788985491E-4,2023-10-21T15:34:54.951788Z,1697902494951
1.3302815204951912E-4,0.004123872611671686,-0.0017293660202994943,2023-10-21T15:34:54.960923Z,1697902494960
-0.0029266192577779293,0.0047890134155750275,-0.004389929119497538,2023-10-21T15:34:54.972098Z,1697902494972
7.981689414009452E-4,-0.0026605629827827215,-0.0029266192577779293,2023-10-21T15:34:54.982614Z,1697902494982
-0.004123872611671686,0.0031926757656037807,0.0027935912366956472,2023-10-21T15:34:54.992146Z,1697902494992
-0.0037247883155941963,-3.990844707004726E-4,3.990844707004726E-4,2023-10-21T15:34:55.001605Z,1697902495001
0.0037247883155941963,-0.004389929119497538,0.0023945067077875137,2023-10-21T15:34:55.012240Z,1697902495012
-1.3302815204951912E-4,-0.0038578163366764784,0.0019954221788793802,2023-10-21T15:34:55.021886Z,1697902495021
-0.0014633096288889647,-0.0013302814913913608,-0.001064225216396153,2023-10-21T15:34:55.033334Z,1697902495033
0.001064225216396153,-0.004522957373410463,7.981689414009452E-4,2023-10-21T15:34:55.042093Z,1697902495041
-1.3302815204951912E-4,-0.0025275349617004395,0.004123872611671686,2023-10-21T15:34:55.053202Z,1697902495053
0.06185809150338173,-0.1936889886856079,-0.009977111592888832,2023-10-21T15:34:55.062212Z,1697902495062
0.05746816098690033,-0.19195961952209473,-0.005986266769468784,2023-10-21T15:34:55.073460Z,1697902495073
0.05108281224966049,-0.18477609753608704,1.3302815204951912E-4,2023-10-21T15:34:55.083451Z,1697902495083
0.04562865570187569,-0.17865680158138275,0.005454154219478369,2023-10-21T15:34:55.093493Z,1697902495093
0.03857816383242607,-0.16841363906860352,0.013834928162395954,2023-10-21T15:34:55.102868Z,1697902495102
0.03259189799427986,-0.15950074791908264,0.02101844735443592,2023-10-21T15:34:55.117228Z,1697902495117
0.027802884578704834,-0.13622082769870758,0.017958801239728928,2023-10-21T15:34:55.123147Z,1697902495123
0.018756968900561333,-0.12398223578929901,0.03352309390902519,2023-10-21T15:34:55.134341Z,1697902495134
0.011174364946782589,-0.1136060431599617,0.04669288173317909,2023-10-21T15:34:55.143369Z,1697902495143
0.00944499857723713,-0.09697752445936203,0.03990844637155533,2023-10-21T15:34:55.154580Z,1697902495154
0.008114716969430447,-0.0828765407204628,0.034055206924676895,2023-10-21T15:34:55.166389Z,1697902495166
-0.013169786892831326,-0.07236731797456741,0.04203689470887184,2023-10-21T15:34:55.174588Z,1697902495174
-0.031261615455150604,-0.06345442682504654,0.04895436018705368,2023-10-21T15:34:55.183932Z,1697902495183
-0.026738658547401428,-0.054142456501722336,0.04177083820104599,2023-10-21T15:34:55.194765Z,1697902495194
-0.045096542686223984,-0.07569301873445511,0.027536828070878983,2023-10-21T15:34:55.204217Z,1697902495204
-0.06079386547207832,-0.09391787648200989,0.015298237092792988,2023-10-21T15:34:55.216936Z,1697902495216
-0.06611499190330505,-0.11121153831481934,0.0027935912366956472,2023-10-21T15:34:55.224476Z,1697902495224
-0.07582604885101318,-0.14313828945159912,-0.013169786892831326,2023-10-21T15:34:55.235566Z,1697902495235
-0.07449576258659363,-0.15723927319049835,-0.021816616877913475,2023-10-21T15:34:55.244562Z,1697902495244
-0.07223428785800934,-0.1712072342634201,-0.02886710874736309,2023-10-21T15:34:55.255832Z,1697902495255
-0.0697067528963089,-0.18464307487010956,-0.03392218053340912,2023-10-21T15:34:55.266170Z,1697902495266
-0.06717921793460846,-0.19661560654640198,-0.03738091140985489,2023-10-21T15:34:55.275891Z,1697902495275
-0.06425260007381439,-0.20645968616008759,-0.039376333355903625,2023-10-21T15:34:55.285269Z,1697902495285
-0.06079386547207832,-0.21417532861232758,-0.04017450287938118,2023-10-21T15:34:55.300143Z,1697902495300
-0.05733513459563255,-0.22082673013210297,-0.03964238986372948,2023-10-21T15:34:55.305530Z,1697902495305
-0.051614921540021896,-0.20765694975852966,-0.03618365898728371,2023-10-21T15:34:55.316724Z,1697902495316
-0.04988555610179901,-0.2163037806749344,-0.032192811369895935,2023-10-21T15:34:55.325717Z,1697902495325
-0.04842224717140198,-0.22362032532691956,-0.02886710874736309,2023-10-21T15:34:55.336511Z,1697902495336
-0.04429837316274643,-0.22681300342082977,-0.01888999715447426,2023-10-21T15:34:55.349884Z,1697902495349
-0.04083964228630066,-0.22960658371448517,-0.010243168100714684,2023-10-21T15:34:55.356793Z,1697902495356
-0.03432126343250275,-0.2233542650938034,0.00572021072730422,2023-10-21T15:34:55.367880Z,1697902495367
-0.02727077156305313,-0.2294735610485077,0.030197391286492348,2023-10-21T15:34:55.377230Z,1697902495377
-0.02075239084661007,-0.21710194647312164,0.04908738657832146,2023-10-21T15:34:55.386554Z,1697902495386
-0.01662851870059967,-0.19528532028198242,0.05440851300954819,2023-10-21T15:34:55.398909Z,1697902495398
-0.014234011992812157,-0.17692744731903076,0.07236731797456741,2023-10-21T15:34:55.406834Z,1697902495406
-0.01223859004676342,-0.1613631546497345,0.08766555041074753,2023-10-21T15:34:55.417865Z,1697902495417
-0.01556429360061884,-0.1416749805212021,0.09923899918794632,2023-10-21T15:34:55.427086Z,1697902495427
-0.018357884138822556,-0.12491343170404434,0.1092161163687706,2023-10-21T15:34:55.438327Z,1697902495438
-0.026605630293488503,-0.11067942529916763,0.11387209594249725,2023-10-21T15:34:55.450211Z,1697902495450
-0.03352309390902519,-0.09857386350631714,0.11786293983459473,2023-10-21T15:34:55.458313Z,1697902495458
-0.04363323375582695,-0.09617935121059418,0.11719780415296555,2023-10-21T15:34:55.467619Z,1697902495467
-0.0521470345556736,-0.09405090659856796,0.11666569113731384,2023-10-21T15:34:55.478380Z,1697902495478
-0.06066083908081055,-0.10216562449932098,0.11147759109735489,2023-10-21T15:34:55.487926Z,1697902495487
-0.06784436106681824,-0.1092161163687706,0.10708766430616379,2023-10-21T15:34:55.500088Z,1697902495500
-0.07196822762489319,-0.11759688705205917,0.09857386350631714,2023-10-21T15:34:55.508133Z,1697902495508
-0.07555998861789703,-0.12478040903806686,0.09139034152030945,2023-10-21T15:34:55.519240Z,1697902495519
-0.0784866064786911,-0.1366199105978012,0.08154625445604324,2023-10-21T15:34:55.528237Z,1697902495528
-0.08101414144039154,-0.14673005044460297,0.0730324536561966,2023-10-21T15:34:55.539548Z,1697902495539
-0.08460590243339539,-0.15950074791908264,0.06398653984069824,2023-10-21T15:34:55.549490Z,1697902495549
-0.0877985805273056,-0.17027603089809418,0.05613787844777107,2023-10-21T15:34:55.559578Z,1697902495559
-0.091656394302845,-0.17333568632602692,0.04988555610179901,2023-10-21T15:34:55.568961Z,1697902495568
-0.0949821025133133,-0.17599624395370483,0.044431403279304504,2023-10-21T15:34:55.579738Z,1697902495579
-0.0993720293045044,-0.1745329350233078,0.0395093597471714,2023-10-21T15:34:55.589221Z,1697902495589
-0.10309682041406631,-0.17306962609291077,0.03525245934724808,2023-10-21T15:34:55.600244Z,1697902495600
-0.10748674720525742,-0.17267054319381714,0.03046344593167305,2023-10-21T15:34:55.609369Z,1697902495609
-0.11121153831481934,-0.172404482960701,0.02633957378566265,2023-10-21T15:34:55.620565Z,1697902495620
-0.11639963090419769,-0.17639532685279846,0.021284503862261772,2023-10-21T15:34:55.632568Z,1697902495632
-0.12078956514596939,-0.17985406517982483,0.016894575208425522,2023-10-21T15:34:55.640613Z,1697902495640
-0.12690885365009308,-0.18903300166130066,0.010243168100714684,2023-10-21T15:34:55.649970Z,1697902495649
-0.1322299838066101,-0.1970146894454956,0.004655985161662102,2023-10-21T15:34:55.660778Z,1697902495660
-0.1371520310640335,-0.20340004563331604,-0.0026605629827827215,2023-10-21T15:34:55.670317Z,1697902495670
-0.1415419578552246,-0.20885419845581055,-0.008779858238995075,2023-10-21T15:34:55.683124Z,1697902495683
-0.14340434968471527,-0.21324412524700165,-0.014899153262376785,2023-10-21T15:34:55.690520Z,1697902495690
-0.15550990402698517,-0.23559285700321198,-0.02327992580831051,2023-10-21T15:34:55.701575Z,1697902495701
-0.15324842929840088,-0.2387855350971222,-0.025807460770010948,2023-10-21T15:34:55.710650Z,1697902495710
-0.1410098373889923,-0.2228221595287323,-0.024876264855265617,2023-10-21T15:34:55.721887Z,1697902495721
-0.14127589762210846,-0.22801025211811066,-0.02540837787091732,2023-10-21T15:34:55.732519Z,1697902495732
-0.14140892028808594,-0.23240017890930176,-0.025807460770010948,2023-10-21T15:34:55.741873Z,1697902495741
-0.14034469425678253,-0.23359742760658264,-0.02447718009352684,2023-10-21T15:34:55.751297Z,1697902495751
-0.13954652845859528,-0.23452863097190857,-0.02327992580831051,2023-10-21T15:34:55.761992Z,1697902495761
-0.13821625709533691,-0.233198344707489,-0.022348729893565178,2023-10-21T15:34:55.771618Z,1697902495771
-0.13701899349689484,-0.2321341186761856,-0.021550560370087624,2023-10-21T15:34:55.782986Z,1697902495782
-0.137285053730011,-0.23572587966918945,-0.019954223185777664,2023-10-21T15:34:55.791728Z,1697902495791
-0.148193359375,-0.2591388523578644,-0.01755971647799015,2023-10-21T15:34:55.802938Z,1697902495802
-0.14832639694213867,-0.25927186012268066,-0.011839505285024643,2023-10-21T15:34:55.811985Z,1697902495811
-0.13768413662910461,-0.23918461799621582,-0.007715632673352957,2023-10-21T15:34:55.823228Z,1697902495823
-0.14140892028808594,-0.22654694318771362,0.0029266192577779293,2023-10-21T15:34:55.832479Z,1697902495832
-0.14460159838199615,-0.2156386375427246,0.011972533538937569,2023-10-21T15:34:55.843179Z,1697902495843
-0.14952364563941956,-0.19714772701263428,0.02514232136309147,2023-10-21T15:34:55.852654Z,1697902495852
-0.15378054976463318,-0.18145039677619934,0.03644971549510956,2023-10-21T15:34:55.866317Z,1697902495866
-0.1585695594549179,-0.1662851870059967,0.04616076871752739,2023-10-21T15:34:55.872916Z,1697902495872
-0.16269342601299286,-0.15338145196437836,0.05440851300954819,2023-10-21T15:34:55.883945Z,1697902495883
-0.16668426990509033,-0.14406949281692505,0.05454154312610626,2023-10-21T15:34:55.893058Z,1697902495893
-0.1701430082321167,-0.1360878050327301,0.05467456951737404,2023-10-21T15:34:55.904256Z,1697902495904
-0.1750650554895401,-0.13954652845859528,0.045096542686223984,2023-10-21T15:34:55.915586Z,1697902495915
-0.17932194471359253,-0.14260618388652802,0.03711485490202904,2023-10-21T15:34:55.924286Z,1697902495924
-0.18411096930503845,-0.15564294159412384,0.024610208347439766,2023-10-21T15:34:55.933656Z,1697902495933
-0.2024688422679901,-0.18544124066829681,0.010243168100714684,2023-10-21T15:34:55.944401Z,1697902495944
-0.2008725106716156,-0.19634954631328583,0.0013302814913913608,2023-10-21T15:34:55.954050Z,1697902495953
-0.198078915476799,-0.20659272372722626,-0.00611929502338171,2023-10-21T15:34:55.966158Z,1697902495966
-0.1943541318178177,-0.21656982600688934,-0.013169786892831326,2023-10-21T15:34:55.974136Z,1697902495974
-0.19036328792572021,-0.22801025211811066,-0.020885419100522995,2023-10-21T15:34:55.985297Z,1697902495985
-0.18677152693271637,-0.24277637898921967,-0.030596474185585976,2023-10-21T15:34:55.994376Z,1697902495994
-0.18371187150478363,-0.26100122928619385,-0.04270203784108162,2023-10-21T15:34:56.005574Z,1697902496005
-0.1810513138771057,-0.2814875841140747,-0.056669991463422775,2023-10-21T15:34:56.015671Z,1697902496015
-0.17905589938163757,-0.30330419540405273,-0.07183520495891571,2023-10-21T15:34:56.025579Z,1697902496025
-0.1773265302181244,-0.3260520100593567,-0.08686738461256027,2023-10-21T15:34:56.035016Z,1697902496034
-0.17599624395370483,-0.348666787147522,-0.10056928545236588,2023-10-21T15:34:56.049581Z,1697902496049
-0.17426687479019165,-0.3694191873073578,-0.11214273422956467,2023-10-21T15:34:56.055265Z,1697902496055
-0.17213842272758484,-0.38564860820770264,-0.12105561792850494,2023-10-21T15:34:56.066264Z,1697902496066
-0.1696108877658844,-0.3962908685207367,-0.12744097411632538,2023-10-21T15:34:56.075479Z,1697902496075
-0.16774849593639374,-0.40267622470855713,-0.13196392357349396,2023-10-21T15:34:56.086690Z,1697902496086
-0.16708335280418396,-0.4065340459346771,-0.13489054143428802,2023-10-21T15:34:56.099020Z,1697902496098
-0.1678815335035324,-0.4082633852958679,-0.1366199105978012,2023-10-21T15:34:56.106691Z,1697902496106
-0.16974392533302307,-0.40640100836753845,-0.1371520310640335,2023-10-21T15:34:56.116020Z,1697902496115
-0.1722714602947235,-0.400015652179718,-0.13542266190052032,2023-10-21T15:34:56.126929Z,1697902496126
-0.17519807815551758,-0.389107346534729,-0.13103273510932922,2023-10-21T15:34:56.136330Z,1697902496136
-0.1778586357831955,-0.3758045434951782,-0.12411526590585709,2023-10-21T15:34:56.149126Z,1697902496149
-0.1799870878458023,-0.3626347482204437,-0.11427118629217148,2023-10-21T15:34:56.156542Z,1697902496156
-0.18145039677619934,-0.3495979905128479,-0.10136745125055313,2023-10-21T15:34:56.167639Z,1697902496167
-0.18184947967529297,-0.3341667056083679,-0.08487196266651154,2023-10-21T15:34:56.176717Z,1697902496176
-0.16841363906860352,-0.30170783400535583,-0.07010583579540253,2023-10-21T15:34:56.187985Z,1697902496187
-0.1680145561695099,-0.2760334014892578,-0.04655985161662102,2023-10-21T15:34:56.198737Z,1697902496198
-0.16774849593639374,-0.2542167901992798,-0.02633957378566265,2023-10-21T15:34:56.207973Z,1697902496207
-0.1624273806810379,-0.21763405203819275,0.0029266192577779293,2023-10-21T15:34:56.217423Z,1697902496217
-0.16508793830871582,-0.18184947967529297,0.044697459787130356,2023-10-21T15:34:56.228083Z,1697902496228
-0.15484477579593658,-0.14553280174732208,0.07289943099021912,2023-10-21T15:34:56.237659Z,1697902496237
-0.14566582441329956,-0.11387209594249725,0.09910597652196884,2023-10-21T15:34:56.249154Z,1697902496249
-0.13795019686222076,-0.08713343739509583,0.1218537837266922,2023-10-21T15:34:56.257832Z,1697902496257
-0.13209696114063263,-0.06345442682504654,0.14061075448989868,2023-10-21T15:34:56.268956Z,1697902496268
-0.12797307968139648,-0.04177083820104599,0.15444567799568176,2023-10-21T15:34:56.277998Z,1697902496277
-0.11706477403640747,-0.029133165255188942,0.14832639694213867,2023-10-21T15:34:56.289303Z,1697902496289
-0.12078956514596939,-0.014500068500638008,0.15085391700267792,2023-10-21T15:34:56.298817Z,1697902496298
-0.12398223578929901,-0.0019954221788793802,0.15298236906528473,2023-10-21T15:34:56.309265Z,1697902496309
-0.13316118717193604,-0.005853238515555859,0.1399456113576889,2023-10-21T15:34:56.318709Z,1697902496318
-0.1410098373889923,-0.009178942069411278,0.12877124547958374,2023-10-21T15:34:56.332700Z,1697902496332
-0.15125301480293274,-0.04243598133325577,0.09830780327320099,2023-10-21T15:34:56.338952Z,1697902496338
-0.1745329350233078,-0.10229864716529846,0.05680302157998085,2023-10-21T15:34:56.349968Z,1697902496349
-0.17706046998500824,-0.15883561968803406,0.01223859004676342,2023-10-21T15:34:56.359155Z,1697902496359
-0.17759257555007935,-0.22255609929561615,-0.034720346331596375,2023-10-21T15:34:56.370351Z,1697902496370
-0.17599624395370483,-0.28680869936943054,-0.07861963659524918,2023-10-21T15:34:56.382055Z,1697902496381
-0.17253752052783966,-0.34268051385879517,-0.11453723907470703,2023-10-21T15:34:56.390371Z,1697902496390
-0.1678815335035324,-0.38112565875053406,-0.13808321952819824,2023-10-21T15:34:56.399710Z,1697902496399
-0.16335856914520264,-0.396822988986969,-0.14646399021148682,2023-10-21T15:34:56.410615Z,1697902496410
-0.16003286838531494,-0.38884130120277405,-0.13901442289352417,2023-10-21T15:34:56.420028Z,1697902496419
-0.14726217091083527,-0.35146036744117737,-0.12172076106071472,2023-10-21T15:34:56.432551Z,1697902496432
-0.15005575120449066,-0.3118179738521576,-0.09178942441940308,2023-10-21T15:34:56.440230Z,1697902496440
-0.15245026350021362,-0.27789580821990967,-0.06624802201986313,2023-10-21T15:34:56.451370Z,1697902496451
-0.15936772525310516,-0.2321341186761856,-0.03618365898728371,2023-10-21T15:34:56.460447Z,1697902496460
-0.1652209609746933,-0.19302384555339813,-0.01050922367721796,2023-10-21T15:34:56.471653Z,1697902496471
-0.17799167335033417,-0.16162919998168945,0.0026605629827827215,2023-10-21T15:34:56.481818Z,1697902496481
-0.18903300166130066,-0.13475751876831055,0.01396795641630888,2023-10-21T15:34:56.491650Z,1697902496491
-0.20765694975852966,-0.1262437105178833,0.008513801731169224,2023-10-21T15:34:56.501064Z,1697902496501
-0.24796447157859802,-0.12770701944828033,-0.0015963378828018904,2023-10-21T15:34:56.511870Z,1697902496511
-0.26046910881996155,-0.12690885365009308,-0.013302815146744251,2023-10-21T15:34:56.521348Z,1697902496521
-0.26978108286857605,-0.12424829602241516,-0.02354598231613636,2023-10-21T15:34:56.532533Z,1697902496532
-0.25341862440109253,-0.11320696026086807,-0.025940489023923874,2023-10-21T15:34:56.541507Z,1697902496541
-0.25834065675735474,-0.10283076018095016,-0.028734080493450165,2023-10-21T15:34:56.552785Z,1697902496552
-0.2624645531177521,-0.09405090659856796,-0.03112858720123768,2023-10-21T15:34:56.565143Z,1697902496565
-0.2591388523578644,-0.08194534480571747,-0.026206545531749725,2023-10-21T15:34:56.572739Z,1697902496572
-0.2563452422618866,-0.07156914472579956,-0.0219496451318264,2023-10-21T15:34:56.582115Z,1697902496582
-0.2507580518722534,-0.07130309194326401,-0.017958801239728928,2023-10-21T15:34:56.592967Z,1697902496592
-0.24610207974910736,-0.07103703171014786,-0.014633096754550934,2023-10-21T15:34:56.602476Z,1697902496602
-0.23798736929893494,-0.08021597564220428,-0.016761546954512596,2023-10-21T15:34:56.615789Z,1697902496615
-0.23120293021202087,-0.08793161064386368,-0.01849091239273548,2023-10-21T15:34:56.622655Z,1697902496622
-0.22202397882938385,-0.10495921224355698,-0.025541406124830246,2023-10-21T15:34:56.633645Z,1697902496633
-0.22521665692329407,-0.13901442289352417,-0.03791302442550659,2023-10-21T15:34:56.642822Z,1697902496642
-0.21444137394428253,-0.159101665019989,-0.04602774232625961,2023-10-21T15:34:56.653987Z,1697902496653
-0.2047303318977356,-0.17772561311721802,-0.05374337360262871,2023-10-21T15:34:56.665270Z,1697902496665
-0.19621652364730835,-0.1936889886856079,-0.06052780896425247,2023-10-21T15:34:56.674063Z,1697902496674
-0.18903300166130066,-0.20712482929229736,-0.06624802201986313,2023-10-21T15:34:56.683463Z,1697902496683
-0.18344582617282867,-0.21816617250442505,-0.0707709789276123,2023-10-21T15:34:56.694168Z,1697902496694
-0.17905589938163757,-0.22654694318771362,-0.0740966796875,2023-10-21T15:34:56.703724Z,1697902496703
-0.17493201792240143,-0.23333138227462769,-0.07715632766485214,2023-10-21T15:34:56.715462Z,1697902496715
-0.17080815136432648,-0.2403818666934967,-0.08088111877441406,2023-10-21T15:34:56.723978Z,1697902496723
-0.16695033013820648,-0.24982686340808868,-0.08553709834814072,2023-10-21T15:34:56.735036Z,1697902496734
-0.16402371227741241,-0.2623315155506134,-0.09152337163686752,2023-10-21T15:34:56.744128Z,1697902496744
-0.16176223754882812,-0.277762770652771,-0.09857386350631714,2023-10-21T15:34:56.755540Z,1697902496755
-0.1597668081521988,-0.29492342472076416,-0.10615646839141846,2023-10-21T15:34:56.765008Z,1697902496764
-0.15723927319049835,-0.31101980805397034,-0.1125418171286583,2023-10-21T15:34:56.775401Z,1697902496775
-0.15324842929840088,-0.32192811369895935,-0.11586751788854599,2023-10-21T15:34:56.784759Z,1697902496784
-0.14726217091083527,-0.32405656576156616,-0.11387209594249725,2023-10-21T15:34:56.795483Z,1697902496795
-0.13316118717193604,-0.2991803288459778,-0.10322984308004379,2023-10-21T15:34:56.805012Z,1697902496804
-0.12491343170404434,-0.28614354133605957,-0.08926188945770264,2023-10-21T15:34:56.816020Z,1697902496815
-0.11786293983459473,-0.2751022279262543,-0.07728935778141022,2023-10-21T15:34:56.825189Z,1697902496825
-0.10642252117395401,-0.2536846995353699,-0.055073656141757965,2023-10-21T15:34:56.836391Z,1697902496836
-0.0965784415602684,-0.2354598343372345,-0.03618365898728371,2023-10-21T15:34:56.848535Z,1697902496848
-0.08527104556560516,-0.21603772044181824,-0.019289081916213036,2023-10-21T15:34:56.856372Z,1697902496856
-0.07569301873445511,-0.19954222440719604,-0.004922041669487953,2023-10-21T15:34:56.865839Z,1697902496865
-0.06824344396591187,-0.19222567975521088,-0.0038578163366764784,2023-10-21T15:34:56.876613Z,1697902496876
-0.06398653984069824,-0.2024688422679901,-0.008247745223343372,2023-10-21T15:34:56.886123Z,1697902496886
-0.05906450003385544,-0.20938630402088165,-0.02101844735443592,2023-10-21T15:34:56.898812Z,1697902496898
-0.05494062602519989,-0.22189095616340637,-0.037247881293296814,2023-10-21T15:34:56.906367Z,1697902496906
-0.05081675574183464,-0.23692314326763153,-0.05440851300954819,2023-10-21T15:34:56.917385Z,1697902496917
-0.04589471220970154,-0.2526204586029053,-0.07050491869449615,2023-10-21T15:34:56.926481Z,1697902496926
-0.040041472762823105,-0.26858383417129517,-0.08473893254995346,2023-10-21T15:34:56.937719Z,1697902496937
-0.03352309390902519,-0.28614354133605957,-0.09750963747501373,2023-10-21T15:34:56.948404Z,1697902496948
-0.026605630293488503,-0.3056986927986145,-0.11001428216695786,2023-10-21T15:34:56.957705Z,1697902496957
-0.01942211017012596,-0.32791438698768616,-0.12358315289020538,2023-10-21T15:34:56.967147Z,1697902496967
-0.011972533538937569,-0.3517264425754547,-0.1383492797613144,2023-10-21T15:34:56.977851Z,1697902496977
-0.004922041669487953,-0.3764696717262268,-0.1536475121974945,2023-10-21T15:34:56.987419Z,1697902496987
0.0013302814913913608,-0.4013459384441376,-0.16881272196769714,2023-10-21T15:34:56.998716Z,1697902496998
0.0063853515312075615,-0.42569008469581604,-0.18304674327373505,2023-10-21T15:34:57.007598Z,1697902497007
0.010110139846801758,-0.4495021402835846,-0.19621652364730835,2023-10-21T15:34:57.018844Z,1697902497018
0.012504646554589272,-0.4725160002708435,-0.20765694975852966,2023-10-21T15:34:57.027758Z,1697902497027
0.012504646554589272,-0.4945986568927765,-0.21750102937221527,2023-10-21T15:34:57.039085Z,1697902497039
0.00971105508506298,-0.5157501697540283,-0.22654694318771362,2023-10-21T15:34:57.048160Z,1697902497048
0.0039908443577587605,-0.5353052616119385,-0.23625800013542175,2023-10-21T15:34:57.059037Z,1697902497059
-0.004522957373410463,-0.5544613599777222,-0.24783144891262054,2023-10-21T15:34:57.068484Z,1697902497068
-0.015165209770202637,-0.5750806927680969,-0.2617993950843811,2023-10-21T15:34:57.082085Z,1697902497082
-0.026472602039575577,-0.5976954698562622,-0.2772306799888611,2023-10-21T15:34:57.088670Z,1697902497088
-0.03578457236289978,-0.6211084127426147,-0.29252889752388,2023-10-21T15:34:57.099758Z,1697902497099
-0.040041472762823105,-0.6426590085029602,-0.3058317303657532,2023-10-21T15:34:57.108861Z,1697902497108
-0.03671576827764511,-0.6606178283691406,-0.31594187021255493,2023-10-21T15:34:57.120048Z,1697902497120
-0.024344151839613914,-0.6743196845054626,-0.3221941888332367,2023-10-21T15:34:57.131478Z,1697902497131
-0.0029266192577779293,-0.6836316585540771,-0.3244556486606598,2023-10-21T15:34:57.140158Z,1697902497140
0.025674432516098022,-0.689085841178894,-0.3233914375305176,2023-10-21T15:34:57.149485Z,1697902497149
0.058532387018203735,-0.6909482479095459,-0.32033178210258484,2023-10-21T15:34:57.160233Z,1697902497160
0.09258759021759033,-0.69001704454422,-0.3167400360107422,2023-10-21T15:34:57.169794Z,1697902497169
0.12491343170404434,-0.6873564720153809,-0.3135473430156708,2023-10-21T15:34:57.181907Z,1697902497181
0.15378054976463318,-0.6832326054573059,-0.311152845621109,2023-10-21T15:34:57.189950Z,1697902497189
0.1783907562494278,-0.6783105731010437,-0.3083592653274536,2023-10-21T15:34:57.201082Z,1697902497201
0.19914314150810242,-0.6740536689758301,-0.3046344816684723,2023-10-21T15:34:57.210147Z,1697902497210
0.2168358862400055,-0.6717921495437622,-0.3001115024089813,2023-10-21T15:34:57.221402Z,1697902497221
0.23200109601020813,-0.6719251871109009,-0.29558855295181274,2023-10-21T15:34:57.231312Z,1697902497231
0.24556997418403625,-0.6731224656105042,-0.2909325659275055,2023-10-21T15:34:57.241334Z,1697902497241
0.2578085660934448,-0.6739206314086914,-0.2853453755378723,2023-10-21T15:34:57.250864Z,1697902497250
0.2683177888393402,-0.6727233529090881,-0.27683159708976746,2023-10-21T15:34:57.265832Z,1697902497265
0.27629947662353516,-0.6666040420532227,-0.262996643781662,2023-10-21T15:34:57.271086Z,1697902497271
0.28082242608070374,-0.6538333892822266,-0.2421112358570099,2023-10-21T15:34:57.282282Z,1697902497282
0.28082242608070374,-0.633213996887207,-0.21271201968193054,2023-10-21T15:34:57.291305Z,1697902497291
0.27590039372444153,-0.6039478182792664,-0.17413385212421417,2023-10-21T15:34:57.302549Z,1697902497302
0.26592326164245605,-0.5655027031898499,-0.12704189121723175,2023-10-21T15:34:57.314731Z,1697902497314
0.25115716457366943,-0.5177455544471741,-0.07396364957094193,2023-10-21T15:34:57.322516Z,1697902497322
0.23186807334423065,-0.46360310912132263,-0.01822485774755478,2023-10-21T15:34:57.331842Z,1697902497331
0.2080560326576233,-0.40866249799728394,0.036848798394203186,2023-10-21T15:34:57.342787Z,1697902497342
0.18038617074489594,-0.35638242959976196,0.08952794969081879,2023-10-21T15:34:57.352197Z,1697902497352
0.14965666830539703,-0.3078271448612213,0.13808321952819824,2023-10-21T15:34:57.365350Z,1697902497365
0.11679871380329132,-0.2633957266807556,0.18198251724243164,2023-10-21T15:34:57.372428Z,1697902497372
0.0828765407204628,-0.22548271715641022,0.22056066989898682,2023-10-21T15:34:57.383547Z,1697902497383
0.04908738657832146,-0.19568441808223724,0.25341862440109253,2023-10-21T15:34:57.392572Z,1697902497392
0.017160631716251373,-0.17306962609291077,0.2798912227153778,2023-10-21T15:34:57.403788Z,1697902497403
-0.011307393200695515,-0.15511082112789154,0.2995794117450714,2023-10-21T15:34:57.414682Z,1697902497414
-0.0351194329559803,-0.1399456113576889,0.3123500943183899,2023-10-21T15:34:57.423817Z,1697902497423
-0.05281217768788338,-0.12744097411632538,0.3178042471408844,2023-10-21T15:34:57.433242Z,1697902497433
-0.06385350972414017,-0.11945927888154984,0.31580883264541626,2023-10-21T15:34:57.443884Z,1697902497443
-0.06837646663188934,-0.11866111308336258,0.30662989616394043,2023-10-21T15:34:57.453481Z,1697902497453
-0.06704618781805038,-0.12597766518592834,0.2913316488265991,2023-10-21T15:34:57.465032Z,1697902497465
-0.0609268918633461,-0.14194104075431824,0.2712444067001343,2023-10-21T15:34:57.473686Z,1697902497473
-0.05094978213310242,-0.16562004387378693,0.24823053181171417,2023-10-21T15:34:57.484794Z,1697902497484
-0.03817908093333244,-0.19342292845249176,0.22428546845912933,2023-10-21T15:34:57.493830Z,1697902497493
-0.02421112358570099,-0.21976250410079956,0.20167067646980286,2023-10-21T15:34:57.505159Z,1697902497505
-0.009844083338975906,-0.23785433173179626,0.1822485625743866,2023-10-21T15:34:57.514467Z,1697902497514
0.004655985161662102,-0.24397362768650055,0.1678815335035324,2023-10-21T15:34:57.525129Z,1697902497525
0.018756968900561333,-0.23812039196491241,0.15896864235401154,2023-10-21T15:34:57.534569Z,1697902497534
0.02381203882396221,-0.21550559997558594,0.14473463594913483,2023-10-21T15:34:57.548455Z,1697902497548
0.03671576827764511,-0.19395504891872406,0.14952364563941956,2023-10-21T15:34:57.554818Z,1697902497554
0.059197526425123215,-0.17280356585979462,0.17040906846523285,2023-10-21T15:34:57.565840Z,1697902497565
0.07622513175010681,-0.1378171592950821,0.18065223097801208,2023-10-21T15:34:57.575145Z,1697902497575
0.09671146422624588,-0.1015004813671112,0.19222567975521088,2023-10-21T15:34:57.586177Z,1697902497586
0.12012442201375961,-0.06944069266319275,0.2024688422679901,2023-10-21T15:34:57.597890Z,1697902497597
0.14500068128108978,-0.046293795108795166,0.20872117578983307,2023-10-21T15:34:57.606201Z,1697902497606
0.16921180486679077,-0.034986402839422226,0.2085881382226944,2023-10-21T15:34:57.615552Z,1697902497615
0.18969814479351044,-0.037513937801122665,0.19967526197433472,2023-10-21T15:34:57.626338Z,1697902497626
0.18411096930503845,-0.039376333355903625,0.17878983914852142,2023-10-21T15:34:57.635906Z,1697902497635
0.18756969273090363,-0.0751609057188034,0.14792729914188385,2023-10-21T15:34:57.648228Z,1697902497648
0.1954183578491211,-0.1427392065525055,0.10615646839141846,2023-10-21T15:34:57.656011Z,1697902497655
0.16761547327041626,-0.2080560326576233,0.05121583864092827,2023-10-21T15:34:57.667168Z,1697902497667
0.12478040903806686,-0.2888041138648987,-0.0130367586389184,2023-10-21T15:34:57.676248Z,1697902497676
0.0697067528963089,-0.3824559450149536,-0.08354167640209198,2023-10-21T15:34:57.687475Z,1697902497687
0.006784435827285051,-0.4840894341468811,-0.15630808472633362,2023-10-21T15:34:57.698097Z,1697902497698
-0.05813330411911011,-0.5878514051437378,-0.22654694318771362,2023-10-21T15:34:57.707484Z,1697902497707
-0.11919322609901428,-0.6853610277175903,-0.289336234331131,2023-10-21T15:34:57.716896Z,1697902497716
-0.17094117403030396,-0.7689027190208435,-0.3408181369304657,2023-10-21T15:34:57.731522Z,1697902497731
-0.20991842448711395,-0.833687424659729,-0.37833207845687866,2023-10-21T15:34:57.737172Z,1697902497737
-0.23346440494060516,-0.8783848881721497,-0.400281697511673,2023-10-21T15:34:57.748443Z,1697902497748
-0.2403818666934967,-0.9017978310585022,-0.4061349630355835,2023-10-21T15:34:57.757405Z,1697902497757
-0.23067080974578857,-0.9021969437599182,-0.3972220718860626,2023-10-21T15:34:57.768541Z,1697902497768
-0.2073908895254135,-0.8817105889320374,-0.37686875462532043,2023-10-21T15:34:57.781520Z,1697902497781
-0.17466595768928528,-0.8468571901321411,-0.34946495294570923,2023-10-21T15:34:57.788559Z,1697902497788
-0.1367529332637787,-0.8064166307449341,-0.31913453340530396,2023-10-21T15:34:57.797945Z,1697902497797
-0.09737660735845566,-0.7658430933952332,-0.2897353172302246,2023-10-21T15:34:57.808825Z,1697902497808
-0.05999569594860077,-0.7293933629989624,-0.26432693004608154,2023-10-21T15:34:57.818282Z,1697902497818
-0.02793591283261776,-0.7018565535545349,-0.24490483105182648,2023-10-21T15:34:57.831989Z,1697902497831
-0.0031926757656037807,-0.6873564720153809,-0.23240017890930176,2023-10-21T15:34:57.838466Z,1697902497838
0.013435843400657177,-0.6877555251121521,-0.22707904875278473,2023-10-21T15:34:57.849520Z,1697902497849
0.021816616877913475,-0.7030537724494934,-0.22867539525032043,2023-10-21T15:34:57.858662Z,1697902497858
0.022348729893565178,-0.7320539355278015,-0.23692314326763153,2023-10-21T15:34:57.869821Z,1697902497869
0.015032181516289711,-0.7732926607131958,-0.25102412700653076,2023-10-21T15:34:57.881204Z,1697902497881
9.311970788985491E-4,-0.8249075412750244,-0.26978108286857605,2023-10-21T15:34:57.889890Z,1697902497889
-0.017958801239728928,-0.8842381238937378,-0.2914646863937378,2023-10-21T15:34:57.899314Z,1697902497899
-0.038711193948984146,-0.9467613697052002,-0.31368038058280945,2023-10-21T15:34:57.909975Z,1697902497909
-0.05813330411911011,-1.00649094581604,-0.33296945691108704,2023-10-21T15:34:57.919595Z,1697902497919
-0.0735645666718483,-1.0574407577514648,-0.34600621461868286,2023-10-21T15:34:57.931557Z,1697902497931
-0.08314259350299835,-1.0950877666473389,-0.34999707341194153,2023-10-21T15:34:57.939854Z,1697902497939
-0.08593618869781494,-1.1165052652359009,-0.34321263432502747,2023-10-21T15:34:57.950841Z,1697902497950
-0.08221139758825302,-1.121028184890747,-0.3253868520259857,2023-10-21T15:34:57.960018Z,1697902497959
-0.0730324536561966,-1.1095877885818481,-0.29678580164909363,2023-10-21T15:34:57.971172Z,1697902497971
-0.060394782572984695,-1.0867069959640503,-0.25927186012268066,2023-10-21T15:34:57.981089Z,1697902497981
-0.04602774232625961,-1.0571746826171875,-0.21550559997558594,2023-10-21T15:34:57.991172Z,1697902497991
-0.03139464557170868,-1.0235185623168945,-0.16894575953483582,2023-10-21T15:34:58.000618Z,1697902498000
-0.017027603462338448,-0.98640376329422,-0.12225287407636642,2023-10-21T15:34:58.011374Z,1697902498011
-0.0029266192577779293,-0.9463622570037842,-0.07715632766485214,2023-10-21T15:34:58.020880Z,1697902498020
0.01050922367721796,-0.9060547351837158,-0.03485337644815445,2023-10-21T15:34:58.031878Z,1697902498031
0.023013871163129807,-0.8684077858924866,0.004256900865584612,2023-10-21T15:34:58.041041Z,1697902498040
0.034720346331596375,-0.8344855904579163,0.03990844637155533,2023-10-21T15:34:58.052217Z,1697902498052
0.04589471220970154,-0.8034900426864624,0.07170217484235764,2023-10-21T15:34:58.063929Z,1697902498063
0.0570690780878067,-0.7732926607131958,0.09910597652196884,2023-10-21T15:34:58.072216Z,1697902498072
0.0686425268650055,-0.744558572769165,0.12211984395980835,2023-10-21T15:34:58.081611Z,1697902498081
0.08034900575876236,-0.7190171480178833,0.1415419578552246,2023-10-21T15:34:58.092361Z,1697902498092
0.09192245453596115,-0.6981317400932312,0.15763835608959198,2023-10-21T15:34:58.101926Z,1697902498101
0.10309682041406631,-0.6811041235923767,0.17080815136432648,2023-10-21T15:34:58.114835Z,1697902498114
0.11333998292684555,-0.6675352454185486,0.18078525364398956,2023-10-21T15:34:58.122148Z,1697902498122
0.12158773094415665,-0.6587554216384888,0.1882348358631134,2023-10-21T15:34:58.133156Z,1697902498133
0.12664279341697693,-0.6564939022064209,0.1931568831205368,2023-10-21T15:34:58.142322Z,1697902498142
0.12744097411632538,-0.6606178283691406,0.1954183578491211,2023-10-21T15:34:58.153510Z,1697902498153
0.12305103987455368,-0.6689985990524292,0.1943541318178177,2023-10-21T15:34:58.164021Z,1697902498163
0.11214273422956467,-0.6811041235923767,0.1904963105916977,2023-10-21T15:34:58.173527Z,1697902498173
0.09351879358291626,-0.6982647776603699,0.18544124066829681,2023-10-21T15:34:58.182949Z,1697902498182
0.06624802201986313,-0.7215446829795837,0.18065223097801208,2023-10-21T15:34:58.197666Z,1697902498197
0.030862530693411827,-0.7494806051254272,0.17745955288410187,2023-10-21T15:34:58.203253Z,1697902498203
-0.01144042145460844,-0.7788798213005066,0.1767944097518921,2023-10-21T15:34:58.214846Z,1697902498214
-0.05839935690164566,-0.8065496683120728,0.17985406517982483,2023-10-21T15:34:58.223477Z,1697902498223
-0.10615646839141846,-0.829563558101654,0.1877027153968811,2023-10-21T15:34:58.234555Z,1697902498234
-0.15085391700267792,-0.8453938961029053,0.20047342777252197,2023-10-21T15:34:58.243584Z,1697902498243
-0.19009722769260406,-0.8520452976226807,0.21803313493728638,2023-10-21T15:34:58.254898Z,1697902498254
-0.2228221595287323,-0.8495177626609802,0.23945067822933197,2023-10-21T15:34:58.264168Z,1697902498264
-0.24902869760990143,-0.8384764194488525,0.26366180181503296,2023-10-21T15:34:58.274641Z,1697902498274
-0.26978108286857605,-0.8199855089187622,0.2888041138648987,2023-10-21T15:34:58.284333Z,1697902498284
-0.28667566180229187,-0.7961735129356384,0.31261616945266724,2023-10-21T15:34:58.316846Z,1697902498316
-0.3023729920387268,-0.7722284197807312,0.3332355320453644,2023-10-21T15:34:58.317518Z,1697902498317
-0.3197996914386749,-0.7537375092506409,0.34893283247947693,2023-10-21T15:34:58.318661Z,1697902498318
-0.34001997113227844,-0.7429622411727905,0.3585108816623688,2023-10-21T15:34:58.324636Z,1697902498324
-0.36250171065330505,-0.7387053370475769,0.3611714243888855,2023-10-21T15:34:58.349999Z,1697902498349
-0.38564860820770264,-0.7384392619132996,0.35757967829704285,2023-10-21T15:34:58.350688Z,1697902498350
-0.40813037753105164,-0.7408337593078613,0.348666787147522,2023-10-21T15:34:58.355778Z,1697902498355
-0.4276854991912842,-0.7442924976348877,0.33669424057006836,2023-10-21T15:34:58.396249Z,1697902498396
-0.4408552944660187,-0.745489776134491,0.32365748286247253,2023-10-21T15:34:58.397907Z,1697902498397
-0.4444470703601837,-0.7393704652786255,0.3116849660873413,2023-10-21T15:34:58.398491Z,1697902498398
-0.4361993074417114,-0.7214116454124451,0.30263903737068176,2023-10-21T15:34:58.399567Z,1697902498399
-0.4166441857814789,-0.69001704454422,0.29771700501441956,2023-10-21T15:34:58.405685Z,1697902498405
-0.3884422183036804,-0.6469159126281738,0.29678580164909363,2023-10-21T15:34:58.416864Z,1697902498416
-0.3561163544654846,-0.5974294543266296,0.2985151708126068,2023-10-21T15:34:58.425937Z,1697902498425
-0.3248547613620758,-0.5471447706222534,0.3006436228752136,2023-10-21T15:34:58.449830Z,1697902498449
-0.29984545707702637,-0.5015161037445068,0.3013087511062622,2023-10-21T15:34:58.450495Z,1697902498450
-0.2858774960041046,-0.4654655158519745,0.29878121614456177,2023-10-21T15:34:58.457046Z,1697902498457
-0.28574445843696594,-0.44271770119667053,0.2923958897590637,2023-10-21T15:34:58.483953Z,1697902498483
-0.3001115024089813,-0.43446993827819824,0.28188666701316833,2023-10-21T15:34:58.485601Z,1697902498485
-0.3265841007232666,-0.4408552944660187,0.26765263080596924,2023-10-21T15:34:58.486809Z,1697902498486
-0.3615705072879791,-0.4605434536933899,0.2508910894393921,2023-10-21T15:34:58.499605Z,1697902498499
-0.39974960684776306,-0.48994266986846924,0.23200109601020813,2023-10-21T15:34:58.507077Z,1697902498507
-0.43606626987457275,-0.5242639183998108,0.211381733417511,2023-10-21T15:34:58.518262Z,1697902498518
-0.46679577231407166,-0.559516429901123,0.19023025035858154,2023-10-21T15:34:58.531971Z,1697902498531
-0.4895435869693756,-0.5909110307693481,0.17040906846523285,2023-10-21T15:34:58.538209Z,1697902498538
-0.5023143291473389,-0.6127276420593262,0.1547117382287979,2023-10-21T15:34:58.548714Z,1697902498548
-0.5044427514076233,-0.6211084127426147,0.14526674151420593,2023-10-21T15:34:58.558450Z,1697902498558
-0.49699318408966064,-0.6163194179534912,0.14353737235069275,2023-10-21T15:34:58.567980Z,1697902498567
-0.48156189918518066,-0.5995578765869141,0.1503218114376068,2023-10-21T15:34:58.582993Z,1697902498582
-0.45961228013038635,-0.5717549920082092,0.1657530814409256,2023-10-21T15:34:58.588181Z,1697902498588
-0.43274056911468506,-0.5363695025444031,0.1882348358631134,2023-10-21T15:34:58.599572Z,1697902498599
-0.4022771418094635,-0.4983234703540802,0.2156386375427246,2023-10-21T15:34:58.608341Z,1697902498608
-0.36902010440826416,-0.4604104459285736,0.24570299685001373,2023-10-21T15:34:58.619543Z,1697902498619
-0.3324373662471771,-0.4210340976715088,0.27696460485458374,2023-10-21T15:34:58.631933Z,1697902498631
-0.2913316488265991,-0.37726783752441406,0.3090243935585022,2023-10-21T15:34:58.639457Z,1697902498639
-0.24463877081871033,-0.32685017585754395,0.34174931049346924,2023-10-21T15:34:58.649001Z,1697902498648
-0.19182659685611725,-0.2683177888393402,0.3755384683609009,2023-10-21T15:34:58.659673Z,1697902498659
-0.13316118717193604,-0.20113857090473175,0.4106579124927521,2023-10-21T15:34:58.669297Z,1697902498669
-0.0702388659119606,-0.12704189121723175,0.4463094472885132,2023-10-21T15:34:58.683319Z,1697902498683
-0.00611929502338171,-0.05028464272618294,0.4812958538532257,2023-10-21T15:34:58.689411Z,1697902498689
0.05587182566523552,0.02421112358570099,0.5132226347923279,2023-10-21T15:34:58.700688Z,1697902498700
0.11200970411300659,0.0921885073184967,0.5398282408714294,2023-10-21T15:34:58.709633Z,1697902498709
0.15936772525310516,0.15018878877162933,0.5585852265357971,2023-10-21T15:34:58.720892Z,1697902498720
0.19608350098133087,0.1959504634141922,0.5676311254501343,2023-10-21T15:34:58.731712Z,1697902498731
0.22056066989898682,0.22707904875278473,0.5656356811523438,2023-10-21T15:34:58.740743Z,1697902498740
0.23133595287799835,0.23958370089530945,0.5521998405456543,2023-10-21T15:34:58.750367Z,1697902498750
0.22628088295459747,0.22920750081539154,0.5274566411972046,2023-10-21T15:34:58.766092Z,1697902498766
0.20499637722969055,0.19355596601963043,0.4924702048301697,2023-10-21T15:34:58.770528Z,1697902498770
0.16934484243392944,0.13595476746559143,0.44870394468307495,2023-10-21T15:34:58.782716Z,1697902498782
0.12345012277364731,0.0647847130894661,0.39815324544906616,2023-10-21T15:34:58.790757Z,1697902498790
0.07090400159358978,-0.012637674808502197,0.3430795967578888,2023-10-21T15:34:58.801961Z,1697902498801
0.014234011992812157,-0.09325273334980011,0.28561145067214966,2023-10-21T15:34:58.815258Z,1697902498815
-0.04576168581843376,-0.17772561311721802,0.22694602608680725,2023-10-21T15:34:58.821864Z,1697902498821
-0.10722068697214127,-0.2640608847141266,0.1680145561695099,2023-10-21T15:34:58.831749Z,1697902498831
-0.1673494130373001,-0.34879982471466064,0.10948216915130615,2023-10-21T15:34:58.842136Z,1697902498842
-0.2244184911251068,-0.429813951253891,0.052546121180057526,2023-10-21T15:34:58.851680Z,1697902498851
-0.2776297628879547,-0.5072363615036011,-0.0018623941577970982,2023-10-21T15:34:58.866117Z,1697902498866
-0.32738229632377625,-0.5831954479217529,-0.052945204079151154,2023-10-21T15:34:58.871843Z,1697902498871
-0.37394213676452637,-0.6592875123023987,-0.09950505942106247,2023-10-21T15:34:58.883003Z,1697902498882
-0.41584599018096924,-0.7329851388931274,-0.14007864892482758,2023-10-21T15:34:58.891990Z,1697902498891
-0.45043331384658813,-0.7973707318305969,-0.172404482960701,2023-10-21T15:34:58.903331Z,1697902498903
-0.4749104976654053,-0.8447287678718567,-0.19448715448379517,2023-10-21T15:34:58.915297Z,1697902498915
-0.4879472553730011,-0.8701371550559998,-0.20459729433059692,2023-10-21T15:34:58.923171Z,1697902498923
-0.4896766245365143,-0.8743940591812134,-0.20206975936889648,2023-10-21T15:34:58.932726Z,1697902498932
-0.4812958538532257,-0.8620223999023438,-0.18796877562999725,2023-10-21T15:34:58.943515Z,1697902498943
-0.4649333953857422,-0.8375452160835266,-0.16482187807559967,2023-10-21T15:34:58.952984Z,1697902498952
-0.44218558073043823,-0.8030909299850464,-0.1360878050327301,2023-10-21T15:34:58.965901Z,1697902498965
-0.41584599018096924,-0.7611870765686035,-0.10615646839141846,2023-10-21T15:34:58.973130Z,1697902498973
-0.3892403841018677,-0.7178199291229248,-0.07928477972745895,2023-10-21T15:34:58.984331Z,1697902498984
-0.3660934865474701,-0.6803059577941895,-0.05933055654168129,2023-10-21T15:34:58.998292Z,1697902498998
-0.3491989076137543,-0.6542324423789978,-0.04935344308614731,2023-10-21T15:34:59.004239Z,1697902499004
-0.3402860164642334,-0.6438562273979187,-0.051348865032196045,2023-10-21T15:34:59.029372Z,1697902499029
-0.34041905403137207,-0.6506406664848328,-0.0658489316701889,2023-10-21T15:34:59.031036Z,1697902499031
-0.34826770424842834,-0.6716591119766235,-0.09125731140375137,2023-10-21T15:34:59.033926Z,1697902499033
-0.36130446195602417,-0.7025216817855835,-0.1262437105178833,2023-10-21T15:34:59.049408Z,1697902499049
-0.3764696717262268,-0.7380402088165283,-0.168546661734581,2023-10-21T15:34:59.054235Z,1697902499054
-0.39096975326538086,-0.7738247513771057,-0.21617074310779572,2023-10-21T15:34:59.082821Z,1697902499082
-0.4029422700405121,-0.8076139092445374,-0.2673865854740143,2023-10-21T15:34:59.083495Z,1697902499083
-0.41132304072380066,-0.8396736979484558,-0.32033178210258484,2023-10-21T15:34:59.085243Z,1697902499085
-0.414781779050827,-0.8690729141235352,-0.3731439709663391,2023-10-21T15:34:59.116958Z,1697902499116
-0.41132304072380066,-0.8916876912117004,-0.4238276779651642,2023-10-21T15:34:59.118625Z,1697902499118
-0.3990844488143921,-0.9029951095581055,-0.4710526764392853,2023-10-21T15:34:59.119193Z,1697902499119
-0.37819904088974,-0.9012657403945923,-0.5134886503219604,2023-10-21T15:34:59.125772Z,1697902499125
-0.3497309982776642,-0.8880959153175354,-0.5499383807182312,2023-10-21T15:34:59.148418Z,1697902499148
-0.31540974974632263,-0.8658802509307861,-0.5790715217590332,2023-10-21T15:34:59.150099Z,1697902499150
-0.2772306799888611,-0.8376782536506653,-0.5991588234901428,2023-10-21T15:34:59.155490Z,1697902499155
-0.2371891885995865,-0.8046873211860657,-0.6090028882026672,2023-10-21T15:34:59.198657Z,1697902499198
-0.1970146894454956,-0.765976071357727,-0.607805609703064,2023-10-21T15:34:59.199390Z,1697902499199
-0.15790441632270813,-0.7214116454124451,-0.5954340100288391,2023-10-21T15:34:59.200668Z,1697902499200
-0.12118864804506302,-0.6731224656105042,-0.5734843611717224,2023-10-21T15:34:59.201250Z,1697902499201
-0.08713343739509583,-0.6235029697418213,-0.5434200167655945,2023-10-21T15:34:59.206872Z,1697902499206
-0.055738795548677444,-0.5732182860374451,-0.5068372488021851,2023-10-21T15:34:59.216435Z,1697902499216
-0.03764696791768074,-0.507768452167511,-0.451630562543869,2023-10-21T15:34:59.249222Z,1697902499249
-0.00864682998508215,-0.4549562931060791,-0.40746521949768066,2023-10-21T15:34:59.249986Z,1697902499249
0.016096405684947968,-0.40972670912742615,-0.3698182702064514,2023-10-21T15:34:59.251291Z,1697902499251
0.04589471220970154,-0.34707045555114746,-0.322726309299469,2023-10-21T15:34:59.256770Z,1697902499256
0.09192245453596115,-0.28241875767707825,-0.2814875841140747,2023-10-21T15:34:59.282515Z,1697902499282
0.12345012277364731,-0.21164779365062714,-0.23519377410411835,2023-10-21T15:34:59.283152Z,1697902499283
0.15830349922180176,-0.13688597083091736,-0.1892990618944168,2023-10-21T15:34:59.287897Z,1697902499287
0.1986110359430313,-0.056403934955596924,-0.14406949281692505,2023-10-21T15:34:59.298004Z,1697902499297
0.24676722288131714,0.03259189799427986,-0.09963808953762054,2023-10-21T15:34:59.308140Z,1697902499308
0.30543264746665955,0.13249604403972626,-0.05560576915740967,2023-10-21T15:34:59.317721Z,1697902499317
0.3758045434951782,0.24397362768650055,-0.012903730385005474,2023-10-21T15:34:59.332274Z,1697902499332
0.4576168358325958,0.36569440364837646,0.02633957378566265,2023-10-21T15:34:59.337908Z,1697902499337
0.5495392680168152,0.49433261156082153,0.05906450003385544,2023-10-21T15:34:59.348988Z,1697902499348
0.648645281791687,0.6245671510696411,0.0828765407204628,2023-10-21T15:34:59.358232Z,1697902499358
0.7510769367218018,0.7497466802597046,0.0960463285446167,2023-10-21T15:34:59.369314Z,1697902499369
0.8512471318244934,0.8633527159690857,0.09830780327320099,2023-10-21T15:34:59.381340Z,1697902499381
0.9434356689453125,0.959665060043335,0.09032611548900604,2023-10-21T15:34:59.389206Z,1697902499389
1.0213901996612549,1.0328305959701538,0.07396364957094193,2023-10-21T15:34:59.398789Z,1697902499398
1.0792573690414429,1.0791243314743042,0.05201400816440582,2023-10-21T15:34:59.409561Z,1697902499409
1.1134456396102905,1.0990785360336304,0.027403799816966057,2023-10-21T15:34:59.419054Z,1697902499419
1.122890591621399,1.0957528352737427,0.002128450432792306,2023-10-21T15:34:59.432214Z,1697902499432
1.1073263883590698,1.0707435607910156,-0.022082673385739326,2023-10-21T15:34:59.439188Z,1697902499439
1.067417860031128,1.0240507125854492,-0.04403231665492058,2023-10-21T15:34:59.450448Z,1697902499450
1.0054267644882202,0.9576696753501892,-0.061991117894649506,2023-10-21T15:34:59.459392Z,1697902499459
0.926008939743042,0.8770546317100525,-0.07476182281970978,2023-10-21T15:34:59.470724Z,1697902499470
0.8352837562561035,0.7892560362815857,-0.08128020167350769,2023-10-21T15:34:59.481336Z,1697902499481
0.7303245663642883,0.6901500821113586,-0.07702329754829407,2023-10-21T15:34:59.490568Z,1697902499490
0.6236359477043152,0.5893146991729736,-0.06571590900421143,2023-10-21T15:34:59.500110Z,1697902499500
0.5410255193710327,0.5269244909286499,-0.053876399993896484,2023-10-21T15:34:59.515553Z,1697902499515
0.47052058577537537,0.4737132489681244,-0.04363323375582695,2023-10-21T15:34:59.520289Z,1697902499520
0.40360742807388306,0.42994698882102966,-0.011706477031111717,2023-10-21T15:34:59.532176Z,1697902499532
0.3562493920326233,0.4183735251426697,0.034720346331596375,2023-10-21T15:34:59.540427Z,1697902499540
0.3331024944782257,0.4209010601043701,0.07170217484235764,2023-10-21T15:34:59.551711Z,1697902499551
0.33443278074264526,0.4495021402835846,0.11014731228351593,2023-10-21T15:34:59.564595Z,1697902499564
0.35970813035964966,0.5028464198112488,0.14726217091083527,2023-10-21T15:34:59.571583Z,1697902499571
0.40586888790130615,0.5765439867973328,0.17905589938163757,2023-10-21T15:34:59.581174Z,1697902499581
0.4674609303474426,0.6622141599655151,0.2008725106716156,2023-10-21T15:34:59.591850Z,1697902499591
0.5366355776786804,0.7478842735290527,0.20925328135490417,2023-10-21T15:34:59.601441Z,1697902499601
0.6048790216445923,0.8205176591873169,0.20113857090473175,2023-10-21T15:34:59.615393Z,1697902499615
0.6630123257637024,0.8674765825271606,0.17546413838863373,2023-10-21T15:34:59.621543Z,1697902499621
0.704118013381958,0.8795821666717529,0.1327620893716812,2023-10-21T15:34:59.632709Z,1697902499632
0.7235401272773743,0.8525774478912354,0.07622513175010681,2023-10-21T15:34:59.641747Z,1697902499641
0.7194162607192993,0.7875266671180725,0.009844083338975906,2023-10-21T15:34:59.653019Z,1697902499652
0.6926776170730591,0.6906821727752686,-0.061725061386823654,2023-10-21T15:34:59.664352Z,1697902499664
0.6455855965614319,0.5688284039497375,-0.1332942098379135,2023-10-21T15:34:59.672892Z,1697902499672
0.5826632976531982,0.4310111999511719,-0.19967526197433472,2023-10-21T15:34:59.682484Z,1697902499682
0.5090987086296082,0.28734081983566284,-0.25647827982902527,2023-10-21T15:34:59.697677Z,1697902499697
0.4307451546192169,0.14779427647590637,-0.30024453997612,2023-10-21T15:34:59.702763Z,1697902499702
0.35372185707092285,0.022747814655303955,-0.32911163568496704,2023-10-21T15:34:59.715675Z,1697902499715
0.2833499610424042,-0.0795508325099945,-0.34214839339256287,2023-10-21T15:34:59.723053Z,1697902499722
0.2233542650938034,-0.1536475121974945,-0.3392217755317688,2023-10-21T15:34:59.734093Z,1697902499734
0.17546413838863373,-0.198078915476799,-0.32179510593414307,2023-10-21T15:34:59.747713Z,1697902499747
0.1394135057926178,-0.21590469777584076,-0.29159772396087646,2023-10-21T15:34:59.753944Z,1697902499753
0.11520238220691681,-0.20273490250110626,-0.2536846995353699,2023-10-21T15:34:59.764385Z,1697902499764
0.09830780327320099,-0.17320264875888824,-0.21670286357402802,2023-10-21T15:34:59.774251Z,1697902499774
0.08567012846469879,-0.1515190601348877,-0.16216132044792175,2023-10-21T15:34:59.783824Z,1697902499783
0.07928477972745895,-0.12358315289020538,-0.10203259438276291,2023-10-21T15:34:59.798670Z,1697902499798
0.07675724476575851,-0.08500499278306961,-0.05986266955733299,2023-10-21T15:34:59.803977Z,1697902499803
0.07449576258659363,-0.05081675574183464,-0.023679010570049286,2023-10-21T15:34:59.815272Z,1697902499815
0.07183520495891571,-0.02261478640139103,0.004922041669487953,2023-10-21T15:34:59.824213Z,1697902499824
0.06518379598855972,-0.009311970323324203,0.015963377431035042,2023-10-21T15:34:59.835392Z,1697902499835
0.05972963944077492,0.005853238515555859,0.029133165255188942,2023-10-21T15:34:59.847716Z,1697902499847
0.05494062602519989,0.018756968900561333,0.040307529270648956,2023-10-21T15:34:59.855324Z,1697902499855
0.046958938241004944,0.015963377431035042,0.03445428982377052,2023-10-21T15:34:59.864835Z,1697902499864
0.033789150416851044,-0.0065183793194592,0.017692744731903076,2023-10-21T15:34:59.875614Z,1697902499875
0.017027603462338448,-0.04735802114009857,-0.012105561792850494,2023-10-21T15:34:59.885122Z,1697902499885
6.651407456956804E-4,-0.09152337163686752,-0.04602774232625961,2023-10-21T15:34:59.898620Z,1697902499898
-0.019289081916213036,-0.14513371884822845,-0.08433984965085983,2023-10-21T15:34:59.905271Z,1697902499905
-0.04363323375582695,-0.20659272372722626,-0.12398223578929901,2023-10-21T15:34:59.916439Z,1697902499916
-0.07183520495891571,-0.27204257249832153,-0.16149617731571198,2023-10-21T15:34:59.925457Z,1697902499925
-0.10296379029750824,-0.3364281952381134,-0.19395504891872406,2023-10-21T15:34:59.936709Z,1697902499936
-0.13462449610233307,-0.392965167760849,-0.21856525540351868,2023-10-21T15:34:59.947565Z,1697902499947
-0.16349159181118011,-0.43433693051338196,-0.23333138227462769,2023-10-21T15:34:59.956560Z,1697902499956
-0.18623940646648407,-0.45575445890426636,-0.23679010570049286,2023-10-21T15:34:59.966215Z,1697902499966
-0.20060645043849945,-0.45615354180336,-0.22854237258434296,2023-10-21T15:34:59.982089Z,1697902499982
-0.20552849769592285,-0.43766263127326965,-0.20951934158802032,2023-10-21T15:34:59.986368Z,1697902499986
-0.19062934815883636,-0.3930981755256653,-0.18317976593971252,2023-10-21T15:34:59.998407Z,1697902499998
-0.16282646358013153,-0.33563002943992615,-0.1564411073923111,2023-10-21T15:35:00.007191Z,1697902500007
-0.13901442289352417,-0.28667566180229187,-0.13356027007102966,2023-10-21T15:35:00.018243Z,1697902500018
-0.1306336522102356,-0.21417532861232758,-0.08846372365951538,2023-10-21T15:35:00.031201Z,1697902500031
-0.11679871380329132,-0.12863822281360626,-0.04137175530195236,2023-10-21T15:35:00.038068Z,1697902500038
-0.08553709834814072,-0.06332139670848846,-0.019023025408387184,2023-10-21T15:35:00.047648Z,1697902500047
-0.05866541340947151,-0.00971105508506298,-0.0026605629827827215,2023-10-21T15:35:00.058282Z,1697902500058
-0.036848798394203186,0.03365612402558327,0.007183520123362541,2023-10-21T15:35:00.067918Z,1697902500067
-0.020619364455342293,0.06850949674844742,0.011041336692869663,2023-10-21T15:35:00.081833Z,1697902500081
-0.0130367586389184,0.07768844068050385,0.010642251931130886,2023-10-21T15:35:00.088089Z,1697902500088
-0.01050922367721796,0.09351879358291626,0.008779858238995075,2023-10-21T15:35:00.099240Z,1697902500099
-0.008380773477256298,0.10708766430616379,0.0070504918694496155,2023-10-21T15:35:00.108274Z,1697902500108
-0.007183520123362541,0.09139034152030945,0.005986266769468784,2023-10-21T15:35:00.119555Z,1697902500119
-0.00611929502338171,0.07808752357959747,0.005188097711652517,2023-10-21T15:35:00.131349Z,1697902500131
-0.03924330323934555,0.08274351060390472,0.005055069923400879,2023-10-21T15:35:00.139415Z,1697902500139
-0.06757830083370209,0.0867343544960022,0.005055069923400879,2023-10-21T15:35:00.148919Z,1697902500148
-0.08420681953430176,0.0872664675116539,0.01050922367721796,2023-10-21T15:35:00.159644Z,1697902500159
-0.09857386350631714,0.08753252774477005,0.015165209770202637,2023-10-21T15:35:00.169246Z,1697902500169
-0.11094547808170319,0.09511512517929077,0.027669856324791908,2023-10-21T15:35:00.181777Z,1697902500181
-0.12158773094415665,0.10163351148366928,0.03831210732460022,2023-10-21T15:35:00.189375Z,1697902500189
-0.1283721625804901,0.11320696026086807,0.05494062602519989,2023-10-21T15:35:00.200560Z,1697902500200
-0.14433553814888,0.14194104075431824,0.08008294552564621,2023-10-21T15:35:00.214097Z,1697902500214
-0.14300526678562164,0.16202828288078308,0.08952794969081879,2023-10-21T15:35:00.220460Z,1697902500220
-0.1410098373889923,0.18344582617282867,0.09591329842805862,2023-10-21T15:35:00.230812Z,1697902500230
-0.14061075448989868,0.2014046162366867,0.09883991628885269,2023-10-21T15:35:00.240686Z,1697902500240
-0.1306336522102356,0.1936889886856079,0.0921885073184967,2023-10-21T15:35:00.250287Z,1697902500250
-0.1399456113576889,0.19794589281082153,0.091656394302845,2023-10-21T15:35:00.265124Z,1697902500265
-0.14792729914188385,0.20167067646980286,0.0911242812871933,2023-10-21T15:35:00.270479Z,1697902500270
-0.1618952602148056,0.19249173998832703,0.08700041472911835,2023-10-21T15:35:00.281784Z,1697902500281
-0.17373476922512054,0.18451005220413208,0.0834086537361145,2023-10-21T15:35:00.290669Z,1697902500290
-0.18530821800231934,0.1767944097518921,0.0779544934630394,2023-10-21T15:35:00.301968Z,1697902500301
-0.19515229761600494,0.17027603089809418,0.07343153655529022,2023-10-21T15:35:00.328612Z,1697902500328
-0.20286792516708374,0.16428977251052856,0.06757830083370209,2023-10-21T15:35:00.330295Z,1697902500330
-0.20951934158802032,0.15923470258712769,0.06265626102685928,2023-10-21T15:35:00.331268Z,1697902500331
-0.21550559997558594,0.1476612538099289,0.055738795548677444,2023-10-21T15:35:00.342139Z,1697902500342
-0.22082673013210297,0.13768413662910461,0.04988555610179901,2023-10-21T15:35:00.351622Z,1697902500351
-0.22973962128162384,0.12318406999111176,0.03977541625499725,2023-10-21T15:35:00.381849Z,1697902500381
-0.23732222616672516,0.11067942529916763,0.03112858720123768,2023-10-21T15:35:00.382567Z,1697902500382
-0.25275349617004395,0.0905921682715416,0.013834928162395954,2023-10-21T15:35:00.383704Z,1697902500383
-0.29638671875,0.06066083908081055,-0.011972533538937569,2023-10-21T15:35:00.391883Z,1697902500391
-0.31913453340530396,0.016229433938860893,-0.035651545971632004,2023-10-21T15:35:00.415268Z,1697902500415
-0.348400741815567,-0.04070661589503288,-0.06212414801120758,2023-10-21T15:35:00.415929Z,1697902500415
-0.3835201561450958,-0.10708766430616379,-0.091656394302845,2023-10-21T15:35:00.423067Z,1697902500423
-0.4226304292678833,-0.17958800494670868,-0.12345012277364731,2023-10-21T15:35:00.447551Z,1697902500447
-0.4633370637893677,-0.25501495599746704,-0.1547117382287979,2023-10-21T15:35:00.449247Z,1697902500449
-0.5024473071098328,-0.3283134698867798,-0.1827806830406189,2023-10-21T15:35:00.452851Z,1697902500452
-0.5366355776786804,-0.3940293788909912,-0.20606060326099396,2023-10-21T15:35:00.495953Z,1697902500495
-0.5627090930938721,-0.4488369822502136,-0.22308820486068726,2023-10-21T15:35:00.496717Z,1697902500496
-0.57734215259552,-0.48768121004104614,-0.23240017890930176,2023-10-21T15:35:00.497967Z,1697902500497
-0.5776082277297974,-0.504176676273346,-0.23186807334423065,2023-10-21T15:35:00.498592Z,1697902500498
-0.5621769428253174,-0.49366748332977295,-0.22082673013210297,2023-10-21T15:35:00.504181Z,1697902500504
-0.5323786735534668,-0.45854803919792175,-0.20047342777252197,2023-10-21T15:35:00.514052Z,1697902500513
-0.4765068292617798,-0.40360742807388306,-0.17439991235733032,2023-10-21T15:35:00.524620Z,1697902500524
-0.40693312883377075,-0.3446759283542633,-0.14899152517318726,2023-10-21T15:35:00.547440Z,1697902500547
-0.36662557721138,-0.26805171370506287,-0.10788583010435104,2023-10-21T15:35:00.549168Z,1697902500549
-0.3243226408958435,-0.17745955288410187,-0.06079386547207832,2023-10-21T15:35:00.554280Z,1697902500554
-0.25594615936279297,-0.09511512517929077,-0.026738658547401428,2023-10-21T15:35:00.585355Z,1697902500585
-0.18796877562999725,-0.014367040246725082,0.004655985161662102,2023-10-21T15:35:00.586179Z,1697902500586
-0.12305103987455368,0.061991117894649506,0.03325703740119934,2023-10-21T15:35:00.587489Z,1697902500587
-0.06372048705816269,0.13036759197711945,0.05959661304950714,2023-10-21T15:35:00.597116Z,1697902500597
-0.012371618300676346,0.18703758716583252,0.08380773663520813,2023-10-21T15:35:00.605766Z,1697902500605
0.029665278270840645,0.23067080974578857,0.10562435537576675,2023-10-21T15:35:00.615278Z,1697902500615
0.06159203499555588,0.26219847798347473,0.12464737892150879,2023-10-21T15:35:00.630326Z,1697902500630
0.08407378941774368,0.2833499610424042,0.1404777318239212,2023-10-21T15:35:00.635287Z,1697902500635
0.09777569025754929,0.2942582666873932,0.1531154066324234,2023-10-21T15:35:00.647928Z,1697902500647
0.10442709922790527,0.29625368118286133,0.16269342601299286,2023-10-21T15:35:00.655456Z,1697902500655
0.10602343827486038,0.29252889752388,0.16947786509990692,2023-10-21T15:35:00.666623Z,1697902500666
0.10509224236011505,0.28680869936943054,0.17413385212421417,2023-10-21T15:35:00.680310Z,1697902500680
0.10349590331315994,0.28122150897979736,0.1778586357831955,2023-10-21T15:35:00.686573Z,1697902500686
0.10269773006439209,0.27736368775367737,0.18184947967529297,2023-10-21T15:35:00.696963Z,1697902500696
0.10402801632881165,0.2766985595226288,0.18690454959869385,2023-10-21T15:35:00.706796Z,1697902500706
0.10828491300344467,0.2810884714126587,0.19395504891872406,2023-10-21T15:35:00.716344Z,1697902500716
0.11573449522256851,0.2904004454612732,0.20353306829929352,2023-10-21T15:35:00.731116Z,1697902500731
0.12531252205371857,0.3025060296058655,0.21590469777584076,2023-10-21T15:35:00.736528Z,1697902500736
0.13568872213363647,0.3166069984436035,0.23080384731292725,2023-10-21T15:35:00.747845Z,1697902500747
0.14553280174732208,0.3321712911128998,0.2470332831144333,2023-10-21T15:35:00.756705Z,1697902500756
0.15338145196437836,0.34720346331596375,0.26273059844970703,2023-10-21T15:35:00.767914Z,1697902500767
0.15710625052452087,0.3573136031627655,0.2766985595226288,2023-10-21T15:35:00.780163Z,1697902500780
0.15497779846191406,0.35771268606185913,0.2881389856338501,2023-10-21T15:35:00.787898Z,1697902500787
0.14619794487953186,0.3462722897529602,0.29665279388427734,2023-10-21T15:35:00.797442Z,1697902500797
0.13103273510932922,0.3231253921985626,0.30170783400535583,2023-10-21T15:35:00.808096Z,1697902500808
0.11174365133047104,0.2921298146247864,0.30370327830314636,2023-10-21T15:35:00.817733Z,1697902500817
0.0911242812871933,0.25820764899253845,0.30317115783691406,2023-10-21T15:35:00.831178Z,1697902500831
0.07263337075710297,0.2266799658536911,0.30157482624053955,2023-10-21T15:35:00.837827Z,1697902500837
0.05893146991729736,0.20073948800563812,0.3006436228752136,2023-10-21T15:35:00.849010Z,1697902500848
0.052546121180057526,0.18211553990840912,0.30223995447158813,2023-10-21T15:35:00.858083Z,1697902500858
0.05560576915740967,0.17187237739562988,0.3084922730922699,2023-10-21T15:35:00.869285Z,1697902500869
0.0691746398806572,0.1706751137971878,0.3211299479007721,2023-10-21T15:35:00.880174Z,1697902500880
0.09378484636545181,0.17918892204761505,0.34055206179618835,2023-10-21T15:35:00.889086Z,1697902500889
0.12863822281360626,0.1986110359430313,0.3659604489803314,2023-10-21T15:35:00.898735Z,1697902500898
0.17280356585979462,0.22987264394760132,0.3957587480545044,2023-10-21T15:35:00.914420Z,1697902500914
0.22322124242782593,0.2700471580028534,0.42728641629219055,2023-10-21T15:35:00.918990Z,1697902500918
0.27643251419067383,0.3123500943183899,0.45801591873168945,2023-10-21T15:35:00.931092Z,1697902500931
0.32844650745391846,0.35106128454208374,0.4852867126464844,2023-10-21T15:35:00.939112Z,1697902500939
0.3766027092933655,0.3825889527797699,0.5075023770332336,2023-10-21T15:35:00.950310Z,1697902500950
0.4193047285079956,0.40480467677116394,0.5243969559669495,2023-10-21T15:35:00.963431Z,1697902500963
0.4556214213371277,0.41637811064720154,0.5367686152458191,2023-10-21T15:35:00.970280Z,1697902500970
0.485685795545578,0.41784143447875977,0.5462135672569275,2023-10-21T15:35:00.980370Z,1697902500980
0.5102959871292114,0.41132304072380066,0.5540622472763062,2023-10-21T15:35:00.990502Z,1697902500990
0.5301172137260437,0.39988261461257935,0.5616448521614075,2023-10-21T15:35:01.000045Z,1697902501000
0.5463466048240662,0.3875110149383545,0.5696265697479248,2023-10-21T15:35:01.014259Z,1697902501014
0.5596494078636169,0.3776669204235077,0.578140377998352,2023-10-21T15:35:01.020214Z,1697902501020
0.5702916979789734,0.37128156423568726,0.5878514051437378,2023-10-21T15:35:01.031394Z,1697902501031
0.577741265296936,0.36635953187942505,0.5987597107887268,2023-10-21T15:35:01.040355Z,1697902501040
0.5817320942878723,0.3610384166240692,0.6111313104629517,2023-10-21T15:35:01.051671Z,1697902501051
0.5826632976531982,0.35545122623443604,0.6241680979728699,2023-10-21T15:35:01.063308Z,1697902501063
0.5814660787582397,0.3491989076137543,0.6366727352142334,2023-10-21T15:35:01.071476Z,1697902501071
0.5788055062294006,0.3418823480606079,0.6474480032920837,2023-10-21T15:35:01.081101Z,1697902501081
0.5754798054695129,0.3332355320453644,0.6554297208786011,2023-10-21T15:35:01.096579Z,1697902501096
0.5712229013442993,0.322726309299469,0.6599526405334473,2023-10-21T15:35:01.101308Z,1697902501101
0.5647044777870178,0.30809319019317627,0.6606178283691406,2023-10-21T15:35:01.114221Z,1697902501114
0.5536631941795349,0.2880059480667114,0.6576911807060242,2023-10-21T15:35:01.121506Z,1697902501121
0.5375667810440063,0.2628636360168457,0.6517049074172974,2023-10-21T15:35:01.145348Z,1697902501145
0.5160161852836609,0.23412954807281494,0.6433241367340088,2023-10-21T15:35:01.145981Z,1697902501145
0.4884793758392334,0.20206975936889648,0.633613109588623,2023-10-21T15:35:01.152602Z,1697902501152
0.45415809750556946,0.166817307472229,0.6236359477043152,2023-10-21T15:35:01.163376Z,1697902501163
0.41305240988731384,0.12930336594581604,0.6139249205589294,2023-10-21T15:35:01.172802Z,1697902501172
0.36516228318214417,0.09139034152030945,0.6052780747413635,2023-10-21T15:35:01.196784Z,1697902501196
0.3112858831882477,0.05400943011045456,0.5979615449905396,2023-10-21T15:35:01.198706Z,1697902501198
0.25288650393486023,0.017426688224077225,0.5921083092689514,2023-10-21T15:35:01.202581Z,1697902501202
0.19142751395702362,-0.01849091239273548,0.5879844427108765,2023-10-21T15:35:01.231432Z,1697902501231
0.12930336594581604,-0.05281217768788338,0.5855899453163147,2023-10-21T15:35:01.232082Z,1697902501232
0.0691746398806572,-0.0839407667517662,0.5838605761528015,2023-10-21T15:35:01.233668Z,1697902501233
0.014500068500638008,-0.11014731228351593,0.5814660787582397,2023-10-21T15:35:01.265242Z,1697902501265
-0.03139464557170868,-0.1306336522102356,0.5769430994987488,2023-10-21T15:35:01.267049Z,1697902501267
-0.0663810446858406,-0.14526674151420593,0.5696265697479248,2023-10-21T15:35:01.267616Z,1697902501267
-0.08966097235679626,-0.15497779846191406,0.559117317199707,2023-10-21T15:35:01.274230Z,1697902501274
-0.10136745125055313,-0.1608310341835022,0.5452824234962463,2023-10-21T15:35:01.310774Z,1697902501310
-0.10203259438276291,-0.16495491564273834,0.5275896787643433,2023-10-21T15:35:01.312463Z,1697902501312
-0.09258759021759033,-0.16841363906860352,0.5065711736679077,2023-10-21T15:35:01.313025Z,1697902501313
-0.07449576258659363,-0.17080815136432648,0.4830252230167389,2023-10-21T15:35:01.314720Z,1697902501314
-0.048821330070495605,-0.17027603089809418,0.45801591873168945,2023-10-21T15:35:01.324065Z,1697902501324
-0.017426688224077225,-0.16601912677288055,0.4324745237827301,2023-10-21T15:35:01.335441Z,1697902501335
0.017160631716251373,-0.15843652188777924,0.4073322117328644,2023-10-21T15:35:01.363328Z,1697902501363
0.051614921540021896,-0.14885850250720978,0.3835201561450958,2023-10-21T15:35:01.365045Z,1697902501365
0.08407378941774368,-0.1378171592950821,0.36196959018707275,2023-10-21T15:35:01.365634Z,1697902501365
0.11400512605905533,-0.12451434880495071,0.3434786796569824,2023-10-21T15:35:01.398578Z,1697902501398
0.1416749805212021,-0.10881702601909637,0.32857954502105713,2023-10-21T15:35:01.399664Z,1697902501399
0.16641822457313538,-0.0921885073184967,0.31740516424179077,2023-10-21T15:35:01.400861Z,1697902501400
0.18703758716583252,-0.07702329754829407,0.3088913559913635,2023-10-21T15:35:01.405115Z,1697902501405
0.2030009627342224,-0.06465168297290802,0.30104270577430725,2023-10-21T15:35:01.416395Z,1697902501416
0.2140422910451889,-0.056004852056503296,0.29173073172569275,2023-10-21T15:35:01.429669Z,1697902501429
0.21976250410079956,-0.0526791475713253,0.2800242602825165,2023-10-21T15:35:01.436461Z,1697902501436
0.2052624374628067,-0.04855527728796005,0.2535516619682312,2023-10-21T15:35:01.446499Z,1697902501446
0.20286792516708374,-0.05693604797124863,0.24171215295791626,2023-10-21T15:35:01.456556Z,1697902501456
0.20073948800563812,-0.06425260007381439,0.2316020131111145,2023-10-21T15:35:01.466171Z,1697902501466
0.1970146894454956,-0.07223428785800934,0.2217579334974289,2023-10-21T15:35:01.480741Z,1697902501480
0.1938220113515854,-0.0790187194943428,0.21324412524700165,2023-10-21T15:35:01.486299Z,1697902501486
0.20286792516708374,-0.06797738373279572,0.2112487107515335,2023-10-21T15:35:01.497393Z,1697902501497
0.23639102280139923,-0.04895436018705368,0.22628088295459747,2023-10-21T15:35:01.506447Z,1697902501506
0.25541403889656067,-0.018756968900561333,0.22867539525032043,2023-10-21T15:35:01.517701Z,1697902501517
0.2735058665275574,0.011839505285024643,0.23279926180839539,2023-10-21T15:35:01.529577Z,1697902501529
0.28614354133605957,0.03738091140985489,0.23679010570049286,2023-10-21T15:35:01.537569Z,1697902501537
0.29159772396087646,0.05587182566523552,0.23891855776309967,2023-10-21T15:35:01.547170Z,1697902501547
0.2897353172302246,0.06757830083370209,0.23798736929893494,2023-10-21T15:35:01.558053Z,1697902501558
0.28029030561447144,0.07316548377275467,0.2338634878396988,2023-10-21T15:35:01.567470Z,1697902501567
0.26326271891593933,0.0730324536561966,0.22734510898590088,2023-10-21T15:35:01.580520Z,1697902501580
0.23426257073879242,0.0663810446858406,0.20725786685943604,2023-10-21T15:35:01.587532Z,1697902501587
0.2041982114315033,0.05733513459563255,0.2031339854001999,2023-10-21T15:35:01.598839Z,1697902501598
0.17852377891540527,0.04961949959397316,0.19967526197433472,2023-10-21T15:35:01.607819Z,1697902501607
0.14500068128108978,0.039110276848077774,0.19528532028198242,2023-10-21T15:35:01.619099Z,1697902501619
0.11639963090419769,0.030330419540405273,0.1915605366230011,2023-10-21T15:35:01.629706Z,1697902501629
0.0823444277048111,0.017825772985816002,0.18424399197101593,2023-10-21T15:35:01.638966Z,1697902501638
0.05334429070353508,0.007316548377275467,0.17812469601631165,2023-10-21T15:35:01.648522Z,1697902501648
0.018756968900561333,-0.009844083338975906,0.1673494130373001,2023-10-21T15:35:01.663878Z,1697902501663
-0.010642251931130886,-0.024610208347439766,0.15817047655582428,2023-10-21T15:35:01.668647Z,1697902501668
-0.042169924825429916,-0.037513937801122665,0.14473463594913483,2023-10-21T15:35:01.680755Z,1697902501680
-0.08952794969081879,-0.05773421749472618,0.1366199105978012,2023-10-21T15:35:01.688815Z,1697902501688
-0.11985836178064346,-0.06850949674844742,0.12305103987455368,2023-10-21T15:35:01.700086Z,1697902501700
-0.1497897058725357,-0.07941780984401703,0.11041336506605148,2023-10-21T15:35:01.713004Z,1697902501712
-0.17573018372058868,-0.0883306935429573,0.09830780327320099,2023-10-21T15:35:01.719999Z,1697902501719
-0.19515229761600494,-0.09444998949766159,0.08606921136379242,2023-10-21T15:35:01.729555Z,1697902501729
-0.20672574639320374,-0.09790872037410736,0.0730324536561966,2023-10-21T15:35:01.740160Z,1697902501740
-0.19501927495002747,-0.09178942441940308,0.0614590048789978,2023-10-21T15:35:01.749809Z,1697902501749
-0.18850089609622955,-0.0883306935429573,0.04616076871752739,2023-10-21T15:35:01.763915Z,1697902501763
-0.18304674327373505,-0.08540407568216324,0.033124011009931564,2023-10-21T15:35:01.769902Z,1697902501769
-0.15630808472633362,-0.0730324536561966,0.028334995731711388,2023-10-21T15:35:01.781172Z,1697902501781
-0.11945927888154984,-0.05454154312610626,0.0039908443577587605,2023-10-21T15:35:01.790154Z,1697902501790
-0.08793161064386368,-0.038711193948984146,-0.016894575208425522,2023-10-21T15:35:01.801422Z,1697902501801
-0.05281217768788338,-0.027536828070878983,-0.03205978497862816,2023-10-21T15:35:01.812916Z,1697902501812
-0.022747814655303955,-0.018091829493641853,-0.045096542686223984,2023-10-21T15:35:01.821299Z,1697902501821
-0.004522957373410463,-0.016096405684947968,-0.05866541340947151,2023-10-21T15:35:01.830883Z,1697902501830
0.011041336692869663,-0.014500068500638008,-0.07037189602851868,2023-10-21T15:35:01.846425Z,1697902501846
0.00784866139292717,-0.021417532116174698,-0.08034900575876236,2023-10-21T15:35:01.851063Z,1697902501851
0.005188097711652517,-0.027403799816966057,-0.08872977644205093,2023-10-21T15:35:01.863882Z,1697902501863
-0.005853238515555859,-0.028734080493450165,-0.08819766342639923,2023-10-21T15:35:01.871226Z,1697902501871
-0.015298237092792988,-0.02979830652475357,-0.08766555041074753,2023-10-21T15:35:01.882486Z,1697902501882
-0.0130367586389184,-0.025541406124830246,-0.07489485293626785,2023-10-21T15:35:01.896275Z,1697902501896
-0.011307393200695515,0.010376195423305035,-0.04908738657832146,2023-10-21T15:35:01.902462Z,1697902501902
-0.0011972533538937569,0.06411956995725632,-0.01144042145460844,2023-10-21T15:35:01.912828Z,1697902501912
0.018623940646648407,0.10522526502609253,0.027137743309140205,2023-10-21T15:35:01.922632Z,1697902501922
0.03924330323934555,0.14726217091083527,0.07050491869449615,2023-10-21T15:35:01.932170Z,1697902501932
0.05879844352602959,0.18903300166130066,0.11613357812166214,2023-10-21T15:35:01.947185Z,1697902501947
0.07569301873445511,0.22907447814941406,0.1618952602148056,2023-10-21T15:35:01.952407Z,1697902501952
0.0877985805273056,0.26485905051231384,0.20592758059501648,2023-10-21T15:35:01.963946Z,1697902501963
0.09258759021759033,0.29385918378829956,0.2458360195159912,2023-10-21T15:35:01.972504Z,1697902501972
0.08899583667516708,0.3140794634819031,0.27962517738342285,2023-10-21T15:35:01.983791Z,1697902501983
0.07635816186666489,0.3244556486606598,0.30543264746665955,2023-10-21T15:35:01.996154Z,1697902501996
0.05467456951737404,0.32299235463142395,0.32192811369895935,2023-10-21T15:35:02.003688Z,1697902502003
0.02381203882396221,0.3078271448612213,0.3287125527858734,2023-10-21T15:35:02.013214Z,1697902502013
-0.016229433938860893,0.2782948911190033,0.326185017824173,2023-10-21T15:35:02.023869Z,1697902502023
-0.06491773575544357,0.23532679677009583,0.31580883264541626,2023-10-21T15:35:02.033512Z,1697902502033
-0.12145470082759857,0.18198251724243164,0.29997849464416504,2023-10-21T15:35:02.046968Z,1697902502046
-0.18238160014152527,0.12398223578929901,0.281620591878891,2023-10-21T15:35:02.053608Z,1697902502053
-0.24277637898921967,0.06784436106681824,0.26326271891593933,2023-10-21T15:35:02.064836Z,1697902502064
-0.2986482083797455,0.017692744731903076,0.24743236601352692,2023-10-21T15:35:02.073827Z,1697902502073
-0.34720346331596375,-0.023146897554397583,0.23679010570049286,2023-10-21T15:35:02.085119Z,1697902502085
-0.3868458569049835,-0.054142456501722336,0.23186807334423065,2023-10-21T15:35:02.096128Z,1697902502096
-0.41677719354629517,-0.07569301873445511,0.2316020131111145,2023-10-21T15:35:02.104979Z,1697902502104
-0.4367314279079437,-0.08952794969081879,0.2338634878396988,2023-10-21T15:35:02.114550Z,1697902502114
-0.4468415677547455,-0.09750963747501373,0.23572587966918945,2023-10-21T15:35:02.130259Z,1697902502130
-0.4473736882209778,-0.10136745125055313,0.23612496256828308,2023-10-21T15:35:02.134716Z,1697902502134
-0.4396580457687378,-0.10322984308004379,0.23412954807281494,2023-10-21T15:35:02.146977Z,1697902502146
-0.4243597984313965,-0.10456012934446335,0.2294735610485077,2023-10-21T15:35:02.154921Z,1697902502154
-0.4013459384441376,-0.10522526502609253,0.2222900390625,2023-10-21T15:35:02.166252Z,1697902502166
-0.35930904746055603,-0.09750963747501373,0.20220279693603516,2023-10-21T15:35:02.179476Z,1697902502179
-0.3190014958381653,-0.0905921682715416,0.19395504891872406,2023-10-21T15:35:02.186089Z,1697902502186
-0.28454720973968506,-0.08460590243339539,0.18703758716583252,2023-10-21T15:35:02.195928Z,1697902502195
-0.23080384731292725,-0.07263337075710297,0.17652836441993713,2023-10-21T15:35:02.206315Z,1697902502206
-0.1849091351032257,-0.06252323091030121,0.16761547327041626,2023-10-21T15:35:02.215872Z,1697902502215
-0.15790441632270813,-0.053477317094802856,0.14313828945159912,2023-10-21T15:35:02.230249Z,1697902502230
-0.10615646839141846,-0.059463582932949066,0.13954652845859528,2023-10-21T15:35:02.236020Z,1697902502235
-0.061991117894649506,-0.06465168297290802,0.13648688793182373,2023-10-21T15:35:02.247233Z,1697902502247
-0.052945204079151154,-0.05520668253302574,0.11653266102075577,2023-10-21T15:35:02.256259Z,1697902502256
-0.0055871824733912945,-0.054807599633932114,0.10668858140707016,2023-10-21T15:35:02.267483Z,1697902502267
0.03485337644815445,-0.05454154312610626,0.09817477315664291,2023-10-21T15:35:02.279477Z,1697902502279
0.06398653984069824,-0.043500207364559174,0.08274351060390472,2023-10-21T15:35:02.287350Z,1697902502287
0.08899583667516708,-0.034055206924676895,0.06957372277975082,2023-10-21T15:35:02.296928Z,1697902502296
0.11094547808170319,-0.030995558947324753,0.04749105125665665,2023-10-21T15:35:02.312526Z,1697902502312
0.14566582441329956,-0.03525245934724808,0.016229433938860893,2023-10-21T15:35:02.317165Z,1697902502317
0.1541796326637268,-0.04842224717140198,-0.015963377431035042,2023-10-21T15:35:02.330177Z,1697902502330
0.15684019029140472,-0.06944069266319275,-0.0526791475713253,2023-10-21T15:35:02.337257Z,1697902502337
0.15391357243061066,-0.09724357724189758,-0.09245456755161285,2023-10-21T15:35:02.348533Z,1697902502348
0.14752821624279022,-0.12863822281360626,-0.13302814960479736,2023-10-21T15:35:02.362615Z,1697902502362
0.13928046822547913,-0.16003286838531494,-0.17187237739562988,2023-10-21T15:35:02.368617Z,1697902502368
0.13103273510932922,-0.18836785852909088,-0.2068587690591812,2023-10-21T15:35:02.379135Z,1697902502379
0.12438131868839264,-0.21084962785243988,-0.2365240603685379,2023-10-21T15:35:02.388775Z,1697902502388
0.12092258781194687,-0.22628088295459747,-0.2607351839542389,2023-10-21T15:35:02.398293Z,1697902502398
0.12105561792850494,-0.23479469120502472,-0.2798912227153778,2023-10-21T15:35:02.413820Z,1697902502413
0.12557858228683472,-0.2365240603685379,-0.2951894700527191,2023-10-21T15:35:02.418473Z,1697902502418
0.1355556845664978,-0.2305377870798111,-0.30796018242836,2023-10-21T15:35:02.430130Z,1697902502430
0.15191814303398132,-0.21776708960533142,-0.3194005787372589,2023-10-21T15:35:02.438581Z,1697902502438
0.17386779189109802,-0.2008725106716156,-0.32964375615119934,2023-10-21T15:35:02.449873Z,1697902502449
0.20047342777252197,-0.18291370570659637,-0.3385566473007202,2023-10-21T15:35:02.462373Z,1697902502462
0.23133595287799835,-0.16428977251052856,-0.3457401692867279,2023-10-21T15:35:02.469687Z,1697902502469
0.266854465007782,-0.14433553814888,-0.35092827677726746,2023-10-21T15:35:02.479247Z,1697902502479
0.30609777569770813,-0.12278498709201813,-0.35372185707092285,2023-10-21T15:35:02.489997Z,1697902502489
0.3462722897529602,-0.10110139846801758,-0.3534558117389679,2023-10-21T15:35:02.499578Z,1697902502499
0.3840522766113281,-0.07994992285966873,-0.3497309982776642,2023-10-21T15:35:02.513330Z,1697902502513
0.4171762764453888,-0.05893146991729736,-0.3429465889930725,2023-10-21T15:35:02.519651Z,1697902502519
0.44418099522590637,-0.03791302442550659,-0.33336853981018066,2023-10-21T15:35:02.530922Z,1697902502530
0.46347007155418396,-0.01849091239273548,-0.3209969401359558,2023-10-21T15:35:02.539854Z,1697902502539
0.4737132489681244,-0.0027935912366956472,-0.30609777569770813,2023-10-21T15:35:02.551200Z,1697902502551
0.4749104976654053,0.008380773477256298,-0.2897353172302246,2023-10-21T15:35:02.562354Z,1697902502562
0.4675939679145813,0.014367040246725082,-0.27257469296455383,2023-10-21T15:35:02.571094Z,1697902502571
0.4528278410434723,0.015165209770202637,-0.25488194823265076,2023-10-21T15:35:02.580628Z,1697902502580
0.4320754408836365,0.011972533538937569,-0.23692314326763153,2023-10-21T15:35:02.591406Z,1697902502591
0.3897724747657776,0.009045914746820927,-0.211381733417511,2023-10-21T15:35:02.600808Z,1697902502600
0.3632998764514923,0.004389929119497538,-0.1936889886856079,2023-10-21T15:35:02.613297Z,1697902502613
0.340685099363327,3.990844707004726E-4,-0.17852377891540527,2023-10-21T15:35:02.620977Z,1697902502620
0.2909325659275055,2.6605630409903824E-4,-0.15245026350021362,2023-10-21T15:35:02.632245Z,1697902502632
0.24849659204483032,2.6605630409903824E-4,-0.13023455440998077,2023-10-21T15:35:02.645589Z,1697902502645
0.23479469120502472,0.0039908443577587605,-0.09391787648200989,2023-10-21T15:35:02.652282Z,1697902502652
0.22601483762264252,0.01556429360061884,-0.04562865570187569,2023-10-21T15:35:02.662147Z,1697902502662
0.2003403902053833,0.0345873199403286,0.0014633096288889647,2023-10-21T15:35:02.672398Z,1697902502672
0.18251462280750275,0.061325978487730026,0.05188097804784775,2023-10-21T15:35:02.681933Z,1697902502681
0.1740008294582367,0.09484907239675522,0.10269773006439209,2023-10-21T15:35:02.696651Z,1697902502696
0.17333568632602692,0.13143181800842285,0.15178512036800385,2023-10-21T15:35:02.702136Z,1697902502702
0.17865680158138275,0.16721639037132263,0.19728074967861176,2023-10-21T15:35:02.713287Z,1697902502713
0.18983116745948792,0.2008725106716156,0.2375882863998413,2023-10-21T15:35:02.722286Z,1697902502722
0.20845511555671692,0.23359742760658264,0.2723086178302765,2023-10-21T15:35:02.733601Z,1697902502733
0.23665708303451538,0.26751962304115295,0.30170783400535583,2023-10-21T15:35:02.745468Z,1697902502745
0.274304062128067,0.30317115783691406,0.3272492587566376,2023-10-21T15:35:02.753518Z,1697902502753
0.32033178210258484,0.3402860164642334,0.34946495294570923,2023-10-21T15:35:02.762984Z,1697902502762
0.37354305386543274,0.37846508622169495,0.3683549463748932,2023-10-21T15:35:02.773641Z,1697902502773
0.4314102828502655,0.41571298241615295,0.38272199034690857,2023-10-21T15:35:02.783294Z,1697902502783
0.49034178256988525,0.44870394468307495,0.3912357985973358,2023-10-21T15:35:02.796475Z,1697902502796
0.5452824234962463,0.474112331867218,0.39203396439552307,2023-10-21T15:35:02.803403Z,1697902502803
0.5919752717018127,0.4894105792045593,0.3835201561450958,2023-10-21T15:35:02.814745Z,1697902502814
0.6280258893966675,0.492736279964447,0.3648962080478668,2023-10-21T15:35:02.823592Z,1697902502823
0.6509067416191101,0.4823600649833679,0.33682727813720703,2023-10-21T15:35:02.835024Z,1697902502834
0.6602187156677246,0.4581489562988281,0.3018408715724945,2023-10-21T15:35:02.845418Z,1697902502845
0.6568930149078369,0.42183226346969604,0.2628636360168457,2023-10-21T15:35:02.854678Z,1697902502854
0.6435902118682861,0.37740087509155273,0.22348730266094208,2023-10-21T15:35:02.864299Z,1697902502864
0.6241680979728699,0.3303089141845703,0.1861063838005066,2023-10-21T15:35:02.879700Z,1697902502879
0.6027505397796631,0.2860105335712433,0.1509869545698166,2023-10-21T15:35:02.884486Z,1697902502884
0.5826632976531982,0.24823053181171417,0.11812900006771088,2023-10-21T15:35:02.896257Z,1697902502896
0.5643054246902466,0.2184322327375412,0.0883306935429573,2023-10-21T15:35:02.904644Z,1697902502904
0.5459475517272949,0.19634954631328583,0.06305534392595291,2023-10-21T15:35:02.915927Z,1697902502915
0.525993287563324,0.181583434343338,0.04296809434890747,2023-10-21T15:35:02.928738Z,1697902502928
0.5043097138404846,0.17253752052783966,0.026738658547401428,2023-10-21T15:35:02.935787Z,1697902502935
0.4808967709541321,0.166817307472229,0.011174364946782589,2023-10-21T15:35:02.945411Z,1697902502945
0.45535537600517273,0.16202828288078308,-0.006651407573372126,2023-10-21T15:35:02.955990Z,1697902502955
0.42515796422958374,0.15431265532970428,-0.028468023985624313,2023-10-21T15:35:02.965617Z,1697902502965
0.37846508622169495,0.13795019686222076,-0.037513937801122665,2023-10-21T15:35:02.979588Z,1697902502979
0.329776793718338,0.10682160407304764,-0.0691746398806572,2023-10-21T15:35:02.985760Z,1697902502985
0.28175362944602966,0.06026175245642662,-0.12078956514596939,2023-10-21T15:35:02.996928Z,1697902502996
0.22521665692329407,0.004389929119497538,-0.15564294159412384,2023-10-21T15:35:03.005920Z,1697902503005
0.17573018372058868,-0.05374337360262871,-0.18983116745948792,2023-10-21T15:35:03.017227Z,1697902503017
0.14114287495613098,-0.10495921224355698,-0.21989554166793823,2023-10-21T15:35:03.028754Z,1697902503028
0.12704189121723175,-0.14140892028808594,-0.24237729609012604,2023-10-21T15:35:03.037127Z,1697902503037
0.1344914585351944,-0.15896864235401154,-0.2552810311317444,2023-10-21T15:35:03.046665Z,1697902503046
0.16162919998168945,-0.15657413005828857,-0.2579415738582611,2023-10-21T15:35:03.061892Z,1697902503061
0.2036661058664322,-0.13648688793182373,-0.25102412700653076,2023-10-21T15:35:03.066940Z,1697902503066
0.2551479935646057,-0.10176653414964676,-0.23679010570049286,2023-10-21T15:35:03.079850Z,1697902503079
0.3095565140247345,-0.0570690780878067,-0.2179001122713089,2023-10-21T15:35:03.087197Z,1697902503087
0.35970813035964966,-0.00944499857723713,-0.19741377234458923,2023-10-21T15:35:03.098399Z,1697902503098
0.39988261461257935,0.03432126343250275,-0.17759257555007935,2023-10-21T15:35:03.111851Z,1697902503111
0.42715340852737427,0.0697067528963089,-0.16003286838531494,2023-10-21T15:35:03.118311Z,1697902503118
0.44152042269706726,0.09564723819494247,-0.14526674151420593,2023-10-21T15:35:03.128579Z,1697902503128
0.4436488747596741,0.1125418171286583,-0.1332942098379135,2023-10-21T15:35:03.138438Z,1697902503138
0.43606626987457275,0.12251892685890198,-0.12384921312332153,2023-10-21T15:35:03.148003Z,1697902503147
0.42130014300346375,0.1283721625804901,-0.11613357812166214,2023-10-21T15:35:03.162747Z,1697902503162
0.38232290744781494,0.12092258781194687,-0.10442709922790527,2023-10-21T15:35:03.168164Z,1697902503168
0.3601072132587433,0.12690885365009308,-0.09564723819494247,2023-10-21T15:35:03.179419Z,1697902503179
0.3535888195037842,0.14673005044460297,-0.08966097235679626,2023-10-21T15:35:03.188290Z,1697902503188
0.3237905204296112,0.15817047655582428,-0.07888569682836533,2023-10-21T15:35:03.199576Z,1697902503199
0.29119861125946045,0.17426687479019165,-0.06811041384935379,2023-10-21T15:35:03.211830Z,1697902503211
0.2535516619682312,0.19169357419013977,-0.05720210447907448,2023-10-21T15:35:03.219578Z,1697902503219
0.21603772044181824,0.18570730090141296,-0.047890134155750275,2023-10-21T15:35:03.229045Z,1697902503228
0.1636246293783188,0.19847799837589264,-0.036582741886377335,2023-10-21T15:35:03.239716Z,1697902503239
0.11866111308336258,0.20951934158802032,-0.026871686801314354,2023-10-21T15:35:03.249315Z,1697902503249
0.06318837404251099,0.20951934158802032,-0.021550560370087624,2023-10-21T15:35:03.262688Z,1697902503262
0.01569732278585434,0.2096523642539978,-0.017027603462338448,2023-10-21T15:35:03.269464Z,1697902503269
-0.03445428982377052,0.19608350098133087,-0.02008725143969059,2023-10-21T15:35:03.280653Z,1697902503280
-0.07742238789796829,0.1843770146369934,-0.022747814655303955,2023-10-21T15:35:03.289621Z,1697902503289
-0.11892716586589813,0.15777139365673065,-0.031527671962976456,2023-10-21T15:35:03.300913Z,1697902503300
-0.1799870878458023,0.13089969754219055,-0.0477571077644825,2023-10-21T15:35:03.311793Z,1697902503311
-0.20446427166461945,0.10216562449932098,-0.05933055654168129,2023-10-21T15:35:03.320799Z,1697902503320
-0.22375334799289703,0.07476182281970978,-0.07156914472579956,2023-10-21T15:35:03.330381Z,1697902503330
-0.23812039196491241,0.04948647320270538,-0.08407378941774368,2023-10-21T15:35:03.346078Z,1697902503346
-0.24769842624664307,0.02633957378566265,-0.09684449434280396,2023-10-21T15:35:03.350565Z,1697902503350
-0.25395074486732483,0.0035917600616812706,-0.1092161163687706,2023-10-21T15:35:03.362703Z,1697902503362
-0.25927186012268066,-0.02101844735443592,-0.11999139189720154,2023-10-21T15:35:03.370773Z,1697902503370
-0.2644599676132202,-0.048156190663576126,-0.1283721625804901,2023-10-21T15:35:03.381959Z,1697902503381
-0.2679187059402466,-0.07555998861789703,-0.13515660166740417,2023-10-21T15:35:03.395124Z,1697902503395
-0.26805171370506287,-0.10056928545236588,-0.14087681472301483,2023-10-21T15:35:03.401826Z,1697902503401
-0.2640608847141266,-0.12145470082759857,-0.14579886198043823,2023-10-21T15:35:03.411793Z,1697902503411
-0.25647827982902527,-0.13768413662910461,-0.1497897058725357,2023-10-21T15:35:03.422119Z,1697902503422
-0.2453039139509201,-0.14845941960811615,-0.15245026350021362,2023-10-21T15:35:03.431698Z,1697902503431
-0.23173503577709198,-0.15391357243061066,-0.15324842929840088,2023-10-21T15:35:03.445967Z,1697902503445
-0.21856525540351868,-0.15630808472633362,-0.1515190601348877,2023-10-21T15:35:03.451869Z,1697902503451
-0.20991842448711395,-0.15830349922180176,-0.1460649073123932,2023-10-21T15:35:03.463262Z,1697902503463
-0.20765694975852966,-0.16003286838531494,-0.13688597083091736,2023-10-21T15:35:03.471983Z,1697902503471
-0.21164779365062714,-0.15883561968803406,-0.12504646182060242,2023-10-21T15:35:03.483431Z,1697902503483
-0.22135885059833527,-0.15231724083423615,-0.11214273422956467,2023-10-21T15:35:03.494883Z,1697902503494
-0.2377213090658188,-0.14127589762210846,-0.09844083338975906,2023-10-21T15:35:03.503354Z,1697902503503
-0.2612673044204712,-0.12850520014762878,-0.0839407667517662,2023-10-21T15:35:03.512752Z,1697902503512
-0.29106560349464417,-0.11560146510601044,-0.06850949674844742,2023-10-21T15:35:03.523416Z,1697902503523
-0.3243226408958435,-0.10309682041406631,-0.052945204079151154,2023-10-21T15:35:03.533067Z,1697902503533
-0.35757967829704285,-0.09099125862121582,-0.038445137441158295,2023-10-21T15:35:03.546351Z,1697902503546
-0.3873779773712158,-0.07994992285966873,-0.025807460770010948,2023-10-21T15:35:03.553146Z,1697902503553
-0.4106579124927521,-0.06983978301286697,-0.01556429360061884,2023-10-21T15:35:03.564387Z,1697902503564
-0.42515796422958374,-0.06026175245642662,-0.008114716969430447,2023-10-21T15:35:03.578358Z,1697902503578
-0.4296809434890747,-0.05121583864092827,-0.003059647511690855,2023-10-21T15:35:03.584307Z,1697902503584
-0.42396071553230286,-0.042835064232349396,-2.6605630409903824E-4,2023-10-21T15:35:03.595062Z,1697902503594
-0.3879100978374481,-0.03605062887072563,5.321126081980765E-4,2023-10-21T15:35:03.604565Z,1697902503604
-0.3648962080478668,-0.027137743309140205,-0.0019954221788793802,2023-10-21T15:35:03.614104Z,1697902503614
-0.3453410863876343,-0.019555138424038887,-0.0039908443577587605,2023-10-21T15:35:03.629259Z,1697902503629
-0.29492342472076416,-0.01662851870059967,-0.0034587320405989885,2023-10-21T15:35:03.634324Z,1697902503634
-0.25594615936279297,-0.00784866139292717,-0.019954223185777664,2023-10-21T15:35:03.645975Z,1697902503645
-0.22268912196159363,-3.990844707004726E-4,-0.034055206924676895,2023-10-21T15:35:03.654441Z,1697902503654
-0.16881272196769714,6.651407456956804E-4,-0.04895436018705368,2023-10-21T15:35:03.665824Z,1697902503665
-0.12278498709201813,0.0015963378828018904,-0.06159203499555588,2023-10-21T15:35:03.678169Z,1697902503678
-0.07875266671180725,-0.0047890134155750275,-0.07449576258659363,2023-10-21T15:35:03.685687Z,1697902503685
-0.041238728910684586,-0.010243168100714684,-0.08540407568216324,2023-10-21T15:35:03.695093Z,1697902503695
-0.01556429360061884,-0.02261478640139103,-0.09431695938110352,2023-10-21T15:35:03.705852Z,1697902503705
0.006252323277294636,-0.03325703740119934,-0.10189956426620483,2023-10-21T15:35:03.715394Z,1697902503715
0.007981688715517521,-0.05015161260962486,-0.11001428216695786,2023-10-21T15:35:03.728925Z,1697902503728
9.311970788985491E-4,-0.08021597564220428,-0.12797307968139648,2023-10-21T15:35:03.735561Z,1697902503735
-0.02354598231613636,-0.10283076018095016,-0.13050061464309692,2023-10-21T15:35:03.746829Z,1697902503746
-0.05906450003385544,-0.12690885365009308,-0.13103273510932922,2023-10-21T15:35:03.755684Z,1697902503755
-0.10336287319660187,-0.1504548341035843,-0.1301015317440033,2023-10-21T15:35:03.767027Z,1697902503767
-0.15457871556282043,-0.17213842272758484,-0.12770701944828033,2023-10-21T15:35:03.778225Z,1697902503778
-0.2101844847202301,-0.19116145372390747,-0.12345012277364731,2023-10-21T15:35:03.786895Z,1697902503786
-0.266854465007782,-0.20659272372722626,-0.11706477403640747,2023-10-21T15:35:03.796434Z,1697902503796
-0.32192811369895935,-0.21776708960533142,-0.1081518903374672,2023-10-21T15:35:03.807138Z,1697902503807
-0.3738090991973877,-0.22468455135822296,-0.0965784415602684,2023-10-21T15:35:03.816760Z,1697902503816
-0.4214331805706024,-0.2277441918849945,-0.0818123146891594,2023-10-21T15:35:03.829184Z,1697902503829
-0.46347007155418396,-0.22787722945213318,-0.06358745694160461,2023-10-21T15:35:03.836814Z,1697902503836
-0.49925464391708374,-0.2250836342573166,-0.04203689470887184,2023-10-21T15:35:03.848022Z,1697902503847
-0.5275896787643433,-0.21869827806949615,-0.017958801239728928,2023-10-21T15:35:03.861434Z,1697902503861
-0.5476769208908081,-0.20872117578983307,0.0070504918694496155,2023-10-21T15:35:03.868125Z,1697902503868
-0.5596494078636169,-0.1964825838804245,0.031527671962976456,2023-10-21T15:35:03.878363Z,1697902503878
-0.5645714998245239,-0.18451005220413208,0.05400943011045456,2023-10-21T15:35:03.888195Z,1697902503888
-0.5628421306610107,-0.17479899525642395,0.07396364957094193,2023-10-21T15:35:03.897762Z,1697902503897
-0.5537961721420288,-0.16655124723911285,0.08992703258991241,2023-10-21T15:35:03.912494Z,1697902503912
-0.5365025401115417,-0.1575053334236145,0.1009683683514595,2023-10-21T15:35:03.918012Z,1697902503917
-0.5120253562927246,-0.14792729914188385,0.10682160407304764,2023-10-21T15:35:03.929026Z,1697902503928
-0.48435550928115845,-0.14127589762210846,0.10881702601909637,2023-10-21T15:35:03.938109Z,1697902503938
-0.4576168358325958,-0.14034469425678253,0.10828491300344467,2023-10-21T15:35:03.949405Z,1697902503949
-0.43340572714805603,-0.14473463594913483,0.10628949105739594,2023-10-21T15:35:03.961231Z,1697902503961
-0.4117221236228943,-0.1525832861661911,0.10336287319660187,2023-10-21T15:35:03.969289Z,1697902503969
-0.3930981755256653,-0.162959486246109,0.09977111220359802,2023-10-21T15:35:03.978809Z,1697902503978
-0.37779995799064636,-0.17533110082149506,0.095514215528965,2023-10-21T15:35:03.989440Z,1697902503989
-0.36463016271591187,-0.18810181319713593,0.0905921682715416,2023-10-21T15:35:03.999105Z,1697902503999
-0.35305672883987427,-0.19914314150810242,0.08553709834814072,2023-10-21T15:35:04.012292Z,1697902504012
-0.34321263432502747,-0.2091202586889267,0.08101414144039154,2023-10-21T15:35:04.019168Z,1697902504019
-0.33509790897369385,-0.21776708960533142,0.07755541056394577,2023-10-21T15:35:04.030481Z,1697902504030
-0.3276483416557312,-0.2244184911251068,0.0751609057188034,2023-10-21T15:35:04.039469Z,1697902504039
-0.3199326992034912,-0.2282763123512268,0.07383062690496445,2023-10-21T15:35:04.050751Z,1697902504050
-0.31195101141929626,-0.22987264394760132,0.07436273992061615,2023-10-21T15:35:04.061341Z,1697902504061
-0.3042353689670563,-0.23027172684669495,0.07689027488231659,2023-10-21T15:35:04.070600Z,1697902504070
-0.29638671875,-0.22867539525032043,0.08074808865785599,2023-10-21T15:35:04.080106Z,1697902504080
-0.2882719933986664,-0.2250836342573166,0.08567012846469879,2023-10-21T15:35:04.095608Z,1697902504095
-0.27962517738342285,-0.22029462456703186,0.09099125862121582,2023-10-21T15:35:04.100319Z,1697902504100
-0.2711113691329956,-0.21550559997558594,0.0965784415602684,2023-10-21T15:35:04.112302Z,1697902504112
-0.26326271891593933,-0.2124459594488144,0.10243167728185654,2023-10-21T15:35:04.120449Z,1697902504120
-0.2567443251609802,-0.21178081631660461,0.10841794312000275,2023-10-21T15:35:04.131730Z,1697902504131
-0.25062504410743713,-0.21311110258102417,0.11400512605905533,2023-10-21T15:35:04.144659Z,1697902504144
-0.24330848455429077,-0.21364320814609528,0.11866111308336258,2023-10-21T15:35:04.151677Z,1697902504151
-0.22162489593029022,-0.19781285524368286,0.11187667399644852,2023-10-21T15:35:04.161349Z,1697902504161
-0.21098265051841736,-0.1938220113515854,0.11733082681894302,2023-10-21T15:35:04.171886Z,1697902504171
-0.201936736702919,-0.19036328792572021,0.12198681384325027,2023-10-21T15:35:04.181425Z,1697902504181
-0.18557427823543549,-0.18038617074489594,0.12770701944828033,2023-10-21T15:35:04.195478Z,1697902504195
-0.1717393398284912,-0.17187237739562988,0.13262906670570374,2023-10-21T15:35:04.201615Z,1697902504201
-0.15511082112789154,-0.15870258212089539,0.14034469425678253,2023-10-21T15:35:04.212755Z,1697902504212
-0.1410098373889923,-0.14739519357681274,0.14686307311058044,2023-10-21T15:35:04.221786Z,1697902504221
-0.12983547151088715,-0.13622082769870758,0.1552438586950302,2023-10-21T15:35:04.233037Z,1697902504233
-0.12039047479629517,-0.12664279341697693,0.1624273806810379,2023-10-21T15:35:04.244583Z,1697902504244
-0.11666569113731384,-0.12105561792850494,0.16881272196769714,2023-10-21T15:35:04.252984Z,1697902504252
-0.11347301304340363,-0.11626660823822021,0.17439991235733032,2023-10-21T15:35:04.262507Z,1697902504262
-0.11600054800510406,-0.11666569113731384,0.17812469601631165,2023-10-21T15:35:04.277716Z,1697902504277
-0.11826203018426895,-0.11706477403640747,0.18131737411022186,2023-10-21T15:35:04.282717Z,1697902504282
-0.12345012277364731,-0.11906019598245621,0.18238160014152527,2023-10-21T15:35:04.295375Z,1697902504295
-0.12797307968139648,-0.12078956514596939,0.18344582617282867,2023-10-21T15:35:04.302849Z,1697902504302
-0.13475751876831055,-0.12105561792850494,0.1822485625743866,2023-10-21T15:35:04.314117Z,1697902504314
-0.15444567799568176,-0.13143181800842285,0.19302384555339813,2023-10-21T15:35:04.327668Z,1697902504327
-0.1608310341835022,-0.13302814960479736,0.18836785852909088,2023-10-21T15:35:04.334003Z,1697902504333
-0.1678815335035324,-0.13515660166740417,0.18357884883880615,2023-10-21T15:35:04.344490Z,1697902504344
-0.17479899525642395,-0.1367529332637787,0.17799167335033417,2023-10-21T15:35:04.354426Z,1697902504354
-0.1811843365430832,-0.137285053730011,0.1706751137971878,2023-10-21T15:35:04.363852Z,1697902504363
-0.17080815136432648,-0.1273079365491867,0.15431265532970428,2023-10-21T15:35:04.378740Z,1697902504378
-0.1789228618144989,-0.12877124547958374,0.1448676586151123,2023-10-21T15:35:04.383974Z,1697902504383
-0.18584032356739044,-0.1301015317440033,0.1366199105978012,2023-10-21T15:35:04.395305Z,1697902504395
-0.19501927495002747,-0.13489054143428802,0.12398223578929901,2023-10-21T15:35:04.404140Z,1697902504404
-0.22149187326431274,-0.15231724083423615,0.11400512605905533,2023-10-21T15:35:04.415422Z,1697902504415
-0.2266799658536911,-0.15723927319049835,0.09737660735845566,2023-10-21T15:35:04.427675Z,1697902504427
-0.23146899044513702,-0.162959486246109,0.07994992285966873,2023-10-21T15:35:04.435319Z,1697902504435
-0.23612496256828308,-0.17054209113121033,0.06265626102685928,2023-10-21T15:35:04.444871Z,1697902504444
-0.2403818666934967,-0.1794549822807312,0.04589471220970154,2023-10-21T15:35:04.455486Z,1697902504455
-0.24304243922233582,-0.18836785852909088,0.030596474185585976,2023-10-21T15:35:04.465148Z,1697902504465
-0.24330848455429077,-0.19581744074821472,0.016894575208425522,2023-10-21T15:35:04.478582Z,1697902504478
-0.24104700982570648,-0.2008725106716156,0.005188097711652517,2023-10-21T15:35:04.485272Z,1697902504485
-0.23585891723632812,-0.20273490250110626,-0.004922041669487953,2023-10-21T15:35:04.496479Z,1697902504496
-0.2277441918849945,-0.2003403902053833,-0.013568871654570103,2023-10-21T15:35:04.505428Z,1697902504505
-0.21723496913909912,-0.1943541318178177,-0.020885419100522995,2023-10-21T15:35:04.516814Z,1697902504516
-0.20672574639320374,-0.18796877562999725,-0.026738658547401428,2023-10-21T15:35:04.527743Z,1697902504527
-0.1986110359430313,-0.18424399197101593,-0.030862530693411827,2023-10-21T15:35:04.536662Z,1697902504536
-0.19395504891872406,-0.18424399197101593,-0.033390067517757416,2023-10-21T15:35:04.546209Z,1697902504546
-0.19169357419013977,-0.1861063838005066,-0.034720346331596375,2023-10-21T15:35:04.561847Z,1697902504561
-0.1899642050266266,-0.1861063838005066,-0.03525245934724808,2023-10-21T15:35:04.566398Z,1697902504566
-0.17533110082149506,-0.17160631716251373,-0.03272492438554764,2023-10-21T15:35:04.578636Z,1697902504578
-0.17652836441993713,-0.16588610410690308,-0.029931334778666496,2023-10-21T15:35:04.586560Z,1697902504586
-0.17745955288410187,-0.16096405684947968,-0.027536828070878983,2023-10-21T15:35:04.597803Z,1697902504597
-0.1799870878458023,-0.15231724083423615,-0.020619364455342293,2023-10-21T15:35:04.611Z,1697902504610
-0.1822485625743866,-0.14473463594913483,-0.01476612500846386,2023-10-21T15:35:04.617694Z,1697902504617
-0.18451005220413208,-0.13302814960479736,-0.00784866139292717,2023-10-21T15:35:04.627698Z,1697902504627
-0.18650546669960022,-0.12305103987455368,-0.0019954221788793802,2023-10-21T15:35:04.637905Z,1697902504637
-0.19142751395702362,-0.11613357812166214,0.003325703786686063,2023-10-21T15:35:04.647506Z,1697902504647
-0.19568441808223724,-0.11028033494949341,0.00784866139292717,2023-10-21T15:35:04.661877Z,1697902504661
-0.20406518876552582,-0.11067942529916763,0.011174364946782589,2023-10-21T15:35:04.667690Z,1697902504667
-0.21111567318439484,-0.11094547808170319,0.014100983738899231,2023-10-21T15:35:04.679053Z,1697902504679
-0.2184322327375412,-0.11400512605905533,0.01569732278585434,2023-10-21T15:35:04.687895Z,1697902504687
-0.2437075674533844,-0.12770701944828033,0.01822485774755478,2023-10-21T15:35:04.699119Z,1697902504699
-0.24623510241508484,-0.13183090090751648,0.0172936599701643,2023-10-21T15:35:04.710885Z,1697902504710
-0.24849659204483032,-0.1366199105978012,0.015963377431035042,2023-10-21T15:35:04.719022Z,1697902504719
-0.2503589689731598,-0.1422071009874344,0.01476612500846386,2023-10-21T15:35:04.728547Z,1697902504728
-0.25155624747276306,-0.14912456274032593,0.013701899908483028,2023-10-21T15:35:04.739256Z,1697902504739
-0.2514232099056244,-0.15657413005828857,0.012371618300676346,2023-10-21T15:35:04.748915Z,1697902504748
-0.24942778050899506,-0.16335856914520264,0.010775280185043812,2023-10-21T15:35:04.761769Z,1697902504761
-0.2453039139509201,-0.1690787822008133,0.00944499857723713,2023-10-21T15:35:04.768974Z,1697902504768
-0.2387855350971222,-0.1729366034269333,0.009178942069411278,2023-10-21T15:35:04.780156Z,1697902504780
-0.2179001122713089,-0.16149617731571198,0.00864682998508215,2023-10-21T15:35:04.794172Z,1697902504794
-0.2085881382226944,-0.16003286838531494,0.011972533538937569,2023-10-21T15:35:04.800048Z,1697902504800
-0.20073948800563812,-0.15870258212089539,0.014899153262376785,2023-10-21T15:35:04.810799Z,1697902504810
-0.19062934815883636,-0.1547117382287979,0.022747814655303955,2023-10-21T15:35:04.820332Z,1697902504820
-0.18184947967529297,-0.15125301480293274,0.029399221763014793,2023-10-21T15:35:04.829883Z,1697902504829
-0.17267054319381714,-0.14699611067771912,0.042169924825429916,2023-10-21T15:35:04.845140Z,1697902504845
-0.16482187807559967,-0.14340434968471527,0.05307823419570923,2023-10-21T15:35:04.850016Z,1697902504849
-0.15245026350021362,-0.13289512693881989,0.06704618781805038,2023-10-21T15:35:04.861699Z,1697902504861
-0.14194104075431824,-0.12398223578929901,0.0790187194943428,2023-10-21T15:35:04.870274Z,1697902504870
-0.13089969754219055,-0.1125418171286583,0.09245456755161285,2023-10-21T15:35:04.881474Z,1697902504881
-0.12145470082759857,-0.10269773006439209,0.10389498621225357,2023-10-21T15:35:04.894006Z,1697902504893
-0.11147759109735489,-0.09272062033414841,0.11453723907470703,2023-10-21T15:35:04.901412Z,1697902504901
-0.10296379029750824,-0.08420681953430176,0.12371618300676346,2023-10-21T15:35:04.910911Z,1697902504910
-0.091656394302845,-0.07329851388931274,0.12943638861179352,2023-10-21T15:35:04.921644Z,1697902504921
-0.08207836747169495,-0.06398653984069824,0.1344914585351944,2023-10-21T15:35:04.931187Z,1697902504931
-0.07396364957094193,-0.05879844352602959,0.1367529332637787,2023-10-21T15:35:04.945006Z,1697902504944
-0.06691315770149231,-0.05440851300954819,0.13874836266040802,2023-10-21T15:35:04.951364Z,1697902504951
-0.06052780896425247,-0.05241309106349945,0.13795019686222076,2023-10-21T15:35:04.962557Z,1697902504962
-0.05494062602519989,-0.050683725625276566,0.1371520310640335,2023-10-21T15:35:04.971531Z,1697902504971
-0.046958938241004944,-0.04323415085673332,0.11719780415296555,2023-10-21T15:35:04.982836Z,1697902504982
-0.048156190663576126,-0.050417669117450714,0.1262437105178833,2023-10-21T15:35:04.994093Z,1697902504994
-0.04922041669487953,-0.056536965072155,0.13409237563610077,2023-10-21T15:35:05.002777Z,1697902505002
-0.050683725625276566,-0.06225717440247536,0.12823913991451263,2023-10-21T15:35:05.012258Z,1697902505012
-0.05188097804784775,-0.06704618781805038,0.12331710010766983,2023-10-21T15:35:05.022938Z,1697902505022
-0.04429837316274643,-0.05733513459563255,0.1053582951426506,2023-10-21T15:35:05.032537Z,1697902505032
-0.03791302442550659,-0.04895436018705368,0.08992703258991241,2023-10-21T15:35:05.045112Z,1697902505045
-0.041238728910684586,-0.05307823419570923,0.09311970323324203,2023-10-21T15:35:05.052648Z,1697902505052
-0.04416534677147865,-0.056669991463422775,0.09591329842805862,2023-10-21T15:35:05.063860Z,1697902505063
-0.03777999430894852,-0.04842224717140198,0.08194534480571747,2023-10-21T15:35:05.077237Z,1697902505077
-0.04483048617839813,-0.04682590812444687,0.08274351060390472,2023-10-21T15:35:05.083914Z,1697902505083
-0.05081675574183464,-0.04549562931060791,0.08327562361955643,2023-10-21T15:35:05.093954Z,1697902505093
-0.0433671772480011,-0.03884422034025192,0.07117006182670593,2023-10-21T15:35:05.104078Z,1697902505104
-0.05587182566523552,-0.033390067517757416,0.07595907151699066,2023-10-21T15:35:05.113581Z,1697902505113
-0.06651407480239868,-0.028734080493450165,0.08008294552564621,2023-10-21T15:35:05.128105Z,1697902505128
-0.05680302157998085,-0.024610208347439766,0.06837646663188934,2023-10-21T15:35:05.133781Z,1697902505133
-0.04855527728796005,-0.02101844735443592,0.05839935690164566,2023-10-21T15:35:05.144861Z,1697902505144
-0.06438562273979187,-0.013435843400657177,0.05733513459563255,2023-10-21T15:35:05.153920Z,1697902505153
-0.07782147079706192,-0.0070504918694496155,0.056403934955596924,2023-10-21T15:35:05.165188Z,1697902505165
-0.06651407480239868,-0.005986266769468784,0.048156190663576126,2023-10-21T15:35:05.191747Z,1697902505191
-0.05680302157998085,-0.005055069923400879,0.04110569879412651,2023-10-21T15:35:05.193383Z,1697902505193
-0.04842224717140198,-0.004389929119497538,0.0351194329559803,2023-10-21T15:35:05.194552Z,1697902505194
-0.04137175530195236,-0.0037247883155941963,0.029931334778666496,2023-10-21T15:35:05.205293Z,1697902505205
-0.03644971549510956,0.00611929502338171,0.0029266192577779293,2023-10-21T15:35:05.214925Z,1697902505214
-0.03205978497862816,0.014633096754550934,-0.02008725143969059,2023-10-21T15:35:05.245406Z,1697902505245
-0.017692744731903076,0.016894575208425522,-0.03166069835424423,2023-10-21T15:35:05.246537Z,1697902505246
-0.005454154219478369,0.018756968900561333,-0.04150478169322014,2023-10-21T15:35:05.248226Z,1697902505248
0.009045914746820927,0.022481758147478104,-0.05174795165657997,2023-10-21T15:35:05.255323Z,1697902505255
0.021417532116174698,0.025674432516098022,-0.06052780896425247,2023-10-21T15:35:05.280506Z,1697902505280
0.03365612402558327,0.030596474185585976,-0.06691315770149231,2023-10-21T15:35:05.281164Z,1697902505281
0.04429837316274643,0.034720346331596375,-0.07236731797456741,2023-10-21T15:35:05.286366Z,1697902505286
0.03777999430894852,0.029665278270840645,-0.06185809150338173,2023-10-21T15:35:05.310714Z,1697902505310
0.04296809434890747,0.030064363032579422,-0.06731224805116653,2023-10-21T15:35:05.312372Z,1697902505312
0.04749105125665665,0.030330419540405273,-0.07196822762489319,2023-10-21T15:35:05.316125Z,1697902505316
0.04057358577847481,0.025940489023923874,-0.0614590048789978,2023-10-21T15:35:05.360936Z,1697902505360
0.0345873199403286,0.022082673385739326,-0.052546121180057526,2023-10-21T15:35:05.361572Z,1697902505361
0.02953225001692772,0.01888999715447426,-0.04483048617839813,2023-10-21T15:35:05.362744Z,1697902505362
0.025275349617004395,0.016096405684947968,-0.03831210732460022,2023-10-21T15:35:05.363297Z,1697902505363
0.021550560370087624,0.013834928162395954,-0.03272492438554764,2023-10-21T15:35:05.367424Z,1697902505367
0.018357884138822556,0.011839505285024643,-0.02793591283261776,2023-10-21T15:35:05.377242Z,1697902505377
0.01569732278585434,0.010110139846801758,-0.02381203882396221,2023-10-21T15:35:05.387723Z,1697902505387
0.012371618300676346,0.037513937801122665,-0.013568871654570103,2023-10-21T15:35:05.410474Z,1697902505410
0.00944499857723713,0.0609268918633461,-0.0047890134155750275,2023-10-21T15:35:05.412128Z,1697902505412
0.008114716969430447,0.05201400816440582,-0.004123872611671686,2023-10-21T15:35:05.417449Z,1697902505417
0.006917464081197977,0.044431403279304504,-0.0035917600616812706,2023-10-21T15:35:05.444776Z,1697902505444
0.005853238515555859,0.03791302442550659,-0.003059647511690855,2023-10-21T15:35:05.445438Z,1697902505445
0.005055069923400879,0.032458867877721786,-0.0025275349617004395,2023-10-21T15:35:05.448475Z,1697902505448
0.004256900865584612,0.027669856324791908,-0.0022614786867052317,2023-10-21T15:35:05.460324Z,1697902505460
-0.015165209770202637,0.04655985161662102,0.012105561792850494,2023-10-21T15:35:05.468821Z,1697902505468
-0.031926754862070084,0.06265626102685928,0.024344151839613914,2023-10-21T15:35:05.478342Z,1697902505478
-0.02727077156305313,0.05361034348607063,0.02075239084661007,2023-10-21T15:35:05.493619Z,1697902505493
-0.02327992580831051,0.04576168581843376,0.017692744731903076,2023-10-21T15:35:05.498544Z,1697902505498
-0.01982119493186474,0.039110276848077774,0.015165209770202637,2023-10-21T15:35:05.511175Z,1697902505511
-0.03139464557170868,0.029931334778666496,0.0027935912366956472,2023-10-21T15:35:05.518786Z,1697902505518
-0.04110569879412651,0.022082673385739326,-0.007715632673352957,2023-10-21T15:35:05.529961Z,1697902505529
-0.0351194329559803,0.01888999715447426,-0.0065183793194592,2023-10-21T15:35:05.543706Z,1697902505543
-0.030064363032579422,0.016096405684947968,-0.0055871824733912945,2023-10-21T15:35:05.549814Z,1697902505549
-0.025674432516098022,0.013701899908483028,-0.0047890134155750275,2023-10-21T15:35:05.560339Z,1697902505560
-0.011839505285024643,0.020619364455342293,-0.018756968900561333,2023-10-21T15:35:05.570114Z,1697902505570
-0.0,0.026472602039575577,-0.0307295024394989,2023-10-21T15:35:05.579627Z,1697902505579
-0.0,0.02261478640139103,-0.02633957378566265,2023-10-21T15:35:05.594344Z,1697902505594
-0.0,0.019289081916213036,-0.022481758147478104,2023-10-21T15:35:05.599814Z,1697902505599
-0.0,0.016495490446686745,-0.01915605366230011,2023-10-21T15:35:05.611067Z,1697902505611
-0.0,0.014100983738899231,-0.01636246219277382,2023-10-21T15:35:05.620022Z,1697902505620
-0.0,0.012105561792850494,-0.01396795641630888,2023-10-21T15:35:05.631164Z,1697902505631
-0.0,0.010243168100714684,-0.011972533538937569,2023-10-21T15:35:05.643417Z,1697902505643
-0.0,0.008779858238995075,-0.010243168100714684,2023-10-21T15:35:05.651139Z,1697902505651
-0.0,0.007449576631188393,-0.008779858238995075,2023-10-21T15:35:05.660774Z,1697902505660
-0.0,0.0063853515312075615,-0.007449576631188393,2023-10-21T15:35:05.671369Z,1697902505671
-0.0,0.005454154219478369,-0.0063853515312075615,2023-10-21T15:35:05.680963Z,1697902505680
-7.981689414009452E-4,0.02474323660135269,0.0037247883155941963,2023-10-21T15:35:05.694422Z,1697902505694
-0.0015963378828018904,0.041238728910684586,0.01223859004676342,2023-10-21T15:35:05.701164Z,1697902505701
-0.0013302814913913608,0.0351194329559803,0.01050922367721796,2023-10-21T15:35:05.712333Z,1697902505712
-0.0011972533538937569,0.030064363032579422,0.008912886492908001,2023-10-21T15:35:05.721322Z,1697902505721
-9.311970788985491E-4,0.025674432516098022,0.007582604885101318,2023-10-21T15:35:05.732647Z,1697902505732
-7.981689414009452E-4,0.0219496451318264,0.0065183793194592,2023-10-21T15:35:05.743399Z,1697902505743
-6.651407456956804E-4,0.018756968900561333,0.0055871824733912945,2023-10-21T15:35:05.752480Z,1697902505752
-6.651407456956804E-4,0.015963377431035042,0.0047890134155750275,2023-10-21T15:35:05.762086Z,1697902505761
-5.321126081980765E-4,0.013701899908483028,0.0039908443577587605,2023-10-21T15:35:05.777709Z,1697902505777
-3.990844707004726E-4,0.011706477031111717,0.0034587320405989885,2023-10-21T15:35:05.782237Z,1697902505782
-3.990844707004726E-4,0.009977111592888832,0.0029266192577779293,2023-10-21T15:35:05.794356Z,1697902505794
-2.6605630409903824E-4,0.008513801731169224,0.0025275349617004395,2023-10-21T15:35:05.802392Z,1697902505802
-2.6605630409903824E-4,0.007316548377275467,0.002128450432792306,2023-10-21T15:35:05.813662Z,1697902505813
-2.6605630409903824E-4,0.006252323277294636,0.0018623941577970982,2023-10-21T15:35:05.826745Z,1697902505826
0.010110139846801758,0.022348729893565178,0.0025275349617004395,2023-10-21T15:35:05.833542Z,1697902505833
0.019023025408387184,0.03605062887072563,0.0031926757656037807,2023-10-21T15:35:05.843256Z,1697902505843
0.016229433938860893,0.030862530693411827,0.0026605629827827215,2023-10-21T15:35:05.853781Z,1697902505853
0.013834928162395954,0.02633957378566265,0.0022614786867052317,2023-10-21T15:35:05.863340Z,1697902505863
0.011839505285024643,0.022481758147478104,0.0019954221788793802,2023-10-21T15:35:05.877601Z,1697902505877
0.010110139846801758,0.01915605366230011,0.0017293660202994943,2023-10-21T15:35:05.883540Z,1697902505883
0.00864682998508215,0.01636246219277382,0.0014633096288889647,2023-10-21T15:35:05.894730Z,1697902505894
0.007316548377275467,0.01396795641630888,0.0011972533538937569,2023-10-21T15:35:05.903669Z,1697902505903
0.006252323277294636,0.011972533538937569,0.001064225216396153,2023-10-21T15:35:05.915037Z,1697902505914
0.022215701639652252,0.024876264855265617,0.0022614786867052317,2023-10-21T15:35:05.926581Z,1697902505926
0.03578457236289978,0.03578457236289978,0.003325703786686063,2023-10-21T15:35:05.934842Z,1697902505934
0.030596474185585976,0.030596474185585976,0.0027935912366956472,2023-10-21T15:35:05.944390Z,1697902505944
0.026206545531749725,0.0260735172778368,0.0023945067077875137,2023-10-21T15:35:05.955024Z,1697902505955
0.04296809434890747,0.03112858720123768,0.004922041669487953,2023-10-21T15:35:05.964633Z,1697902505964
0.05746816098690033,0.03538548946380615,0.0070504918694496155,2023-10-21T15:35:05.977692Z,1697902505977
0.04908738657832146,0.030197391286492348,0.005986266769468784,2023-10-21T15:35:05.984797Z,1697902505984
0.041903868317604065,0.025807460770010948,0.005188097711652517,2023-10-21T15:35:06.008540Z,1697902506008
0.03578457236289978,0.022082673385739326,0.004389929119497538,2023-10-21T15:35:06.009197Z,1697902506009
0.030596474185585976,0.01888999715447426,0.0037247883155941963,2023-10-21T15:35:06.015864Z,1697902506015
0.016096405684947968,0.017027603462338448,0.022481758147478104,2023-10-21T15:35:06.026624Z,1697902506026
0.0037247883155941963,0.01556429360061884,0.038445137441158295,2023-10-21T15:35:06.036116Z,1697902506036
0.0031926757656037807,0.013302815146744251,0.03285795450210571,2023-10-21T15:35:06.060178Z,1697902506060
-0.02288084290921688,0.009045914746820927,0.041903868317604065,2023-10-21T15:35:06.061969Z,1697902506061
-0.045096542686223984,0.005321125965565443,0.04961949959397316,2023-10-21T15:35:06.065921Z,1697902506065
-0.0570690780878067,-0.001064225216396153,0.049752529710531235,2023-10-21T15:35:06.094552Z,1697902506094
-0.06731224805116653,-0.0065183793194592,0.04988555610179901,2023-10-21T15:35:06.095206Z,1697902506095
-0.05746816098690033,-0.0055871824733912945,0.042569007724523544,2023-10-21T15:35:06.096901Z,1697902506096
