ACC_X,ACC_Y,ACC_Z,DATE,UNIX_TIMESTAMP
0.03409862518310547,0.19334888458251953,0.04457831382751465,2023-10-21T15:33:45.213922Z,1697902425213
0.008797407150268555,0.06488418579101562,0.015080451965332031,2023-10-21T15:33:45.233188Z,1697902425233
-0.012208521366119385,-0.15882587432861328,-0.03864693641662598,2023-10-21T15:33:45.253433Z,1697902425253
0.00669647753238678,-0.2816019058227539,-0.06559610366821289,2023-10-21T15:33:45.273675Z,1697902425273
-3.8445182144641876E-4,-0.3727102279663086,-0.08115887641906738,2023-10-21T15:33:45.293911Z,1697902425293
-0.025896847248077393,-0.3961515426635742,-0.07292866706848145,2023-10-21T15:33:45.314467Z,1697902425314
-0.038121819496154785,-0.2922658920288086,-0.044245004653930664,2023-10-21T15:33:45.334436Z,1697902425334
-0.040520548820495605,-0.2689352035522461,-0.03621959686279297,2023-10-21T15:33:45.354751Z,1697902425354
-0.033469557762145996,-0.28511905670166016,-0.03533029556274414,2023-10-21T15:33:45.375121Z,1697902425375
-0.015066146850585938,-0.2527484893798828,-0.02794051170349121,2023-10-21T15:33:45.398450Z,1697902425398
-0.019499242305755615,-0.2702045440673828,-0.04679000377655029,2023-10-21T15:33:45.415590Z,1697902425415
-0.017560601234436035,-0.29038333892822266,-0.04681217670440674,2023-10-21T15:33:45.435875Z,1697902425435
-0.01618856191635132,-0.2742471694946289,-0.040923118591308594,2023-10-21T15:33:45.456129Z,1697902425456
-0.016265451908111572,-0.22829055786132812,-0.031513333320617676,2023-10-21T15:33:45.476330Z,1697902425476
-0.01361924409866333,-0.16730594635009766,-0.02131831645965576,2023-10-21T15:33:45.497919Z,1697902425497
-0.008745670318603516,-0.10099029541015625,-0.01229405403137207,2023-10-21T15:33:45.516876Z,1697902425516
-0.003251791000366211,-0.035492897033691406,-0.0043201446533203125,2023-10-21T15:33:45.537190Z,1697902425537
0.004433393478393555,0.04495429992675781,0.00560152530670166,2023-10-21T15:33:45.557402Z,1697902425557
0.01397562026977539,0.13279247283935547,0.016879916191101074,2023-10-21T15:33:45.577614Z,1697902425577
0.02274191379547119,0.20528411865234375,0.02672398090362549,2023-10-21T15:33:45.597928Z,1697902425597
0.03178215026855469,0.2695121765136719,0.03615128993988037,2023-10-21T15:33:45.618274Z,1697902425618
0.043170809745788574,0.3430814743041992,0.0469210147857666,2023-10-21T15:33:45.638547Z,1697902425638
0.0549546480178833,0.41483020782470703,0.05693042278289795,2023-10-21T15:33:45.658762Z,1697902425658
0.06457757949829102,0.4716529846191406,0.0645761489868164,2023-10-21T15:33:45.681031Z,1697902425680
0.07401072978973389,0.5219430923461914,0.07144677639007568,2023-10-21T15:33:45.700514Z,1697902425700
0.08325564861297607,0.5668239593505859,0.07664430141448975,2023-10-21T15:33:45.719592Z,1697902425719
0.08835160732269287,0.599940299987793,0.07834553718566895,2023-10-21T15:33:45.739815Z,1697902425739
0.08722853660583496,0.6091489791870117,0.07527148723602295,2023-10-21T15:33:45.760016Z,1697902425759
0.08498263359069824,0.6006317138671875,0.0698244571685791,2023-10-21T15:33:45.781277Z,1697902425781
0.0871502161026001,0.5977878570556641,0.06457698345184326,2023-10-21T15:33:45.800611Z,1697902425800
0.09289610385894775,0.5994243621826172,0.05894148349761963,2023-10-21T15:33:45.820896Z,1697902425820
0.0960085391998291,0.5837278366088867,0.05150061845779419,2023-10-21T15:33:45.841124Z,1697902425841
0.09563779830932617,0.5509471893310547,0.043722450733184814,2023-10-21T15:33:45.864335Z,1697902425864
0.09405839443206787,0.5148582458496094,0.037054598331451416,2023-10-21T15:33:45.881616Z,1697902425881
0.032459139823913574,0.26091957092285156,0.03195071220397949,2023-10-21T15:33:45.901940Z,1697902425901
0.03741574287414551,0.2893381118774414,0.03411102294921875,2023-10-21T15:33:45.922307Z,1697902425922
0.042893052101135254,0.31813526153564453,0.03609144687652588,2023-10-21T15:33:45.942409Z,1697902425942
0.04869234561920166,0.3464193344116211,0.03779447078704834,2023-10-21T15:33:45.964689Z,1697902425964
0.054522037506103516,0.3733959197998047,0.03916370868682861,2023-10-21T15:33:45.983058Z,1697902425983
0.06035816669464111,0.39910316467285156,0.04024100303649902,2023-10-21T15:33:46.003286Z,1697902426003
0.06617295742034912,0.42336082458496094,0.040995776653289795,2023-10-21T15:33:46.023550Z,1697902426023
0.07185137271881104,0.4459953308105469,0.04136800765991211,2023-10-21T15:33:46.043695Z,1697902426043
0.07711124420166016,0.46607494354248047,0.04124116897583008,2023-10-21T15:33:46.064218Z,1697902426064
0.08179283142089844,0.4831571578979492,0.04058849811553955,2023-10-21T15:33:46.084297Z,1697902426084
0.08588814735412598,0.49750232696533203,0.03942418098449707,2023-10-21T15:33:46.104641Z,1697902426104
0.08925938606262207,0.5086812973022461,0.03775292634963989,2023-10-21T15:33:46.124800Z,1697902426124
0.09169459342956543,0.5156183242797852,0.035591065883636475,2023-10-21T15:33:46.147579Z,1697902426147
0.09320414066314697,0.518061637878418,0.03305405378341675,2023-10-21T15:33:46.165614Z,1697902426165
0.09401297569274902,0.5168828964233398,0.030283689498901367,2023-10-21T15:33:46.185614Z,1697902426185
0.09427344799041748,0.5128173828125,0.02737712860107422,2023-10-21T15:33:46.205941Z,1697902426205
0.09414994716644287,0.5068244934082031,0.02446204423904419,2023-10-21T15:33:46.226152Z,1697902426226
0.09396243095397949,0.5001754760742188,0.021686196327209473,2023-10-21T15:33:46.247610Z,1697902426247
0.09408009052276611,0.4944181442260742,0.019180268049240112,2023-10-21T15:33:46.266753Z,1697902426266
0.09461843967437744,0.4905204772949219,0.016988396644592285,2023-10-21T15:33:46.287001Z,1697902426286
0.0953681468963623,0.48799896240234375,0.015137344598770142,2023-10-21T15:33:46.307261Z,1697902426307
0.09610497951507568,0.4862861633300781,0.013628721237182617,2023-10-21T15:33:46.327353Z,1697902426327
0.09693193435668945,0.48593902587890625,0.012460261583328247,2023-10-21T15:33:46.347764Z,1697902426347
0.09797465801239014,0.48755645751953125,0.011592745780944824,2023-10-21T15:33:46.368040Z,1697902426367
0.09915876388549805,0.4907960891723633,0.010969787836074829,2023-10-21T15:33:46.388248Z,1697902426388
0.10021305084228516,0.4944181442260742,0.010560378432273865,2023-10-21T15:33:46.408521Z,1697902426408
0.10078608989715576,0.49659156799316406,0.010377287864685059,2023-10-21T15:33:46.430666Z,1697902426430
0.10062611103057861,0.4956951141357422,0.010409876704216003,2023-10-21T15:33:46.449024Z,1697902426448
0.09958124160766602,0.4906730651855469,0.010613664984703064,2023-10-21T15:33:46.469348Z,1697902426469
0.09762108325958252,0.4809703826904297,0.010910764336585999,2023-10-21T15:33:46.489604Z,1697902426489
0.09492850303649902,0.4670753479003906,0.01123267412185669,2023-10-21T15:33:46.509771Z,1697902426509
0.09187507629394531,0.4505615234375,0.011569201946258545,2023-10-21T15:33:46.530696Z,1697902426530
0.08870124816894531,0.43253231048583984,0.011912643909454346,2023-10-21T15:33:46.550438Z,1697902426550
0.08545243740081787,0.41335582733154297,0.012299448251724243,2023-10-21T15:33:46.570690Z,1697902426570
0.08217072486877441,0.39328575134277344,0.012741327285766602,2023-10-21T15:33:46.590951Z,1697902426590
0.07915163040161133,0.3735389709472656,0.013249576091766357,2023-10-21T15:33:46.613780Z,1697902426613
0.07680320739746094,0.3560371398925781,0.013820290565490723,2023-10-21T15:33:46.631377Z,1697902426631
0.07525253295898438,0.3417482376098633,0.014466077089309692,2023-10-21T15:33:46.651728Z,1697902426651
0.07423806190490723,0.33008861541748047,0.015192478895187378,2023-10-21T15:33:46.671981Z,1697902426671
0.07332086563110352,0.31975364685058594,0.01599562168121338,2023-10-21T15:33:46.692276Z,1697902426692
0.07212257385253906,0.3094472885131836,0.016829490661621094,2023-10-21T15:33:46.713776Z,1697902426713
0.07038450241088867,0.2981595993041992,0.017604053020477295,2023-10-21T15:33:46.732789Z,1697902426732
0.06790280342102051,0.2848834991455078,0.01819700002670288,2023-10-21T15:33:46.753036Z,1697902426752
0.0646049976348877,0.26909637451171875,0.01848822832107544,2023-10-21T15:33:46.773315Z,1697902426773
0.06056928634643555,0.2508983612060547,0.018415331840515137,2023-10-21T15:33:46.793451Z,1697902426793
0.055983543395996094,0.2309284210205078,0.017982900142669678,2023-10-21T15:33:46.813760Z,1697902426813
0.051204681396484375,0.21057796478271484,0.01729142665863037,2023-10-21T15:33:46.834151Z,1697902426834
0.04643869400024414,0.19065093994140625,0.01643192768096924,2023-10-21T15:33:46.854392Z,1697902426854
0.04184699058532715,0.17166900634765625,0.015478789806365967,2023-10-21T15:33:46.874578Z,1697902426874
0.03759503364562988,0.15411090850830078,0.014497935771942139,2023-10-21T15:33:46.897105Z,1697902426897
0.0339663028717041,0.1390380859375,0.01359778642654419,2023-10-21T15:33:46.915119Z,1697902426915
0.03122878074645996,0.1275033950805664,0.0129050612449646,2023-10-21T15:33:46.935415Z,1697902426935
0.029536724090576172,0.12024307250976562,0.012549996376037598,2023-10-21T15:33:46.955640Z,1697902426955
0.02891230583190918,0.11745071411132812,0.01261758804321289,2023-10-21T15:33:46.975994Z,1697902426975
0.029238224029541016,0.11882877349853516,0.013123035430908203,2023-10-21T15:33:46.996850Z,1697902426996
0.030142545700073242,0.1230325698852539,0.013959646224975586,2023-10-21T15:33:47.016441Z,1697902427016
0.031160354614257812,0.12829303741455078,0.014933347702026367,2023-10-21T15:33:47.036740Z,1697902427036
0.032347679138183594,0.1348419189453125,0.016060709953308105,2023-10-21T15:33:47.056962Z,1697902427056
0.03407859802246094,0.14424514770507812,0.01750171184539795,2023-10-21T15:33:47.080182Z,1697902427080
0.03653407096862793,0.1574687957763672,0.019359469413757324,2023-10-21T15:33:47.097465Z,1697902427097
0.039427757263183594,0.1737346649169922,0.021544456481933594,2023-10-21T15:33:47.117817Z,1697902427117
0.042289018630981445,0.1914386749267578,0.02386796474456787,2023-10-21T15:33:47.138010Z,1697902427137
0.044916391372680664,0.20984554290771484,0.026229500770568848,2023-10-21T15:33:47.158249Z,1697902427158
0.04732155799865723,0.22884750366210938,0.028564453125,2023-10-21T15:33:47.179961Z,1697902427179
0.04950881004333496,0.24807453155517578,0.030758261680603027,2023-10-21T15:33:47.198838Z,1697902427198
0.05142176151275635,0.2670097351074219,0.03269219398498535,2023-10-21T15:33:47.219189Z,1697902427219
0.0529249906539917,0.28478527069091797,0.034253597259521484,2023-10-21T15:33:47.239312Z,1697902427239
0.053919315338134766,0.30075931549072266,0.03538548946380615,2023-10-21T15:33:47.259530Z,1697902427259
0.05437171459197998,0.31442928314208984,0.03606224060058594,2023-10-21T15:33:47.279913Z,1697902427279
0.05432450771331787,0.3253631591796875,0.03625297546386719,2023-10-21T15:33:47.300131Z,1697902427300
0.05383574962615967,0.33302974700927734,0.03591513633728027,2023-10-21T15:33:47.320465Z,1697902427320
0.052832722663879395,0.3359851837158203,0.034924864768981934,2023-10-21T15:33:47.340622Z,1697902427340
0.05130207538604736,0.3333311080932617,0.03323400020599365,2023-10-21T15:33:47.363657Z,1697902427363
0.04935002326965332,0.3254508972167969,0.030953168869018555,2023-10-21T15:33:47.381138Z,1697902427381
0.047173380851745605,0.31383609771728516,0.02828836441040039,2023-10-21T15:33:47.401470Z,1697902427401
0.04503989219665527,0.3004951477050781,0.02547430992126465,2023-10-21T15:33:47.421699Z,1697902427421
0.04314243793487549,0.28711605072021484,0.022693395614624023,2023-10-21T15:33:47.441922Z,1697902427441
0.04165911674499512,0.2752246856689453,0.020045161247253418,2023-10-21T15:33:47.463192Z,1697902427463
0.040608882904052734,0.2653522491455078,0.017551302909851074,2023-10-21T15:33:47.482553Z,1697902427482
0.04000711441040039,0.25797080993652344,0.01520991325378418,2023-10-21T15:33:47.502799Z,1697902427502
0.03987598419189453,0.25337982177734375,0.012997090816497803,2023-10-21T15:33:47.523167Z,1697902427523
0.04027557373046875,0.25217151641845703,0.010874837636947632,2023-10-21T15:33:47.546601Z,1697902427546
0.04112696647644043,0.25408935546875,0.00875428318977356,2023-10-21T15:33:47.563683Z,1697902427563
0.042197346687316895,0.2577552795410156,0.006558746099472046,2023-10-21T15:33:47.583873Z,1697902427583
0.043230414390563965,0.26146697998046875,0.00427652895450592,2023-10-21T15:33:47.604121Z,1697902427604
0.04398500919342041,0.26357364654541016,0.001951463520526886,2023-10-21T15:33:47.624346Z,1697902427624
0.0443037748336792,0.26302242279052734,-3.32660973072052E-4,2023-10-21T15:33:47.646523Z,1697902427646
0.043936848640441895,0.25839996337890625,-0.0024760067462921143,2023-10-21T15:33:47.664876Z,1697902427664
0.04285764694213867,0.2496023178100586,-0.004369482398033142,2023-10-21T15:33:47.685162Z,1697902427685
0.04125642776489258,0.23772144317626953,-0.005963176488876343,2023-10-21T15:33:47.705388Z,1697902427705
0.039580702781677246,0.22523880004882812,-0.007285565137863159,2023-10-21T15:33:47.725579Z,1697902427725
0.038385868072509766,0.21522140502929688,-0.008460760116577148,2023-10-21T15:33:47.746394Z,1697902427746
0.03808903694152832,0.20994853973388672,-0.009630203247070312,2023-10-21T15:33:47.766195Z,1697902427766
0.0389021635055542,0.21065425872802734,-0.010941743850708008,2023-10-21T15:33:47.786489Z,1697902427786
0.04085648059844971,0.2177286148071289,-0.012530684471130371,2023-10-21T15:33:47.806735Z,1697902427806
0.043897271156311035,0.231048583984375,-0.014493763446807861,2023-10-21T15:33:47.829467Z,1697902427829
0.048029541969299316,0.2508230209350586,-0.01694279909133911,2023-10-21T15:33:47.847218Z,1697902427847
0.053197503089904785,0.27691650390625,-0.01994234323501587,2023-10-21T15:33:47.867553Z,1697902427867
0.05910181999206543,0.3080577850341797,-0.023446857929229736,2023-10-21T15:33:47.887794Z,1697902427887
0.06517505645751953,0.3418254852294922,-0.027270197868347168,2023-10-21T15:33:47.907991Z,1697902427907
0.07062363624572754,0.3746805191040039,-0.031069159507751465,2023-10-21T15:33:47.929899Z,1697902427929
0.07480692863464355,0.4036235809326172,-0.034500956535339355,2023-10-21T15:33:47.948616Z,1697902427948
0.0773324966430664,0.42632198333740234,-0.03728514909744263,2023-10-21T15:33:47.968857Z,1697902427968
0.07823383808135986,0.4419889450073242,-0.039344072341918945,2023-10-21T15:33:47.989024Z,1697902427988
0.07781088352203369,0.45084190368652344,-0.04071033000946045,2023-10-21T15:33:48.009247Z,1697902428009
0.07645308971405029,0.45375728607177734,-0.04146230220794678,2023-10-21T15:33:48.029631Z,1697902428029
0.07445931434631348,0.4514789581298828,-0.04163479804992676,2023-10-21T15:33:48.049933Z,1697902428049
0.071990966796875,0.4442720413208008,-0.041209876537323,2023-10-21T15:33:48.070251Z,1697902428070
0.06924140453338623,0.4330921173095703,-0.0403020977973938,2023-10-21T15:33:48.090473Z,1697902428090
0.06650447845458984,0.41983509063720703,-0.0391545295715332,2023-10-21T15:33:48.112801Z,1697902428112
0.06415855884552002,0.4071989059448242,-0.03809213638305664,2023-10-21T15:33:48.130930Z,1697902428130
0.06257486343383789,0.3977804183959961,-0.03737694025039673,2023-10-21T15:33:48.151240Z,1697902428151
0.062067270278930664,0.39382362365722656,-0.03720235824584961,2023-10-21T15:33:48.171446Z,1697902428171
0.06277525424957275,0.39655494689941406,-0.037639617919921875,2023-10-21T15:33:48.191804Z,1697902428191
0.06470048427581787,0.40619850158691406,-0.03865993022918701,2023-10-21T15:33:48.212642Z,1697902428212
0.06772410869598389,0.4220609664916992,-0.040180981159210205,2023-10-21T15:33:48.232258Z,1697902428232
0.07167255878448486,0.44287776947021484,-0.04208570718765259,2023-10-21T15:33:48.252585Z,1697902428252
0.07638347148895264,0.467437744140625,-0.04428499937057495,2023-10-21T15:33:48.272754Z,1697902428272
0.08158743381500244,0.4936819076538086,-0.04654735326766968,2023-10-21T15:33:48.296154Z,1697902428296
0.08690500259399414,0.5188255310058594,-0.04851466417312622,2023-10-21T15:33:48.313278Z,1697902428313
0.09199309349060059,0.5405368804931641,-0.049902915954589844,2023-10-21T15:33:48.333692Z,1697902428333
0.0965888500213623,0.5573272705078125,-0.050569355487823486,2023-10-21T15:33:48.353845Z,1697902428353
0.10076630115509033,0.5698032379150391,-0.05065751075744629,2023-10-21T15:33:48.374138Z,1697902428374
0.10474205017089844,0.5793447494506836,-0.050432682037353516,2023-10-21T15:33:48.395968Z,1697902428395
0.1086282730102539,0.5866832733154297,-0.050033748149871826,2023-10-21T15:33:48.418235Z,1697902428418
0.11230778694152832,0.591557502746582,-0.049445271492004395,2023-10-21T15:33:48.434914Z,1697902428434
0.11537528038024902,0.5926361083984375,-0.048499882221221924,2023-10-21T15:33:48.455132Z,1697902428455
0.11751759052276611,0.5893421173095703,-0.04710322618484497,2023-10-21T15:33:48.475402Z,1697902428475
0.11886811256408691,0.583287239074707,-0.04539811611175537,2023-10-21T15:33:48.495919Z,1697902428495
0.11996912956237793,0.5775241851806641,-0.04369300603866577,2023-10-21T15:33:48.515968Z,1697902428515
0.1215064525604248,0.5751934051513672,-0.04227769374847412,2023-10-21T15:33:48.536221Z,1697902428536
0.12390923500061035,0.5777597427368164,-0.04126381874084473,2023-10-21T15:33:48.556489Z,1697902428556
0.12702369689941406,0.5840520858764648,-0.04050111770629883,2023-10-21T15:33:48.579353Z,1697902428579
0.13019323348999023,0.5907840728759766,-0.03965634107589722,2023-10-21T15:33:48.597006Z,1697902428596
0.13269972801208496,0.5946636199951172,-0.03845304250717163,2023-10-21T15:33:48.617323Z,1697902428617
0.13415122032165527,0.5938873291015625,-0.03683745861053467,2023-10-21T15:33:48.637567Z,1697902428637
0.13451099395751953,0.5881853103637695,-0.034949660301208496,2023-10-21T15:33:48.657832Z,1697902428657
0.1338949203491211,0.5778779983520508,-0.03296244144439697,2023-10-21T15:33:48.679321Z,1697902428679
0.13222908973693848,0.5625104904174805,-0.030959010124206543,2023-10-21T15:33:48.698450Z,1697902428698
0.12925124168395996,0.5411376953125,-0.028899073600769043,2023-10-21T15:33:48.718663Z,1697902428718
0.1245121955871582,0.5123300552368164,-0.026679277420043945,2023-10-21T15:33:48.738873Z,1697902428738
0.11756682395935059,0.47510528564453125,-0.02419567108154297,2023-10-21T15:33:48.759081Z,1697902428759
0.10830807685852051,0.42992210388183594,-0.021440744400024414,2023-10-21T15:33:48.779761Z,1697902428779
0.09720969200134277,0.3793067932128906,-0.01853722333908081,2023-10-21T15:33:48.799632Z,1697902428799
0.08521556854248047,0.3272409439086914,-0.01568162441253662,2023-10-21T15:33:48.819914Z,1697902428819
0.07334780693054199,0.2775907516479492,-0.013032466173171997,2023-10-21T15:33:48.840119Z,1697902428840
0.06239676475524902,0.23305320739746094,-0.010678738355636597,2023-10-21T15:33:48.863555Z,1697902428863
0.052666664123535156,0.19440078735351562,-0.008626461029052734,2023-10-21T15:33:48.880709Z,1697902428880
0.04418754577636719,0.1613931655883789,-0.006849527359008789,2023-10-21T15:33:48.901007Z,1697902428900
0.03697848320007324,0.13383007049560547,-0.005359083414077759,2023-10-21T15:33:48.921268Z,1697902428921
0.03125882148742676,0.11228656768798828,-0.004181504249572754,2023-10-21T15:33:48.941448Z,1697902428941
0.027533769607543945,0.09833908081054688,-0.003366917371749878,2023-10-21T15:33:48.962372Z,1697902428962
0.025964975357055664,0.0923604965209961,-0.0028811395168304443,2023-10-21T15:33:48.982102Z,1697902428982
0.026120662689208984,0.09267616271972656,-0.002611011266708374,2023-10-21T15:33:49.002369Z,1697902429002
0.027033329010009766,0.0957956314086914,-0.00240248441696167,2023-10-21T15:33:49.022562Z,1697902429022
0.027685880661010742,0.0981283187866211,-0.0021471530199050903,2023-10-21T15:33:49.045793Z,1697902429045
0.027531862258911133,0.0977773666381836,-0.0018103420734405518,2023-10-21T15:33:49.063103Z,1697902429063
0.026641368865966797,0.09499740600585938,-0.0014251023530960083,2023-10-21T15:33:49.083446Z,1697902429083
0.025499582290649414,0.09151840209960938,-0.0010445043444633484,2023-10-21T15:33:49.103674Z,1697902429103
0.02459883689880371,0.08909797668457031,-6.84596598148346E-4,2023-10-21T15:33:49.123864Z,1697902429123
0.02411341667175293,0.08838176727294922,-3.2700225710868835E-4,2023-10-21T15:33:49.145802Z,1697902429145
0.023975849151611328,0.08917617797851562,6.327172741293907E-5,2023-10-21T15:33:49.164419Z,1697902429164
0.02421736717224121,0.09166431427001953,5.151852965354919E-4,2023-10-21T15:33:49.184741Z,1697902429184
0.025191307067871094,0.09731101989746094,0.0010708346962928772,2023-10-21T15:33:49.204930Z,1697902429204
0.0274355411529541,0.10846424102783203,0.001813635230064392,2023-10-21T15:33:49.225066Z,1697902429224
0.031316280364990234,0.12706947326660156,0.0028732717037200928,2023-10-21T15:33:49.245412Z,1697902429245
0.036804914474487305,0.15369892120361328,0.00439608097076416,2023-10-21T15:33:49.265754Z,1697902429265
0.04336071014404297,0.1868896484375,0.006465405225753784,2023-10-21T15:33:49.285973Z,1697902429285
0.05013442039489746,0.22365474700927734,0.00906360149383545,2023-10-21T15:33:49.306174Z,1697902429306
0.056235313415527344,0.2603607177734375,0.012024760246276855,2023-10-21T15:33:49.328930Z,1697902429328
0.061214327812194824,0.2946920394897461,0.015110313892364502,2023-10-21T15:33:49.346889Z,1697902429346
0.06486618518829346,0.32494449615478516,0.018029391765594482,2023-10-21T15:33:49.367047Z,1697902429367
0.06716513633728027,0.35001564025878906,0.020523905754089355,2023-10-21T15:33:49.387274Z,1697902429387
0.068015456199646,0.36828041076660156,0.02234095335006714,2023-10-21T15:33:49.407471Z,1697902429407
0.06733345985412598,0.3779888153076172,0.023276031017303467,2023-10-21T15:33:49.428442Z,1697902429428
0.06516289710998535,0.3776226043701172,0.023161470890045166,2023-10-21T15:33:49.448082Z,1697902429448
0.06173443794250488,0.3666849136352539,0.02191781997680664,2023-10-21T15:33:49.468395Z,1697902429468
0.057608604431152344,0.34692859649658203,0.01967000961303711,2023-10-21T15:33:49.488529Z,1697902429488
0.053408026695251465,0.32163429260253906,0.01672154664993286,2023-10-21T15:33:49.511910Z,1697902429511
0.04965567588806152,0.2946338653564453,0.013467907905578613,2023-10-21T15:33:49.529092Z,1697902429529
0.04650318622589111,0.26824474334716797,0.010241180658340454,2023-10-21T15:33:49.549419Z,1697902429549
0.04386436939239502,0.24348735809326172,0.007256001234054565,2023-10-21T15:33:49.569662Z,1697902429569
0.04153013229370117,0.22036266326904297,0.004612162709236145,2023-10-21T15:33:49.589889Z,1697902429589
0.03947567939758301,0.19951820373535156,0.002357594668865204,2023-10-21T15:33:49.611724Z,1697902429611
0.037908077239990234,0.18230915069580078,4.5705772936344147E-4,2023-10-21T15:33:49.630515Z,1697902429630
0.037299394607543945,0.1709146499633789,-0.0012014508247375488,2023-10-21T15:33:49.650823Z,1697902429650
0.038092851638793945,0.16690635681152344,-0.002806365489959717,2023-10-21T15:33:49.670985Z,1697902429670
0.040403127670288086,0.17014694213867188,-0.004547774791717529,2023-10-21T15:33:49.691200Z,1697902429691
0.04383707046508789,0.1785602569580078,-0.006543874740600586,2023-10-21T15:33:49.711673Z,1697902429711
0.04757213592529297,0.1886920928955078,-0.008758306503295898,2023-10-21T15:33:49.731775Z,1697902429731
0.050836801528930664,0.1975727081298828,-0.011052191257476807,2023-10-21T15:33:49.752042Z,1697902429751
0.053156375885009766,0.2034282684326172,-0.013289093971252441,2023-10-21T15:33:49.772263Z,1697902429772
0.05462837219238281,0.2064990997314453,-0.015422344207763672,2023-10-21T15:33:49.794885Z,1697902429794
0.05570220947265625,0.20824718475341797,-0.01752769947052002,2023-10-21T15:33:49.812795Z,1697902429812
0.05702662467956543,0.21084880828857422,-0.01977384090423584,2023-10-21T15:33:49.833153Z,1697902429833
0.058821916580200195,0.21502113342285156,-0.022221803665161133,2023-10-21T15:33:49.853333Z,1697902429853
0.0610959529876709,0.2209024429321289,-0.02486443519592285,2023-10-21T15:33:49.873537Z,1697902429873
0.06366324424743652,0.22804927825927734,-0.027621865272521973,2023-10-21T15:33:49.894859Z,1697902429894
0.0665285587310791,0.2368021011352539,-0.030488133430480957,2023-10-21T15:33:49.914183Z,1697902429914
0.07015800476074219,0.2491598129272461,-0.03369772434234619,2023-10-21T15:33:49.934492Z,1697902429934
0.07506752014160156,0.26743125915527344,-0.037547945976257324,2023-10-21T15:33:49.954708Z,1697902429954
0.08148765563964844,0.29309940338134766,-0.04218184947967529,2023-10-21T15:33:49.978547Z,1697902429978
0.08886313438415527,0.3252439498901367,-0.04733622074127197,2023-10-21T15:33:49.995331Z,1697902429995
0.09607362747192383,0.3610506057739258,-0.052407145500183105,2023-10-21T15:33:50.015593Z,1697902430015
0.10190176963806152,0.39699649810791016,-0.05668365955352783,2023-10-21T15:33:50.035684Z,1697902430035
0.10571098327636719,0.4309244155883789,-0.059782981872558594,2023-10-21T15:33:50.056033Z,1697902430055
0.1073911190032959,0.46176624298095703,-0.06161510944366455,2023-10-21T15:33:50.078012Z,1697902430077
0.10729789733886719,0.4897422790527344,-0.06237804889678955,2023-10-21T15:33:50.096499Z,1697902430096
0.10583162307739258,0.5148582458496094,-0.0623164176940918,2023-10-21T15:33:50.116800Z,1697902430116
0.10324430465698242,0.5361356735229492,-0.06154477596282959,2023-10-21T15:33:50.137013Z,1697902430136
0.09968149662017822,0.5517663955688477,-0.06009948253631592,2023-10-21T15:33:50.157320Z,1697902430157
0.09532129764556885,0.5600032806396484,-0.05801880359649658,2023-10-21T15:33:50.177975Z,1697902430177
0.09053421020507812,0.560638427734375,-0.05550813674926758,2023-10-21T15:33:50.197826Z,1697902430197
0.0857764482498169,0.5548429489135742,-0.05280858278274536,2023-10-21T15:33:50.218165Z,1697902430218
0.08141255378723145,0.54449462890625,-0.050162434577941895,2023-10-21T15:33:50.238402Z,1697902430238
0.077644944190979,0.5314054489135742,-0.04770177602767944,2023-10-21T15:33:50.261697Z,1697902430261
0.07457149028778076,0.5173320770263672,-0.04549515247344971,2023-10-21T15:33:50.278841Z,1697902430278
0.07215261459350586,0.5032176971435547,-0.04350954294204712,2023-10-21T15:33:50.299176Z,1697902430299
0.07027065753936768,0.4896068572998047,-0.04166895151138306,2023-10-21T15:33:50.319442Z,1697902430319
0.06875729560852051,0.47655487060546875,-0.039876699447631836,2023-10-21T15:33:50.339673Z,1697902430339
0.06747281551361084,0.46402454376220703,-0.0380668044090271,2023-10-21T15:33:50.361209Z,1697902430361
0.0663144588470459,0.45192623138427734,-0.03621786832809448,2023-10-21T15:33:50.380266Z,1697902430380
0.06517279148101807,0.43971824645996094,-0.034277141094207764,2023-10-21T15:33:50.400499Z,1697902430400
0.06397974491119385,0.42685508728027344,-0.03225231170654297,2023-10-21T15:33:50.420704Z,1697902430420
0.06270778179168701,0.41286182403564453,-0.03016066551208496,2023-10-21T15:33:50.440895Z,1697902430440
0.06138730049133301,0.39762401580810547,-0.028059184551239014,2023-10-21T15:33:50.461244Z,1697902430461
0.05998122692108154,0.3808765411376953,-0.025984883308410645,2023-10-21T15:33:50.481577Z,1697902430481
0.05845439434051514,0.3626127243041992,-0.023980915546417236,2023-10-21T15:33:50.501781Z,1697902430501
0.05681908130645752,0.3431224822998047,-0.022077739238739014,2023-10-21T15:33:50.522045Z,1697902430521
0.05512583255767822,0.32303524017333984,-0.020325422286987305,2023-10-21T15:33:50.544272Z,1697902430544
0.05347800254821777,0.3032875061035156,-0.018768310546875,2023-10-21T15:33:50.562579Z,1697902430562
0.05203425884246826,0.2850456237792969,-0.017458200454711914,2023-10-21T15:33:50.582916Z,1697902430582
0.05100119113922119,0.2696104049682617,-0.016457736492156982,2023-10-21T15:33:50.603088Z,1697902430603
0.05062854290008545,0.25832080841064453,-0.015812456607818604,2023-10-21T15:33:50.623321Z,1697902430623
0.05112111568450928,0.25212860107421875,-0.015543103218078613,2023-10-21T15:33:50.644284Z,1697902430644
0.05251479148864746,0.25103187561035156,-0.015608608722686768,2023-10-21T15:33:50.663897Z,1697902430663
0.054729461669921875,0.2543525695800781,-0.015927255153656006,2023-10-21T15:33:50.684216Z,1697902430684
0.05755805969238281,0.2608919143676758,-0.016389548778533936,2023-10-21T15:33:50.704404Z,1697902430704
0.06077265739440918,0.2694568634033203,-0.01689547300338745,2023-10-21T15:33:50.727615Z,1697902430727
0.06428050994873047,0.27953243255615234,-0.01740783452987671,2023-10-21T15:33:50.744913Z,1697902430744
0.06800508499145508,0.2907533645629883,-0.017909646034240723,2023-10-21T15:33:50.765257Z,1697902430765
0.07190251350402832,0.3029489517211914,-0.018400728702545166,2023-10-21T15:33:50.785539Z,1697902430785
0.07595610618591309,0.3160667419433594,-0.018891990184783936,2023-10-21T15:33:50.805686Z,1697902430805
0.08004093170166016,0.3296194076538086,-0.019369900226593018,2023-10-21T15:33:50.827390Z,1697902430827
0.08388972282409668,0.3424978256225586,-0.019784212112426758,2023-10-21T15:33:50.846353Z,1697902430846
0.08724308013916016,0.35362720489501953,-0.020080864429473877,2023-10-21T15:33:50.866542Z,1697902430866
0.08994126319885254,0.36229991912841797,-0.02023184299468994,2023-10-21T15:33:50.886823Z,1697902430886
0.09208440780639648,0.3687753677368164,-0.02027660608291626,2023-10-21T15:33:50.907018Z,1697902430906
0.09388208389282227,0.3736743927001953,-0.020263969898223877,2023-10-21T15:33:50.927322Z,1697902430927
0.09546661376953125,0.37729835510253906,-0.02021777629852295,2023-10-21T15:33:50.947605Z,1697902430947
0.09695935249328613,0.3799152374267578,-0.020152807235717773,2023-10-21T15:33:50.967863Z,1697902430967
0.09846830368041992,0.3817873001098633,-0.020080089569091797,2023-10-21T15:33:50.988145Z,1697902430988
0.09999203681945801,0.3828897476196289,-0.019962430000305176,2023-10-21T15:33:51.010609Z,1697902431010
0.10152935981750488,0.3832826614379883,-0.01976156234741211,2023-10-21T15:33:51.028625Z,1697902431028
0.10311317443847656,0.3831663131713867,-0.019434213638305664,2023-10-21T15:33:51.048933Z,1697902431048
0.10487580299377441,0.3831214904785156,-0.018985778093338013,2023-10-21T15:33:51.069203Z,1697902431069
0.10689377784729004,0.3835277557373047,-0.018418073654174805,2023-10-21T15:33:51.089380Z,1697902431089
0.10910463333129883,0.38426685333251953,-0.01770615577697754,2023-10-21T15:33:51.110884Z,1697902431110
0.11131644248962402,0.3847494125366211,-0.01682335138320923,2023-10-21T15:33:51.129947Z,1697902431129
0.11334657669067383,0.38446521759033203,-0.015771418809890747,2023-10-21T15:33:51.150274Z,1697902431150
0.11499214172363281,0.3828592300415039,-0.014563769102096558,2023-10-21T15:33:51.170537Z,1697902431170
0.11594891548156738,0.3791685104370117,-0.013215512037277222,2023-10-21T15:33:51.194054Z,1697902431193
0.11590576171875,0.3726482391357422,-0.011750191450119019,2023-10-21T15:33:51.211151Z,1697902431211
0.11459922790527344,0.36266040802001953,-0.010207116603851318,2023-10-21T15:33:51.231332Z,1697902431231
0.11193490028381348,0.3490715026855469,-0.008648186922073364,2023-10-21T15:33:51.251576Z,1697902431251
0.1080019474029541,0.3322257995605469,-0.0071420818567276,2023-10-21T15:33:51.271884Z,1697902431271
0.10295367240905762,0.31263160705566406,-0.005734741687774658,2023-10-21T15:33:51.294093Z,1697902431294
0.09697842597961426,0.2909269332885742,-0.0044464170932769775,2023-10-21T15:33:51.312366Z,1697902431312
0.09039068222045898,0.26816558837890625,-0.0032905638217926025,2023-10-21T15:33:51.332632Z,1697902431332
0.08351826667785645,0.24538421630859375,-0.0022481903433799744,2023-10-21T15:33:51.352859Z,1697902431352
0.07671260833740234,0.22359657287597656,-0.0013059377670288086,2023-10-21T15:33:51.373176Z,1697902431373
0.07027387619018555,0.2035694122314453,-4.5227259397506714E-4,2023-10-21T15:33:51.394267Z,1697902431394
0.06441950798034668,0.1857900619506836,3.1576864421367645E-4,2023-10-21T15:33:51.413686Z,1697902431413
0.05929088592529297,0.1705493927001953,0.0010061375796794891,2023-10-21T15:33:51.434016Z,1697902431433
0.054862260818481445,0.15770816802978516,0.0016308426856994629,2023-10-21T15:33:51.454225Z,1697902431454
0.05078768730163574,0.14624691009521484,0.0021939724683761597,2023-10-21T15:33:51.477111Z,1697902431477
0.0467681884765625,0.1352691650390625,0.002691209316253662,2023-10-21T15:33:51.494653Z,1697902431494
0.042672157287597656,0.12433338165283203,0.0031029880046844482,2023-10-21T15:33:51.514973Z,1697902431514
0.03848743438720703,0.11328411102294922,0.0033998489379882812,2023-10-21T15:33:51.535248Z,1697902431535
0.03440427780151367,0.10258293151855469,0.0035819709300994873,2023-10-21T15:33:51.555451Z,1697902431555
0.030622005462646484,0.09275627136230469,0.0036758780479431152,2023-10-21T15:33:51.576946Z,1697902431576
0.027401208877563477,0.08458232879638672,0.003737807273864746,2023-10-21T15:33:51.596006Z,1697902431595
0.02501702308654785,0.07899188995361328,0.0038474202156066895,2023-10-21T15:33:51.616296Z,1697902431616
0.023562908172607422,0.07644844055175781,0.0040738582611083984,2023-10-21T15:33:51.636529Z,1697902431636
0.023057222366333008,0.07723617553710938,0.004479169845581055,2023-10-21T15:33:51.656703Z,1697902431656
0.023658275604248047,0.08224105834960938,0.005159854888916016,2023-10-21T15:33:51.677385Z,1697902431677
0.02542424201965332,0.0921173095703125,0.0062125325202941895,2023-10-21T15:33:51.697366Z,1697902431697
0.028162479400634766,0.10676288604736328,0.007681310176849365,2023-10-21T15:33:51.717641Z,1697902431717
0.03142595291137695,0.12502288818359375,0.009537756443023682,2023-10-21T15:33:51.737837Z,1697902431737
0.03462028503417969,0.14486217498779297,0.011633992195129395,2023-10-21T15:33:51.760121Z,1697902431760
0.037345170974731445,0.1645221710205078,0.013796389102935791,2023-10-21T15:33:51.778357Z,1697902431778
0.039395809173583984,0.1826333999633789,0.015822291374206543,2023-10-21T15:33:51.798687Z,1697902431798
0.0406498908996582,0.1977834701538086,0.0174635648727417,2023-10-21T15:33:51.818880Z,1697902431818
0.04099416732788086,0.2083425521850586,0.018460392951965332,2023-10-21T15:33:51.839182Z,1697902431839
0.0403134822845459,0.21259498596191406,0.018587708473205566,2023-10-21T15:33:51.860079Z,1697902431860
0.038474202156066895,0.20886516571044922,0.017701387405395508,2023-10-21T15:33:51.879669Z,1697902431879
0.035526394844055176,0.19689559936523438,0.015850484371185303,2023-10-21T15:33:51.899962Z,1697902431899
0.0317610502243042,0.17818355560302734,0.013298630714416504,2023-10-21T15:33:51.920225Z,1697902431920
0.02765345573425293,0.15570449829101562,0.01045083999633789,2023-10-21T15:33:51.943388Z,1697902431943
0.023612499237060547,0.13232803344726562,0.0076746344566345215,2023-10-21T15:33:51.960708Z,1697902431960
0.01980423927307129,0.10963058471679688,0.005199998617172241,2023-10-21T15:33:51.981045Z,1697902431981
0.016210079193115234,0.08805179595947266,0.003138422966003418,2023-10-21T15:33:52.001306Z,1697902432001
0.012783646583557129,0.06776905059814453,0.0015486180782318115,2023-10-21T15:33:52.021561Z,1697902432021
0.009676218032836914,0.049846649169921875,4.5652687549591064E-4,2023-10-21T15:33:52.044084Z,1697902432043
0.00720667839050293,0.03594207763671875,-1.968592405319214E-4,2023-10-21T15:33:52.062125Z,1697902432062
0.005797982215881348,0.02789783477783203,-5.908161401748657E-4,2023-10-21T15:33:52.082442Z,1697902432082
0.00567936897277832,0.02630615234375,-9.989440441131592E-4,2023-10-21T15:33:52.102676Z,1697902432102
0.00666046142578125,0.02965545654296875,-0.0016556382179260254,2023-10-21T15:33:52.122888Z,1697902432122
0.008305549621582031,0.03551769256591797,-0.0026454925537109375,2023-10-21T15:33:52.143274Z,1697902432143
0.010161876678466797,0.0417327880859375,-0.003912448883056641,2023-10-21T15:33:52.163364Z,1697902432163
0.012124300003051758,0.04778861999511719,-0.005419254302978516,2023-10-21T15:33:52.183653Z,1697902432183
0.01443171501159668,0.05454444885253906,-0.007277131080627441,2023-10-21T15:33:52.203948Z,1697902432203
0.017691850662231445,0.06405067443847656,-0.009844660758972168,2023-10-21T15:33:52.226684Z,1697902432226
0.02274775505065918,0.07878780364990234,-0.013720393180847168,2023-10-21T15:33:52.244461Z,1697902432244
0.030313491821289062,0.10036945343017578,-0.0195237398147583,2023-10-21T15:33:52.264746Z,1697902432264
0.04070305824279785,0.12885284423828125,-0.02764594554901123,2023-10-21T15:33:52.285022Z,1697902432284
0.053958892822265625,0.16342830657958984,-0.03822135925292969,2023-10-21T15:33:52.305180Z,1697902432305
0.07017397880554199,0.20364665985107422,-0.05135488510131836,2023-10-21T15:33:52.326471Z,1697902432326
0.08963131904602051,0.24975299835205078,-0.06728196144104004,2023-10-21T15:33:52.345794Z,1697902432345
0.1126246452331543,0.30215930938720703,-0.08629298210144043,2023-10-21T15:33:52.366071Z,1697902432365
0.13904547691345215,0.36039257049560547,-0.10842466354370117,2023-10-21T15:33:52.386331Z,1697902432386
0.167985200881958,0.4222097396850586,-0.1330857276916504,2023-10-21T15:33:52.409658Z,1697902432409
0.19757556915283203,0.4833555221557617,-0.15885162353515625,2023-10-21T15:33:52.426925Z,1697902432426
0.22530388832092285,0.5383644104003906,-0.18364381790161133,2023-10-21T15:33:52.447075Z,1697902432447
0.2491753101348877,0.5832233428955078,-0.20568275451660156,2023-10-21T15:33:52.467344Z,1697902432467
0.2684028148651123,0.6167831420898438,-0.22414588928222656,2023-10-21T15:33:52.487571Z,1697902432487
0.28299522399902344,0.6395730972290039,-0.23889541625976562,2023-10-21T15:33:52.509769Z,1697902432509
0.29359889030456543,0.6532249450683594,-0.2503032684326172,2023-10-21T15:33:52.528111Z,1697902432528
0.30042243003845215,0.6582775115966797,-0.258350133895874,2023-10-21T15:33:52.548418Z,1697902432548
0.30329251289367676,0.6544818878173828,-0.2626793384552002,2023-10-21T15:33:52.568709Z,1697902432568
0.30213141441345215,0.6417751312255859,-0.2630124092102051,2023-10-21T15:33:52.588890Z,1697902432588
0.297943115234375,0.6223201751708984,-0.2600574493408203,2023-10-21T15:33:52.609557Z,1697902432609
0.2930898666381836,0.6009931564331055,-0.25582408905029297,2023-10-21T15:33:52.629495Z,1697902432629
0.2904396057128906,0.5836305618286133,-0.25286102294921875,2023-10-21T15:33:52.649755Z,1697902432649
0.2918233871459961,0.5739097595214844,-0.25284695625305176,2023-10-21T15:33:52.669984Z,1697902432669
0.297182559967041,0.5717096328735352,-0.2557384967803955,2023-10-21T15:33:52.693055Z,1697902432693
0.30539846420288086,0.5749082565307617,-0.2605152130126953,2023-10-21T15:33:52.710487Z,1697902432710
0.31476736068725586,0.5803403854370117,-0.26566052436828613,2023-10-21T15:33:52.730819Z,1697902432730
0.3237457275390625,0.5851984024047852,-0.2697737216949463,2023-10-21T15:33:52.751047Z,1697902432751
0.332155704498291,0.5890588760375977,-0.2725529670715332,2023-10-21T15:33:52.771303Z,1697902432771
0.34008121490478516,0.5919380187988281,-0.273883581161499,2023-10-21T15:33:52.793164Z,1697902432793
0.34665679931640625,0.5924806594848633,-0.2730376720428467,2023-10-21T15:33:52.811848Z,1697902432811
0.34976816177368164,0.5874433517456055,-0.26853418350219727,2023-10-21T15:33:52.832161Z,1697902432832
0.34692859649658203,0.5731592178344727,-0.25885653495788574,2023-10-21T15:33:52.852371Z,1697902432852
0.3376326560974121,0.5490550994873047,-0.24409055709838867,2023-10-21T15:33:52.872580Z,1697902432872
0.3236427307128906,0.5179409980773926,-0.2259833812713623,2023-10-21T15:33:52.892864Z,1697902432892
0.3074526786804199,0.4837217330932617,-0.20670056343078613,2023-10-21T15:33:52.913171Z,1697902432913
0.29125308990478516,0.4498252868652344,-0.18796038627624512,2023-10-21T15:33:52.933456Z,1697902432933
0.27724552154541016,0.4196605682373047,-0.17126035690307617,2023-10-21T15:33:52.953675Z,1697902432953
0.2662954330444336,0.3945441246032715,-0.15709137916564941,2023-10-21T15:33:52.976095Z,1697902432976
0.2583780288696289,0.37447118759155273,-0.1453847885131836,2023-10-21T15:33:52.994275Z,1697902432994
0.2531251907348633,0.35890960693359375,-0.1358356475830078,2023-10-21T15:33:53.014512Z,1697902433014
0.24994325637817383,0.34700536727905273,-0.1279613971710205,2023-10-21T15:33:53.034781Z,1697902433034
0.2487173080444336,0.33851051330566406,-0.1214914321899414,2023-10-21T15:33:53.055031Z,1697902433054
0.24875116348266602,0.3323702812194824,-0.11589908599853516,2023-10-21T15:33:53.075918Z,1697902433075
0.2486414909362793,0.3267049789428711,-0.11041951179504395,2023-10-21T15:33:53.095545Z,1697902433095
0.2466902732849121,0.3193669319152832,-0.10429525375366211,2023-10-21T15:33:53.115842Z,1697902433115
0.24139976501464844,0.30860042572021484,-0.09703564643859863,2023-10-21T15:33:53.136120Z,1697902433136
0.23122310638427734,0.29259586334228516,-0.08826899528503418,2023-10-21T15:33:53.159300Z,1697902433159
0.21560049057006836,0.27068042755126953,-0.0781106948852539,2023-10-21T15:33:53.176556Z,1697902433176
0.1952676773071289,0.24369478225708008,-0.06714868545532227,2023-10-21T15:33:53.196902Z,1697902433196
0.1719813346862793,0.2136669158935547,-0.056198835372924805,2023-10-21T15:33:53.217155Z,1697902433217
0.14802122116088867,0.18330669403076172,-0.04608726501464844,2023-10-21T15:33:53.237355Z,1697902433237
0.1252918243408203,0.15485668182373047,-0.03735017776489258,2023-10-21T15:33:53.259066Z,1697902433259
0.10376310348510742,0.12818145751953125,-0.029836177825927734,2023-10-21T15:33:53.277894Z,1697902433277
0.08259201049804688,0.1021585464477539,-0.023132920265197754,2023-10-21T15:33:53.298209Z,1697902433298
0.061815738677978516,0.07669734954833984,-0.017057299613952637,2023-10-21T15:33:53.318502Z,1697902433318
0.04265308380126953,0.05317115783691406,-0.011734366416931152,2023-10-21T15:33:53.338697Z,1697902433338
0.027096271514892578,0.033977508544921875,-0.007512927055358887,2023-10-21T15:33:53.358958Z,1697902433358
0.015862464904785156,0.020030498504638672,-0.004473328590393066,2023-10-21T15:33:53.379250Z,1697902433379
0.008520126342773438,0.01084756851196289,-0.002459406852722168,2023-10-21T15:33:53.399569Z,1697902433399
0.004521846771240234,0.0058135986328125,-0.001341104507446289,2023-10-21T15:33:53.419815Z,1697902433419
0.003220081329345703,0.004188060760498047,-9.840726852416992E-4,2023-10-21T15:33:53.442337Z,1697902433442
0.0032377243041992188,0.004267215728759766,-0.0010193586349487305,2023-10-21T15:33:53.460320Z,1697902433460
0.0038886070251464844,0.005207538604736328,-0.0012593269348144531,2023-10-21T15:33:53.480626Z,1697902433480
0.005551815032958984,0.007571220397949219,-0.00185394287109375,2023-10-21T15:33:53.500851Z,1697902433500
0.008928775787353516,0.012404918670654297,-0.0030677318572998047,2023-10-21T15:33:53.521085Z,1697902433521
0.01396942138671875,0.01977252960205078,-0.004931211471557617,2023-10-21T15:33:53.542365Z,1697902433542
0.019245147705078125,0.027738094329833984,-0.006979584693908691,2023-10-21T15:33:53.561646Z,1697902433561
0.023189544677734375,0.03400754928588867,-0.00864553451538086,2023-10-21T15:33:53.581899Z,1697902433581
0.024993896484375,0.03725624084472656,-0.0095977783203125,2023-10-21T15:33:53.602173Z,1697902433602
0.024442195892333984,0.036982059478759766,-0.00969386100769043,2023-10-21T15:33:53.625679Z,1697902433625
0.022003650665283203,0.03370189666748047,-0.009033918380737305,2023-10-21T15:33:53.642786Z,1697902433642
0.018831729888916016,0.029081344604492188,-0.008018255233764648,2023-10-21T15:33:53.662966Z,1697902433662
0.01624441146850586,0.025168418884277344,-0.007177591323852539,2023-10-21T15:33:53.683203Z,1697902433683
0.015084266662597656,0.0233306884765625,-0.0069119930267333984,2023-10-21T15:33:53.703497Z,1697902433703
0.01575613021850586,0.024223804473876953,-0.00748443603515625,2023-10-21T15:33:53.725522Z,1697902433725
0.01878976821899414,0.028612136840820312,-0.009240865707397461,2023-10-21T15:33:53.743974Z,1697902433743
0.02527332305908203,0.03801536560058594,-0.012854814529418945,2023-10-21T15:33:53.764277Z,1697902433764
0.036376953125,0.05394554138183594,-0.019111156463623047,2023-10-21T15:33:53.784490Z,1697902433784
0.05276823043823242,0.0770411491394043,-0.028583765029907227,2023-10-21T15:33:53.804711Z,1697902433804
0.0742025375366211,0.10657358169555664,-0.04137134552001953,2023-10-21T15:33:53.825412Z,1697902433825
0.09969902038574219,0.1408538818359375,-0.05711531639099121,2023-10-21T15:33:53.845417Z,1697902433845
0.12789011001586914,0.1777973175048828,-0.07515811920166016,2023-10-21T15:33:53.865583Z,1697902433865
0.15679311752319336,0.21465015411376953,-0.09436941146850586,2023-10-21T15:33:53.885783Z,1697902433885
0.18429803848266602,0.24871063232421875,-0.11347699165344238,2023-10-21T15:33:53.908805Z,1697902433908
0.2083745002746582,0.2775135040283203,-0.13117718696594238,2023-10-21T15:33:53.926437Z,1697902433926
0.22742271423339844,0.2992534637451172,-0.1463923454284668,2023-10-21T15:33:53.946660Z,1697902433946
0.24086523056030273,0.31333065032958984,-0.1585860252380371,2023-10-21T15:33:53.966918Z,1697902433966
0.2494063377380371,0.32070446014404297,-0.1679682731628418,2023-10-21T15:33:53.987114Z,1697902433987
0.25387048721313477,0.322476863861084,-0.1747746467590332,2023-10-21T15:33:54.008657Z,1697902434008
0.25515127182006836,0.3198843002319336,-0.17933392524719238,2023-10-21T15:33:54.027758Z,1697902434027
0.25441789627075195,0.3145160675048828,-0.18227910995483398,2023-10-21T15:33:54.047987Z,1697902434047
0.2534608840942383,0.30873727798461914,-0.18485260009765625,2023-10-21T15:33:54.068164Z,1697902434068
0.25538015365600586,0.3063321113586426,-0.1894087791442871,2023-10-21T15:33:54.088353Z,1697902434088
0.2621898651123047,0.3094959259033203,-0.19753122329711914,2023-10-21T15:33:54.108706Z,1697902434108
0.274169921875,0.3183169364929199,-0.20947551727294922,2023-10-21T15:33:54.129016Z,1697902434128
0.2894420623779297,0.33050060272216797,-0.22374773025512695,2023-10-21T15:33:54.149280Z,1697902434149
0.3050961494445801,0.34268856048583984,-0.23782873153686523,2023-10-21T15:33:54.169564Z,1697902434169
0.3190927505493164,0.3524456024169922,-0.24976158142089844,2023-10-21T15:33:54.191908Z,1697902434191
0.3308448791503906,0.35881519317626953,-0.25867652893066406,2023-10-21T15:33:54.210077Z,1697902434209
0.3400712013244629,0.36130428314208984,-0.26403236389160156,2023-10-21T15:33:54.230362Z,1697902434230
0.34459447860717773,0.35770559310913086,-0.26395511627197266,2023-10-21T15:33:54.250578Z,1697902434250
0.3403935432434082,0.34427881240844727,-0.25543880462646484,2023-10-21T15:33:54.270817Z,1697902434270
0.3247032165527344,0.3189268112182617,-0.2368941307067871,2023-10-21T15:33:54.291918Z,1697902434291
0.2990288734436035,0.28406524658203125,-0.21037530899047852,2023-10-21T15:33:54.311363Z,1697902434311
0.26812219619750977,0.24510860443115234,-0.18031978607177734,2023-10-21T15:33:54.331630Z,1697902434331
0.23734760284423828,0.20762252807617188,-0.1512160301208496,2023-10-21T15:33:54.351928Z,1697902434351
0.2095785140991211,0.17449951171875,-0.12543201446533203,2023-10-21T15:33:54.375134Z,1697902434375
0.18535518646240234,0.1462874412536621,-0.103485107421875,2023-10-21T15:33:54.392413Z,1697902434392
0.16383123397827148,0.12221765518188477,-0.08489489555358887,2023-10-21T15:33:54.412736Z,1697902434412
0.14484119415283203,0.10190677642822266,-0.06941890716552734,2023-10-21T15:33:54.432976Z,1697902434432
0.1305685043334961,0.08645153045654297,-0.05776691436767578,2023-10-21T15:33:54.453179Z,1697902434453
0.1251544952392578,0.07780981063842773,-0.051067352294921875,2023-10-21T15:33:54.475006Z,1697902434474
0.1303701400756836,0.0759425163269043,-0.04905128479003906,2023-10-21T15:33:54.493728Z,1697902434493
0.14328956604003906,0.07804298400878906,-0.04972124099731445,2023-10-21T15:33:54.514063Z,1697902434513
0.15793228149414062,0.08025932312011719,-0.050589799880981445,2023-10-21T15:33:54.534268Z,1697902434534
0.16989994049072266,0.08036327362060547,-0.05034637451171875,2023-10-21T15:33:54.554462Z,1697902434554
0.1807403564453125,0.07931280136108398,-0.04975104331970215,2023-10-21T15:33:54.574932Z,1697902434574
0.19553756713867188,0.07924222946166992,-0.05026412010192871,2023-10-21T15:33:54.595085Z,1697902434595
0.2196512222290039,0.08176517486572266,-0.053080081939697266,2023-10-21T15:33:54.615306Z,1697902434615
0.2548503875732422,0.0866544246673584,-0.058380126953125,2023-10-21T15:33:54.635587Z,1697902434635
0.2993936538696289,0.09246444702148438,-0.0657191276550293,2023-10-21T15:33:54.658209Z,1697902434658
0.34963321685791016,0.09752583503723145,-0.07462120056152344,2023-10-21T15:33:54.676062Z,1697902434676
0.40091609954833984,0.10047221183776855,-0.08469510078430176,2023-10-21T15:33:54.696394Z,1697902434696
0.4487171173095703,0.10057878494262695,-0.09572315216064453,2023-10-21T15:33:54.716683Z,1697902434716
0.4899454116821289,0.09775793552398682,-0.10771465301513672,2023-10-21T15:33:54.736894Z,1697902434736
0.5230073928833008,0.09235572814941406,-0.12084388732910156,2023-10-21T15:33:54.758127Z,1697902434758
0.5465688705444336,0.08478426933288574,-0.13506507873535156,2023-10-21T15:33:54.777419Z,1697902434777
0.5568637847900391,0.07516217231750488,-0.14929795265197754,2023-10-21T15:33:54.797748Z,1697902434797
0.5495662689208984,0.06369614601135254,-0.16157150268554688,2023-10-21T15:33:54.817969Z,1697902434817
0.5231876373291016,0.051035165786743164,-0.16997361183166504,2023-10-21T15:33:54.838184Z,1697902434838
0.4814939498901367,0.0383298397064209,-0.17385149002075195,2023-10-21T15:33:54.858475Z,1697902434858
0.43264198303222656,0.026799798011779785,-0.1742260456085205,2023-10-21T15:33:54.878796Z,1697902434878
0.3870563507080078,0.017264634370803833,-0.1739673614501953,2023-10-21T15:33:54.899075Z,1697902434899
0.35364246368408203,0.009837895631790161,-0.17700576782226562,2023-10-21T15:33:54.919247Z,1697902434919
0.3352375030517578,0.004107184708118439,-0.18610143661499023,2023-10-21T15:33:54.941360Z,1697902434941
0.329681396484375,-3.931298851966858E-4,-0.20201444625854492,2023-10-21T15:33:54.959817Z,1697902434959
0.3325958251953125,-0.003912918269634247,-0.22384929656982422,2023-10-21T15:33:54.980102Z,1697902434980
0.34237194061279297,-0.0064583420753479,-0.25176572799682617,2023-10-21T15:33:55.000345Z,1697902435000
0.3553476333618164,-0.007740825414657593,-0.28418397903442383,2023-10-21T15:33:55.020538Z,1697902435020
0.3623976707458496,-0.007019802927970886,-0.3143906593322754,2023-10-21T15:33:55.041207Z,1697902435041
0.3545379638671875,-0.0035206452012062073,-0.3330955505371094,2023-10-21T15:33:55.061201Z,1697902435061
0.3284468650817871,0.002567056566476822,-0.33330202102661133,2023-10-21T15:33:55.081459Z,1697902435081
0.2899308204650879,0.009899735450744629,-0.31591081619262695,2023-10-21T15:33:55.101654Z,1697902435101
0.2449641227722168,0.016705632209777832,-0.284273624420166,2023-10-21T15:33:55.124590Z,1697902435124
0.19633960723876953,0.02138543128967285,-0.24079418182373047,2023-10-21T15:33:55.142169Z,1697902435142
0.1443619728088379,0.02247852087020874,-0.18596458435058594,2023-10-21T15:33:55.162512Z,1697902435162
0.08887529373168945,0.018532395362854004,-0.11962413787841797,2023-10-21T15:33:55.182770Z,1697902435182
0.030858516693115234,0.008258461952209473,-0.04318380355834961,2023-10-21T15:33:55.202938Z,1697902435202
-0.026535987854003906,-0.00882256031036377,0.0383601188659668,2023-10-21T15:33:55.224468Z,1697902435224
-0.07830095291137695,-0.0313570499420166,0.11570358276367188,2023-10-21T15:33:55.243514Z,1697902435243
-0.12003326416015625,-0.05607962608337402,0.17880582809448242,2023-10-21T15:33:55.263804Z,1697902435263
-0.1494603157043457,-0.07914972305297852,0.22140789031982422,2023-10-21T15:33:55.284032Z,1697902435283
-0.1674637794494629,-0.09851717948913574,0.24454689025878906,2023-10-21T15:33:55.304247Z,1697902435304
-0.1754317283630371,-0.11332106590270996,0.2515244483947754,2023-10-21T15:33:55.324609Z,1697902435324
-0.1745619773864746,-0.12278270721435547,0.2448573112487793,2023-10-21T15:33:55.344856Z,1697902435344
-0.1647930145263672,-0.12511444091796875,0.2249288558959961,2023-10-21T15:33:55.365074Z,1697902435365
-0.1448521614074707,-0.11761188507080078,0.19118785858154297,2023-10-21T15:33:55.385301Z,1697902435385
-0.1142268180847168,-0.09830570220947266,0.14494895935058594,2023-10-21T15:33:55.407680Z,1697902435407
-0.07222127914428711,-0.06532955169677734,0.08767938613891602,2023-10-21T15:33:55.425826Z,1697902435425
-0.01901865005493164,-0.017930030822753906,0.021991729736328125,2023-10-21T15:33:55.446194Z,1697902435446
0.04387044906616211,0.04272270202636719,-0.048108577728271484,2023-10-21T15:33:55.466435Z,1697902435466
0.11402225494384766,0.11367988586425781,-0.11812067031860352,2023-10-21T15:33:55.486620Z,1697902435486
0.18918800354003906,0.19162416458129883,-0.18476200103759766,2023-10-21T15:33:55.507647Z,1697902435507
0.2696824073791504,0.27540063858032227,-0.24790143966674805,2023-10-21T15:33:55.527195Z,1697902435527
0.3587021827697754,0.3657817840576172,-0.30945301055908203,2023-10-21T15:33:55.547521Z,1697902435547
0.46102428436279297,0.46392154693603516,-0.37192869186401367,2023-10-21T15:33:55.567766Z,1697902435567
0.5791559219360352,0.5686526298522949,-0.43614768981933594,2023-10-21T15:33:55.590874Z,1697902435590
0.7075800895690918,0.6735658645629883,-0.4994516372680664,2023-10-21T15:33:55.608212Z,1697902435608
0.8359227180480957,0.7707419395446777,-0.5580558776855469,2023-10-21T15:33:55.628559Z,1697902435628
0.9543375968933105,0.8540134429931641,-0.6087532043457031,2023-10-21T15:33:55.648787Z,1697902435648
1.060445785522461,0.9233202934265137,-0.6520929336547852,2023-10-21T15:33:55.669040Z,1697902435668
1.1563239097595215,0.9816970825195312,-0.690523624420166,2023-10-21T15:33:55.690725Z,1697902435690
1.2428722381591797,1.030667781829834,-0.7251577377319336,2023-10-21T15:33:55.709542Z,1697902435709
1.3156814575195312,1.0684256553649902,-0.7545177936553955,2023-10-21T15:33:55.729868Z,1697902435729
1.3650331497192383,1.0914225578308105,-0.7756376266479492,2023-10-21T15:33:55.750096Z,1697902435750
1.3818845748901367,1.0971488952636719,-0.784895658493042,2023-10-21T15:33:55.770308Z,1697902435770
1.3645286560058594,1.085714340209961,-0.7803316116333008,2023-10-21T15:33:55.790784Z,1697902435790
1.3232975006103516,1.0618705749511719,-0.7640933990478516,2023-10-21T15:33:55.810981Z,1697902435810
1.2705144882202148,1.0310587882995605,-0.7399296760559082,2023-10-21T15:33:55.831180Z,1697902435831
1.2142181396484375,0.9979820251464844,-0.7122001647949219,2023-10-21T15:33:55.851412Z,1697902435851
1.1540307998657227,0.9629225730895996,-0.6818704605102539,2023-10-21T15:33:55.873872Z,1697902435873
1.0879178047180176,0.9241857528686523,-0.6479105949401855,2023-10-21T15:33:55.891926Z,1697902435891
1.0162291526794434,0.8811535835266113,-0.6101412773132324,2023-10-21T15:33:55.912262Z,1697902435912
0.9398961067199707,0.8335623741149902,-0.5684733390808105,2023-10-21T15:33:55.932491Z,1697902435932
0.860774040222168,0.7818937301635742,-0.523491382598877,2023-10-21T15:33:55.952733Z,1697902435952
0.7804884910583496,0.7268085479736328,-0.47602391242980957,2023-10-21T15:33:55.973818Z,1697902435973
0.7003970146179199,0.6690902709960938,-0.4270913600921631,2023-10-21T15:33:55.993251Z,1697902435993
0.6216692924499512,0.609520435333252,-0.3776421546936035,2023-10-21T15:33:56.013562Z,1697902436013
0.545933723449707,0.549346923828125,-0.32912206649780273,2023-10-21T15:33:56.033738Z,1697902436033
0.4755582809448242,0.49073266983032227,-0.28334641456604004,2023-10-21T15:33:56.057177Z,1697902436057
0.410524845123291,0.43393802642822266,-0.2408275604248047,2023-10-21T15:33:56.074388Z,1697902436074
0.34789562225341797,0.37651920318603516,-0.20049095153808594,2023-10-21T15:33:56.094580Z,1697902436094
0.2853860855102539,0.316312313079834,-0.1613008975982666,2023-10-21T15:33:56.114844Z,1697902436114
0.22529125213623047,0.25574636459350586,-0.12468290328979492,2023-10-21T15:33:56.135139Z,1697902436135
0.17289352416992188,0.20084476470947266,-0.09349799156188965,2023-10-21T15:33:56.157114Z,1697902436157
0.13023948669433594,0.15459966659545898,-0.0686955451965332,2023-10-21T15:33:56.175638Z,1697902436175
0.09579896926879883,0.11600828170776367,-0.04922938346862793,2023-10-21T15:33:56.195955Z,1697902436195
0.06763172149658203,0.08340930938720703,-0.03384137153625488,2023-10-21T15:33:56.216179Z,1697902436216
0.044881343841552734,0.0562748908996582,-0.021857023239135742,2023-10-21T15:33:56.236398Z,1697902436236
0.026475906372070312,0.03368949890136719,-0.012534618377685547,2023-10-21T15:33:56.257170Z,1697902436257
0.012472152709960938,0.01606893539428711,-0.005730628967285156,2023-10-21T15:33:56.276976Z,1697902436276
0.0038089752197265625,0.004953861236572266,-0.0016932487487792969,2023-10-21T15:33:56.297298Z,1697902436297
7.877349853515625E-4,0.0010313987731933594,-3.390312194824219E-4,2023-10-21T15:33:56.317575Z,1697902436317
0.0016446113586425781,0.0021576881408691406,-6.804466247558594E-4,2023-10-21T15:33:56.340501Z,1697902436340
0.002246379852294922,0.0029473304748535156,-8.978843688964844E-4,2023-10-21T15:33:56.358005Z,1697902436357
8.921623229980469E-4,0.0011682510375976562,-3.445148468017578E-4,2023-10-21T15:33:56.378385Z,1697902436378
-0.0017843246459960938,-0.0023255348205566406,6.659030914306641E-4,2023-10-21T15:33:56.398614Z,1697902436398
-0.004993438720703125,-0.006477832794189453,0.0018181800842285156,2023-10-21T15:33:56.418794Z,1697902436418
-0.00885629653930664,-0.011424541473388672,0.00316619873046875,2023-10-21T15:33:56.440300Z,1697902436440
-0.014158248901367188,-0.018172264099121094,0.005026578903198242,2023-10-21T15:33:56.459305Z,1697902436459
-0.020995140075683594,-0.02684497833251953,0.007501125335693359,2023-10-21T15:33:56.479719Z,1697902436479
-0.028417587280273438,-0.03624916076660156,0.010370731353759766,2023-10-21T15:33:56.499895Z,1697902436499
-0.035157203674316406,-0.04478931427001953,0.01329183578491211,2023-10-21T15:33:56.520047Z,1697902436520
-0.04010725021362305,-0.05107927322387695,0.015900135040283203,2023-10-21T15:33:56.540336Z,1697902436540
-0.041988372802734375,-0.0535120964050293,0.017644882202148438,2023-10-21T15:33:56.560679Z,1697902436560
-0.039714813232421875,-0.050701141357421875,0.01784491539001465,2023-10-21T15:33:56.580953Z,1697902436580
-0.032047271728515625,-0.04100990295410156,0.015492916107177734,2023-10-21T15:33:56.601140Z,1697902436601
-0.01899862289428711,-0.024376869201660156,0.009911537170410156,2023-10-21T15:33:56.623346Z,1697902436623
-0.0022826194763183594,-0.0029363632202148438,0.0012841224670410156,2023-10-21T15:33:56.641709Z,1697902436641
0.016055583953857422,0.02067089080810547,-0.009692192077636719,2023-10-21T15:33:56.662008Z,1697902436661
0.03499174118041992,0.0449671745300293,-0.02252364158630371,2023-10-21T15:33:56.682308Z,1697902436682
0.054296016693115234,0.0693502426147461,-0.0369718074798584,2023-10-21T15:33:56.702432Z,1697902436702
0.07383346557617188,0.09331178665161133,-0.05275154113769531,2023-10-21T15:33:56.723243Z,1697902436723
0.09260892868041992,0.1153254508972168,-0.06889200210571289,2023-10-21T15:33:56.742998Z,1697902436742
0.10909891128540039,0.13336753845214844,-0.08389711380004883,2023-10-21T15:33:56.763310Z,1697902436763
0.1223912239074707,0.1463327407836914,-0.09662818908691406,2023-10-21T15:33:56.783545Z,1697902436783
0.13266658782958984,0.15452194213867188,-0.1068115234375,2023-10-21T15:33:56.806842Z,1697902436806
0.14212369918823242,0.16053295135498047,-0.11591529846191406,2023-10-21T15:33:56.824039Z,1697902436824
0.1535634994506836,0.1674213409423828,-0.12609577178955078,2023-10-21T15:33:56.844389Z,1697902436844
0.16869068145751953,0.17680692672729492,-0.13872480392456055,2023-10-21T15:33:56.864694Z,1697902436864
0.1868448257446289,0.18776226043701172,-0.15325021743774414,2023-10-21T15:33:56.884825Z,1697902436884
0.20620059967041016,0.19842958450317383,-0.16817665100097656,2023-10-21T15:33:56.906592Z,1697902436906
0.22502994537353516,0.20734548568725586,-0.18216514587402344,2023-10-21T15:33:56.925380Z,1697902436925
0.2428755760192871,0.21434974670410156,-0.19489049911499023,2023-10-21T15:33:56.945677Z,1697902436945
0.25994300842285156,0.21976566314697266,-0.20645952224731445,2023-10-21T15:33:56.965943Z,1697902436965
0.2758808135986328,0.2233715057373047,-0.21649169921875,2023-10-21T15:33:56.986168Z,1697902436986
0.28960371017456055,0.22444391250610352,-0.2240891456604004,2023-10-21T15:33:57.006509Z,1697902437006
0.29955101013183594,0.22214412689208984,-0.22813796997070312,2023-10-21T15:33:57.026715Z,1697902437026
0.30441761016845703,0.21604251861572266,-0.2278900146484375,2023-10-21T15:33:57.046948Z,1697902437046
0.3031501770019531,0.20598506927490234,-0.22279691696166992,2023-10-21T15:33:57.067223Z,1697902437067
0.29495668411254883,0.1920018196105957,-0.21254777908325195,2023-10-21T15:33:57.089692Z,1697902437089
0.279848575592041,0.17459535598754883,-0.19745206832885742,2023-10-21T15:33:57.107711Z,1697902437107
0.2606229782104492,0.15582275390625,-0.17977285385131836,2023-10-21T15:33:57.128007Z,1697902437127
0.24151897430419922,0.1383204460144043,-0.1626739501953125,2023-10-21T15:33:57.148267Z,1697902437148
0.2259078025817871,0.1239461898803711,-0.14853858947753906,2023-10-21T15:33:57.168470Z,1697902437168
0.21456336975097656,0.11293840408325195,-0.1378464698791504,2023-10-21T15:33:57.189650Z,1697902437189
0.20627117156982422,0.10445213317871094,-0.1297440528869629,2023-10-21T15:33:57.209036Z,1697902437208
0.1999797821044922,0.09774017333984375,-0.12349605560302734,2023-10-21T15:33:57.229358Z,1697902437229
0.1962113380432129,0.09284138679504395,-0.11934185028076172,2023-10-21T15:33:57.249536Z,1697902437249
0.19675970077514648,0.09037661552429199,-0.11831426620483398,2023-10-21T15:33:57.273097Z,1697902437273
0.20335865020751953,0.09090352058410645,-0.12142276763916016,2023-10-21T15:33:57.290240Z,1697902437290
0.2155323028564453,0.09401059150695801,-0.12847328186035156,2023-10-21T15:33:57.310383Z,1697902437310
0.22950410842895508,0.09795093536376953,-0.13736438751220703,2023-10-21T15:33:57.330623Z,1697902437330
0.2411346435546875,0.10094475746154785,-0.14570331573486328,2023-10-21T15:33:57.352203Z,1697902437352
0.24950790405273438,0.10254907608032227,-0.15280914306640625,2023-10-21T15:33:57.373245Z,1697902437373
0.25874900817871094,0.10424566268920898,-0.16101884841918945,2023-10-21T15:33:57.391429Z,1697902437391
0.2720832824707031,0.10703635215759277,-0.17243480682373047,2023-10-21T15:33:57.411761Z,1697902437411
0.2893352508544922,0.11057758331298828,-0.18721389770507812,2023-10-21T15:33:57.431994Z,1697902437431
0.30869102478027344,0.11392450332641602,-0.20426321029663086,2023-10-21T15:33:57.452257Z,1697902437452
0.33011913299560547,0.11686444282531738,-0.2233281135559082,2023-10-21T15:33:57.472618Z,1697902437472
0.35700082778930664,0.1205604076385498,-0.2466273307800293,2023-10-21T15:33:57.492821Z,1697902437492
0.3881721496582031,0.1248619556427002,-0.27379274368286133,2023-10-21T15:33:57.513074Z,1697902437513
0.4171133041381836,0.12827539443969727,-0.3005814552307129,2023-10-21T15:33:57.533362Z,1697902437533
0.4388251304626465,0.13006830215454102,-0.32294416427612305,2023-10-21T15:33:57.556269Z,1697902437556
0.44966888427734375,0.12951445579528809,-0.33699893951416016,2023-10-21T15:33:57.573811Z,1697902437573
0.4504518508911133,0.12693524360656738,-0.3423271179199219,2023-10-21T15:33:57.594145Z,1697902437594
0.4444437026977539,0.12296080589294434,-0.340975284576416,2023-10-21T15:33:57.614405Z,1697902437614
0.4361896514892578,0.11842966079711914,-0.33652353286743164,2023-10-21T15:33:57.634658Z,1697902437634
0.42819738388061523,0.11405181884765625,-0.3314018249511719,2023-10-21T15:33:57.656148Z,1697902437656
0.4194011688232422,0.10980391502380371,-0.32557249069213867,2023-10-21T15:33:57.675188Z,1697902437675
0.40529632568359375,0.10460793972015381,-0.31577634811401367,2023-10-21T15:33:57.695457Z,1697902437695
0.38716745376586914,0.09851884841918945,-0.3025197982788086,2023-10-21T15:33:57.715706Z,1697902437715
0.37117624282836914,0.09271979331970215,-0.2902374267578125,2023-10-21T15:33:57.735914Z,1697902437735
0.36099672317504883,0.08790528774261475,-0.28214359283447266,2023-10-21T15:33:57.756172Z,1697902437756
0.35717201232910156,0.08441603183746338,-0.2794332504272461,2023-10-21T15:33:57.776477Z,1697902437776
0.3544464111328125,0.08131122589111328,-0.2784690856933594,2023-10-21T15:33:57.796767Z,1697902437796
0.347714900970459,0.07792258262634277,-0.27495670318603516,2023-10-21T15:33:57.817039Z,1697902437816
0.3343086242675781,0.07415914535522461,-0.2661299705505371,2023-10-21T15:33:57.839379Z,1697902437839
0.31415557861328125,0.07004415988922119,-0.25146055221557617,2023-10-21T15:33:57.857512Z,1697902437857
0.2878246307373047,0.06541311740875244,-0.2312479019165039,2023-10-21T15:33:57.877842Z,1697902437877
0.254547119140625,0.059668540954589844,-0.2049241065979004,2023-10-21T15:33:57.898103Z,1697902437898
0.21515321731567383,0.05254518985748291,-0.17307758331298828,2023-10-21T15:33:57.918322Z,1697902437918
0.1750473976135254,0.04488861560821533,-0.1400918960571289,2023-10-21T15:33:57.939301Z,1697902437939
0.14031457901000977,0.03797793388366699,-0.11117839813232422,2023-10-21T15:33:57.958923Z,1697902437958
0.11408281326293945,0.0326845645904541,-0.08919954299926758,2023-10-21T15:33:57.979144Z,1697902437979
0.09328651428222656,0.02828526496887207,-0.07181501388549805,2023-10-21T15:33:57.999405Z,1697902437999
0.0771484375,0.024652719497680664,-0.05830955505371094,2023-10-21T15:33:58.022602Z,1697902438022
0.06972360610961914,0.023283958435058594,-0.0515589714050293,2023-10-21T15:33:58.039904Z,1697902438039
0.07378721237182617,0.025475263595581055,-0.05326652526855469,2023-10-21T15:33:58.060220Z,1697902438060
0.09105682373046875,0.03220009803771973,-0.06420373916625977,2023-10-21T15:33:58.080460Z,1697902438080
0.11905336380004883,0.04282808303833008,-0.08220958709716797,2023-10-21T15:33:58.100728Z,1697902438100
0.15265703201293945,0.05570721626281738,-0.1036233901977539,2023-10-21T15:33:58.122476Z,1697902438122
0.18407821655273438,0.06825971603393555,-0.12330913543701172,2023-10-21T15:33:58.141273Z,1697902438141
0.2076106071472168,0.07846808433532715,-0.13766050338745117,2023-10-21T15:33:58.161509Z,1697902438161
0.22251033782958984,0.0858755111694336,-0.14612865447998047,2023-10-21T15:33:58.181767Z,1697902438181
0.23381423950195312,0.0922400951385498,-0.15201616287231445,2023-10-21T15:33:58.202003Z,1697902438201
0.24245929718017578,0.0980381965637207,-0.15613794326782227,2023-10-21T15:33:58.222338Z,1697902438222
0.2447376251220703,0.10200309753417969,-0.15634822845458984,2023-10-21T15:33:58.242567Z,1697902438242
0.2395944595336914,0.10365819931030273,-0.15192413330078125,2023-10-21T15:33:58.262854Z,1697902438262
0.22866344451904297,0.10314345359802246,-0.14355897903442383,2023-10-21T15:33:58.283080Z,1697902438283
0.21762561798095703,0.10243916511535645,-0.1346435546875,2023-10-21T15:33:58.305670Z,1697902438305
0.21019697189331055,0.10297250747680664,-0.12758731842041016,2023-10-21T15:33:58.323546Z,1697902438323
0.2075042724609375,0.10521602630615234,-0.12323713302612305,2023-10-21T15:33:58.343880Z,1697902438343
0.2086782455444336,0.10890865325927734,-0.12114334106445312,2023-10-21T15:33:58.364130Z,1697902438364
0.21262884140014648,0.11372089385986328,-0.12071943283081055,2023-10-21T15:33:58.384411Z,1697902438384
0.21770095825195312,0.11903238296508789,-0.1210622787475586,2023-10-21T15:33:58.405649Z,1697902438405
0.22271251678466797,0.12438011169433594,-0.1215968132019043,2023-10-21T15:33:58.424899Z,1697902438424
0.2254619598388672,0.1286306381225586,-0.1212158203125,2023-10-21T15:33:58.445225Z,1697902438445
0.22399187088012695,0.13068819046020508,-0.11899423599243164,2023-10-21T15:33:58.465464Z,1697902438465
0.2159872055053711,0.12912988662719727,-0.11382484436035156,2023-10-21T15:33:58.489060Z,1697902438489
0.2014293670654297,0.12367630004882812,-0.10576248168945312,2023-10-21T15:33:58.506101Z,1697902438506
0.18246126174926758,0.11524248123168945,-0.09588170051574707,2023-10-21T15:33:58.526214Z,1697902438526
0.1619119644165039,0.10526657104492188,-0.08548402786254883,2023-10-21T15:33:58.546525Z,1697902438546
0.14281129837036133,0.0955667495727539,-0.07600116729736328,2023-10-21T15:33:58.566787Z,1697902438566
0.1268758773803711,0.08738374710083008,-0.06827116012573242,2023-10-21T15:33:58.588878Z,1697902438588
0.11509037017822266,0.08160114288330078,-0.06280136108398438,2023-10-21T15:33:58.607263Z,1697902438607
0.1063389778137207,0.07763814926147461,-0.058980464935302734,2023-10-21T15:33:58.627576Z,1697902438627
0.09897232055664062,0.07439613342285156,-0.0558781623840332,2023-10-21T15:33:58.647900Z,1697902438647
0.09227275848388672,0.0713200569152832,-0.05306386947631836,2023-10-21T15:33:58.668063Z,1697902438668
0.08818483352661133,0.0699005126953125,-0.05165243148803711,2023-10-21T15:33:58.688787Z,1697902438688
0.08865976333618164,0.07181549072265625,-0.05285310745239258,2023-10-21T15:33:58.708607Z,1697902438708
0.09288263320922852,0.07664299011230469,-0.05630779266357422,2023-10-21T15:33:58.728953Z,1697902438728
0.09853410720825195,0.08266735076904297,-0.06072425842285156,2023-10-21T15:33:58.749162Z,1697902438749
0.10307598114013672,0.08784341812133789,-0.06457757949829102,2023-10-21T15:33:58.772198Z,1697902438772
0.10533666610717773,0.09113645553588867,-0.06710338592529297,2023-10-21T15:33:58.789621Z,1697902438789
0.10549306869506836,0.09250259399414062,-0.06828498840332031,2023-10-21T15:33:58.809957Z,1697902438809
0.10482645034790039,0.09286355972290039,-0.06883907318115234,2023-10-21T15:33:58.830191Z,1697902438830
0.10561847686767578,0.09411811828613281,-0.0702061653137207,2023-10-21T15:33:58.850477Z,1697902438850
0.10981369018554688,0.0980377197265625,-0.0737142562866211,2023-10-21T15:33:58.872130Z,1697902438872
0.11595439910888672,0.10342741012573242,-0.07845401763916016,2023-10-21T15:33:58.890987Z,1697902438890
0.12142276763916016,0.10802030563354492,-0.08271503448486328,2023-10-21T15:33:58.911293Z,1697902438911
0.1239938735961914,0.10979270935058594,-0.08491992950439453,2023-10-21T15:33:58.931522Z,1697902438931
0.12436676025390625,0.10923004150390625,-0.08540773391723633,2023-10-21T15:33:58.951707Z,1697902438951
0.12495708465576172,0.10830497741699219,-0.08568191528320312,2023-10-21T15:33:58.972012Z,1697902438971
0.12766075134277344,0.10852193832397461,-0.08686399459838867,2023-10-21T15:33:58.992277Z,1697902438992
0.13273334503173828,0.11002254486083984,-0.08901405334472656,2023-10-21T15:33:59.012604Z,1697902439012
0.13802099227905273,0.11110258102416992,-0.09062576293945312,2023-10-21T15:33:59.032843Z,1697902439032
0.13830327987670898,0.10789108276367188,-0.08838510513305664,2023-10-21T15:33:59.055255Z,1697902439055
0.12907981872558594,0.09743404388427734,-0.07979249954223633,2023-10-21T15:33:59.073352Z,1697902439073
0.11137580871582031,0.08115863800048828,-0.06612539291381836,2023-10-21T15:33:59.093659Z,1697902439093
0.09128475189208984,0.06400442123413086,-0.051604270935058594,2023-10-21T15:33:59.113921Z,1697902439113
0.07611703872680664,0.051167964935302734,-0.04060506820678711,2023-10-21T15:33:59.134195Z,1697902439134
0.06838655471801758,0.04393577575683594,-0.034128427505493164,2023-10-21T15:33:59.155237Z,1697902439155
0.06520652770996094,0.039938926696777344,-0.030203819274902344,2023-10-21T15:33:59.174693Z,1697902439174
0.06071615219116211,0.03539705276489258,-0.02592778205871582,2023-10-21T15:33:59.194970Z,1697902439194
0.051741600036621094,0.02867603302001953,-0.020258426666259766,2023-10-21T15:33:59.215216Z,1697902439215
0.041533470153808594,0.02182912826538086,-0.014855623245239258,2023-10-21T15:33:59.238535Z,1697902439238
0.037741661071777344,0.018741130828857422,-0.012304306030273438,2023-10-21T15:33:59.255681Z,1697902439255
0.046142578125,0.02154397964477539,-0.01370382308959961,2023-10-21T15:33:59.275983Z,1697902439275
0.0656118392944336,0.02866673469543457,-0.017754793167114258,2023-10-21T15:33:59.296248Z,1697902439296
0.08906173706054688,0.03626561164855957,-0.021989107131958008,2023-10-21T15:33:59.316535Z,1697902439316
0.1107330322265625,0.04188394546508789,-0.025055408477783203,2023-10-21T15:33:59.338346Z,1697902439338
0.1265401840209961,0.04433083534240723,-0.026462078094482422,2023-10-21T15:33:59.357091Z,1697902439357
0.13750267028808594,0.04442405700683594,-0.02687382698059082,2023-10-21T15:33:59.377310Z,1697902439377
0.14995765686035156,0.04434633255004883,-0.02775275707244873,2023-10-21T15:33:59.397572Z,1697902439397
0.1694011688232422,0.04532790184020996,-0.03009939193725586,2023-10-21T15:33:59.417786Z,1697902439417
0.19665241241455078,0.04691576957702637,-0.034099578857421875,2023-10-21T15:33:59.438194Z,1697902439438
0.22649192810058594,0.04740142822265625,-0.03908205032348633,2023-10-21T15:33:59.458362Z,1697902439458
0.2523975372314453,0.045546650886535645,-0.04430878162384033,2023-10-21T15:33:59.478672Z,1697902439478
0.2711200714111328,0.04144454002380371,-0.0495525598526001,2023-10-21T15:33:59.498909Z,1697902439498
0.2843437194824219,0.03609418869018555,-0.055313944816589355,2023-10-21T15:33:59.522327Z,1697902439522
0.29583168029785156,0.030452072620391846,-0.0625314712524414,2023-10-21T15:33:59.539376Z,1697902439539
0.3129405975341797,0.025461196899414062,-0.07314705848693848,2023-10-21T15:33:59.559688Z,1697902439559
0.33972835540771484,0.021541595458984375,-0.0889899730682373,2023-10-21T15:33:59.580007Z,1697902439579
0.3701610565185547,0.018759459257125854,-0.1095435619354248,2023-10-21T15:33:59.600189Z,1697902439600
0.3937215805053711,0.017418622970581055,-0.1320483684539795,2023-10-21T15:33:59.621472Z,1697902439621
0.40167713165283203,0.017817407846450806,-0.1526319980621338,2023-10-21T15:33:59.640731Z,1697902439640
0.39980220794677734,0.02006593346595764,-0.1716928482055664,2023-10-21T15:33:59.661028Z,1697902439660
0.4022798538208008,0.024450600147247314,-0.19527006149291992,2023-10-21T15:33:59.681295Z,1697902439681
0.3946237564086914,0.03057175874710083,-0.2168436050415039,2023-10-21T15:33:59.704811Z,1697902439704
0.3716278076171875,0.03786569833755493,-0.23153257369995117,2023-10-21T15:33:59.721885Z,1697902439721
0.3462696075439453,0.04684567451477051,-0.24354839324951172,2023-10-21T15:33:59.742087Z,1697902439741
0.3440413475036621,0.0607144832611084,-0.27004384994506836,2023-10-21T15:33:59.762338Z,1697902439762
0.3774242401123047,0.08386802673339844,-0.3255343437194824,2023-10-21T15:33:59.782578Z,1697902439782
0.42610836029052734,0.11560177803039551,-0.398958683013916,2023-10-21T15:33:59.804673Z,1697902439804
0.4728050231933594,0.15317106246948242,-0.4771561622619629,2023-10-21T15:33:59.823071Z,1697902439823
0.5208892822265625,0.19797992706298828,-0.5629830360412598,2023-10-21T15:33:59.843382Z,1697902439843
0.5760445594787598,0.2534370422363281,-0.6615853309631348,2023-10-21T15:33:59.863645Z,1697902439863
0.6344695091247559,0.3194408416748047,-0.7653641700744629,2023-10-21T15:33:59.883876Z,1697902439883
0.7039608955383301,0.39841389656066895,-0.8785710334777832,2023-10-21T15:33:59.904678Z,1697902439904
0.7856554985046387,0.48985815048217773,-0.9983477592468262,2023-10-21T15:33:59.924486Z,1697902439924
0.8731842041015625,0.590078592300415,-1.1177983283996582,2023-10-21T15:33:59.944749Z,1697902439944
0.9499516487121582,0.6915016174316406,-1.2231225967407227,2023-10-21T15:33:59.964977Z,1697902439964
1.0025548934936523,0.7877488136291504,-1.303863525390625,2023-10-21T15:33:59.987993Z,1697902439987
1.0409936904907227,0.8807072639465332,-1.369307518005371,2023-10-21T15:34:00.006487Z,1697902440006
1.078199863433838,0.9733362197875977,-1.4283771514892578,2023-10-21T15:34:00.025658Z,1697902440025
1.1134462356567383,1.0613856315612793,-1.4764142036437988,2023-10-21T15:34:00.045941Z,1697902440045
1.1405248641967773,1.1375813484191895,-1.5058674812316895,2023-10-21T15:34:00.066267Z,1697902440066
1.1537165641784668,1.194779872894287,-1.5115313529968262,2023-10-21T15:34:00.086531Z,1697902440086
1.1534409523010254,1.2279257774353027,-1.4933538436889648,2023-10-21T15:34:00.106841Z,1697902440106
1.142594814300537,1.2343769073486328,-1.4545154571533203,2023-10-21T15:34:00.127094Z,1697902440127
1.1248784065246582,1.2154765129089355,-1.3999738693237305,2023-10-21T15:34:00.147344Z,1697902440147
1.1032814979553223,1.177417278289795,-1.3354783058166504,2023-10-21T15:34:00.167489Z,1697902440167
1.0779004096984863,1.1246404647827148,-1.259626865386963,2023-10-21T15:34:00.187746Z,1697902440187
1.0614752769470215,1.066777229309082,-1.1831440925598145,2023-10-21T15:34:00.208086Z,1697902440208
1.0612874031066895,1.0102591514587402,-1.1137580871582031,2023-10-21T15:34:00.228444Z,1697902440228
1.073150634765625,0.9559874534606934,-1.0548677444458008,2023-10-21T15:34:00.248653Z,1697902440248
1.08050537109375,0.8987393379211426,-0.9999995231628418,2023-10-21T15:34:00.271011Z,1697902440270
1.0710139274597168,0.8364524841308594,-0.943239688873291,2023-10-21T15:34:00.289146Z,1697902440289
1.0574893951416016,0.7783589363098145,-0.8932490348815918,2023-10-21T15:34:00.309444Z,1697902440309
1.0549120903015137,0.7324886322021484,-0.8578705787658691,2023-10-21T15:34:00.329708Z,1697902440329
1.057504653930664,0.6946053504943848,-0.8313302993774414,2023-10-21T15:34:00.349965Z,1697902440349
1.052870750427246,0.6565241813659668,-0.8044753074645996,2023-10-21T15:34:00.370845Z,1697902440370
1.036933422088623,0.6163167953491211,-0.7777748107910156,2023-10-21T15:34:00.390649Z,1697902440390
0.9963045120239258,0.570310115814209,-0.743506908416748,2023-10-21T15:34:00.410767Z,1697902440410
0.9280385971069336,0.5191493034362793,-0.6990437507629395,2023-10-21T15:34:00.431042Z,1697902440430
0.8448166847229004,0.4683799743652344,-0.6481871604919434,2023-10-21T15:34:00.454169Z,1697902440454
0.7714128494262695,0.4269218444824219,-0.6033954620361328,2023-10-21T15:34:00.471471Z,1697902440471
0.7246546745300293,0.40029025077819824,-0.5751404762268066,2023-10-21T15:34:00.491805Z,1697902440491
0.690096378326416,0.3816413879394531,-0.5538930892944336,2023-10-21T15:34:00.512069Z,1697902440512
0.6512484550476074,0.363372802734375,-0.528590202331543,2023-10-21T15:34:00.532391Z,1697902440532
0.6099567413330078,0.34589600563049316,-0.5005073547363281,2023-10-21T15:34:00.553879Z,1697902440553
0.573300838470459,0.33208203315734863,-0.4744892120361328,2023-10-21T15:34:00.572889Z,1697902440572
0.5435452461242676,0.32231760025024414,-0.4517350196838379,2023-10-21T15:34:00.593146Z,1697902440593
0.5160837173461914,0.3137955665588379,-0.42876386642456055,2023-10-21T15:34:00.613413Z,1697902440613
0.4870333671569824,0.3042311668395996,-0.40291261672973633,2023-10-21T15:34:00.633609Z,1697902440633
0.4557614326477051,0.2929568290710449,-0.37404298782348633,2023-10-21T15:34:00.653865Z,1697902440653
0.42293882369995117,0.2799811363220215,-0.34311437606811523,2023-10-21T15:34:00.674303Z,1697902440674
0.3876614570617676,0.26436948776245117,-0.3099050521850586,2023-10-21T15:34:00.694523Z,1697902440694
0.3485898971557617,0.244873046875,-0.2738938331604004,2023-10-21T15:34:00.714707Z,1697902440714
0.30720043182373047,0.22219038009643555,-0.2366952896118164,2023-10-21T15:34:00.737592Z,1697902440737
0.26726531982421875,0.19884061813354492,-0.20141363143920898,2023-10-21T15:34:00.755220Z,1697902440755
0.23275375366210938,0.17795801162719727,-0.17103290557861328,2023-10-21T15:34:00.775557Z,1697902440775
0.20444107055664062,0.16056060791015625,-0.14596271514892578,2023-10-21T15:34:00.795814Z,1697902440795
0.18098926544189453,0.14598703384399414,-0.12507915496826172,2023-10-21T15:34:00.816076Z,1697902440816
0.16371870040893555,0.1355438232421875,-0.109130859375,2023-10-21T15:34:00.837260Z,1697902440837
0.15400218963623047,0.13068246841430664,-0.09872722625732422,2023-10-21T15:34:00.856602Z,1697902440856
0.15238618850708008,0.13231134414672852,-0.0937337875366211,2023-10-21T15:34:00.876872Z,1697902440876
0.1567683219909668,0.13904142379760742,-0.09236764907836914,2023-10-21T15:34:00.897112Z,1697902440897
0.16408777236938477,0.14841222763061523,-0.09244608879089355,2023-10-21T15:34:00.920448Z,1697902440920
0.17246198654174805,0.15874195098876953,-0.09270691871643066,2023-10-21T15:34:00.937567Z,1697902440937
0.17917108535766602,0.16740083694458008,-0.09168410301208496,2023-10-21T15:34:00.957895Z,1697902440957
0.1807856559753418,0.17085504531860352,-0.08786749839782715,2023-10-21T15:34:00.978177Z,1697902440978
0.17559814453125,0.16717100143432617,-0.08092832565307617,2023-10-21T15:34:00.998428Z,1697902440998
0.16513395309448242,0.15766239166259766,-0.07210230827331543,2023-10-21T15:34:01.020364Z,1697902441020
0.14983654022216797,0.14292383193969727,-0.0619659423828125,2023-10-21T15:34:01.038957Z,1697902441038
0.1297135353088379,0.123291015625,-0.05088448524475098,2023-10-21T15:34:01.059251Z,1697902441059
0.10449457168579102,0.09876728057861328,-0.03900742530822754,2023-10-21T15:34:01.079497Z,1697902441079
0.07642412185668945,0.07167530059814453,-0.027265548706054688,2023-10-21T15:34:01.099683Z,1697902441099
0.05011415481567383,0.046488285064697266,-0.017171621322631836,2023-10-21T15:34:01.120292Z,1697902441120
0.028100967407226562,0.02568960189819336,-0.009294271469116211,2023-10-21T15:34:01.140231Z,1697902441140
0.012328624725341797,0.011071205139160156,-0.003961086273193359,2023-10-21T15:34:01.160587Z,1697902441160
0.004439353942871094,0.003907680511474609,-0.001397848129272461,2023-10-21T15:34:01.180850Z,1697902441180
0.006091117858886719,0.005245208740234375,-0.0018968582153320312,2023-10-21T15:34:01.203488Z,1697902441203
0.016750812530517578,0.014105796813964844,-0.005218505859375,2023-10-21T15:34:01.221270Z,1697902441221
0.03451395034790039,0.02835988998413086,-0.01083230972290039,2023-10-21T15:34:01.241580Z,1697902441241
0.05725431442260742,0.04578733444213867,-0.018169641494750977,2023-10-21T15:34:01.261867Z,1697902441261
0.08195352554321289,0.0635676383972168,-0.026325225830078125,2023-10-21T15:34:01.282083Z,1697902441282
0.1069040298461914,0.08009481430053711,-0.03477811813354492,2023-10-21T15:34:01.303593Z,1697902441303
0.13201618194580078,0.09516143798828125,-0.04355216026306152,2023-10-21T15:34:01.322612Z,1697902441322
0.15807390213012695,0.10925149917602539,-0.052934885025024414,2023-10-21T15:34:01.342933Z,1697902441342
0.18652915954589844,0.12322711944580078,-0.0633852481842041,2023-10-21T15:34:01.363182Z,1697902441363
0.2169342041015625,0.1365799903869629,-0.07472515106201172,2023-10-21T15:34:01.383272Z,1697902441383
0.2487964630126953,0.1488189697265625,-0.08675432205200195,2023-10-21T15:34:01.403606Z,1697902441403
0.2831392288208008,0.1603851318359375,-0.09983181953430176,2023-10-21T15:34:01.423878Z,1697902441423
0.32160186767578125,0.17196083068847656,-0.11459541320800781,2023-10-21T15:34:01.444155Z,1697902441444
0.36686229705810547,0.18462800979614258,-0.13208556175231934,2023-10-21T15:34:01.464401Z,1697902441464
0.4223031997680664,0.19962215423583984,-0.15363216400146484,2023-10-21T15:34:01.486712Z,1697902441486
0.4881019592285156,0.21644806861877441,-0.1794583797454834,2023-10-21T15:34:01.504960Z,1697902441504
0.5577535629272461,0.23175859451293945,-0.20741844177246094,2023-10-21T15:34:01.525242Z,1697902441525
0.6224451065063477,0.24184632301330566,-0.23459339141845703,2023-10-21T15:34:01.545504Z,1697902441545
0.6747798919677734,0.24423980712890625,-0.258380651473999,2023-10-21T15:34:01.565692Z,1697902441565
0.7122182846069336,0.23884844779968262,-0.27791666984558105,2023-10-21T15:34:01.586615Z,1697902441586
0.7341928482055664,0.2265787124633789,-0.29314303398132324,2023-10-21T15:34:01.606298Z,1697902441606
0.7370481491088867,0.20780611038208008,-0.30286574363708496,2023-10-21T15:34:01.626565Z,1697902441626
0.7172374725341797,0.183319091796875,-0.305560827255249,2023-10-21T15:34:01.646798Z,1697902441646
0.6731910705566406,0.15450048446655273,-0.2996864318847656,2023-10-21T15:34:01.670132Z,1697902441670
0.6070652008056641,0.12347006797790527,-0.2845010757446289,2023-10-21T15:34:01.687296Z,1697902441687
0.5259933471679688,0.0930030345916748,-0.2609682083129883,2023-10-21T15:34:01.707617Z,1697902441707
0.4408254623413086,0.06592929363250732,-0.23234224319458008,2023-10-21T15:34:01.727908Z,1697902441727
0.36043262481689453,0.04383397102355957,-0.20214319229125977,2023-10-21T15:34:01.748103Z,1697902441748
0.28866100311279297,0.026947319507598877,-0.1724700927734375,2023-10-21T15:34:01.769843Z,1697902441769
0.2251434326171875,0.014777064323425293,-0.14342117309570312,2023-10-21T15:34:01.788708Z,1697902441788
0.16860485076904297,0.006668835878372192,-0.11443948745727539,2023-10-21T15:34:01.808971Z,1697902441808
0.11932086944580078,0.0018912553787231445,-0.0861048698425293,2023-10-21T15:34:01.829271Z,1697902441829
0.07129669189453125,-3.597363829612732E-4,-0.05462646484375,2023-10-21T15:34:01.849384Z,1697902441849
0.009930133819580078,-2.1830201148986816E-4,-0.008082389831542969,2023-10-21T15:34:01.869750Z,1697902441869
-0.07439184188842773,0.0024896711111068726,0.0643916130065918,2023-10-21T15:34:01.889958Z,1697902441889
-0.1799778938293457,0.00680696964263916,0.16507816314697266,2023-10-21T15:34:01.910295Z,1697902441910
-0.29291343688964844,0.009887322783470154,0.28221893310546875,2023-10-21T15:34:01.930516Z,1697902441930
-0.40361690521240234,0.008527517318725586,0.40461063385009766,2023-10-21T15:34:01.953117Z,1697902441953
-0.5102434158325195,-2.7726031839847565E-4,0.5282845497131348,2023-10-21T15:34:01.971070Z,1697902441970
-0.6138210296630859,-0.0193251371383667,0.6535825729370117,2023-10-21T15:34:01.991348Z,1697902441991
-0.7115974426269531,-0.05077207088470459,0.7765483856201172,2023-10-21T15:34:02.011628Z,1697902442011
-0.7989974021911621,-0.09579402208328247,0.8890647888183594,2023-10-21T15:34:02.031857Z,1697902442031
-0.8699212074279785,-0.15341401100158691,0.9770264625549316,2023-10-21T15:34:02.052974Z,1697902442052
-0.9141664505004883,-0.21686780452728271,1.0199503898620605,2023-10-21T15:34:02.072375Z,1697902442072
-0.9244413375854492,-0.27554142475128174,1.0067825317382812,2023-10-21T15:34:02.092700Z,1697902442092
-0.897465705871582,-0.3200192451477051,0.943817138671875,2023-10-21T15:34:02.112916Z,1697902442112
-0.8410677909851074,-0.3477931022644043,0.8509988784790039,2023-10-21T15:34:02.136377Z,1697902442136
-0.7623867988586426,-0.35848283767700195,0.7400326728820801,2023-10-21T15:34:02.153411Z,1697902442153
-0.6619815826416016,-0.34766054153442383,0.612553596496582,2023-10-21T15:34:02.173700Z,1697902442173
-0.5396509170532227,-0.3108534812927246,0.471585750579834,2023-10-21T15:34:02.193989Z,1697902442193
-0.3982110023498535,-0.24791812896728516,0.3259730339050293,2023-10-21T15:34:02.214284Z,1697902442214
-0.24348068237304688,-0.16223382949829102,0.18574762344360352,2023-10-21T15:34:02.236213Z,1697902442236
-0.08247566223144531,-0.058524131774902344,0.05856132507324219,2023-10-21T15:34:02.254766Z,1697902442254
0.07744932174682617,0.05841207504272461,-0.05126619338989258,2023-10-21T15:34:02.275042Z,1697902442274
0.23167753219604492,0.1853652000427246,-0.14337968826293945,2023-10-21T15:34:02.295294Z,1697902442295
0.3765883445739746,0.3187527656555176,-0.21886944770812988,2023-10-21T15:34:02.315567Z,1697902442315
0.5074152946472168,0.45311689376831055,-0.2786281108856201,2023-10-21T15:34:02.336187Z,1697902442336
0.6244683265686035,0.5864057540893555,-0.3256399631500244,2023-10-21T15:34:02.356059Z,1697902442356
0.7326335906982422,0.7188868522644043,-0.36399030685424805,2023-10-21T15:34:02.376367Z,1697902442376
0.8381896018981934,0.8512020111083984,-0.39792871475219727,2023-10-21T15:34:02.396575Z,1697902442396
0.9371151924133301,0.9758090972900391,-0.42920637130737305,2023-10-21T15:34:02.419711Z,1697902442419
1.0146446228027344,1.077397346496582,-0.4554576873779297,2023-10-21T15:34:02.437155Z,1697902442437
1.066861629486084,1.1511707305908203,-0.47595715522766113,2023-10-21T15:34:02.457411Z,1697902442457
1.099630355834961,1.1999273300170898,-0.4915046691894531,2023-10-21T15:34:02.477655Z,1697902442477
1.1213364601135254,1.229588508605957,-0.5032675266265869,2023-10-21T15:34:02.499085Z,1697902442499
1.134871482849121,1.2433815002441406,-0.5111508369445801,2023-10-21T15:34:02.519349Z,1697902442519
1.1376614570617676,1.2402009963989258,-0.5139470100402832,2023-10-21T15:34:02.538499Z,1697902442538
1.1216449737548828,1.2147221565246582,-0.5095305442810059,2023-10-21T15:34:02.558772Z,1697902442558
1.0776042938232422,1.162689208984375,-0.4951138496398926,2023-10-21T15:34:02.578918Z,1697902442578
1.003725528717041,1.0852222442626953,-0.4689362049102783,2023-10-21T15:34:02.599159Z,1697902442599
0.9108800888061523,0.991114616394043,-0.43166589736938477,2023-10-21T15:34:02.619446Z,1697902442619
0.8162312507629395,0.8933191299438477,-0.3889470100402832,2023-10-21T15:34:02.639759Z,1697902442639
0.7253479957580566,0.7955427169799805,-0.34480929374694824,2023-10-21T15:34:02.659974Z,1697902442659
0.634427547454834,0.6955327987670898,-0.2999918460845947,2023-10-21T15:34:02.680211Z,1697902442680
0.5419230461120605,0.5934281349182129,-0.2553415298461914,2023-10-21T15:34:02.702538Z,1697902442702
0.44982099533081055,0.4916958808898926,-0.21187567710876465,2023-10-21T15:34:02.720755Z,1697902442720
0.3604774475097656,0.3930191993713379,-0.1703801155090332,2023-10-21T15:34:02.741111Z,1697902442741
0.2770090103149414,0.3007473945617676,-0.1318190097808838,2023-10-21T15:34:02.761273Z,1697902442761
0.2035961151123047,0.2194962501525879,-0.09780073165893555,2023-10-21T15:34:02.781555Z,1697902442781
0.1424875259399414,0.15202903747558594,-0.06930732727050781,2023-10-21T15:34:02.802352Z,1697902442802
0.09447193145751953,0.09941625595092773,-0.04669809341430664,2023-10-21T15:34:02.822135Z,1697902442822
0.05957937240600586,0.061635494232177734,-0.03000164031982422,2023-10-21T15:34:02.842415Z,1697902442842
0.038109779357910156,0.03862571716308594,-0.019556760787963867,2023-10-21T15:34:02.862646Z,1697902442862
0.03129291534423828,0.030968666076660156,-0.016336679458618164,2023-10-21T15:34:02.885726Z,1697902442885
0.035008907318115234,0.03377103805541992,-0.0185697078704834,2023-10-21T15:34:02.903122Z,1697902442903
0.04593229293823242,0.04319572448730469,-0.024743318557739258,2023-10-21T15:34:02.923428Z,1697902442923
0.06318330764770508,0.058003902435302734,-0.03458213806152344,2023-10-21T15:34:02.943753Z,1697902442943
0.08468866348266602,0.07607841491699219,-0.04715704917907715,2023-10-21T15:34:02.963919Z,1697902442963
0.10480117797851562,0.09249401092529297,-0.05950355529785156,2023-10-21T15:34:02.985595Z,1697902442985
0.11910676956176758,0.10375833511352539,-0.06913638114929199,2023-10-21T15:34:03.004505Z,1697902443004
0.12559223175048828,0.10848331451416016,-0.07471561431884766,2023-10-21T15:34:03.024752Z,1697902443024
0.1248326301574707,0.1073613166809082,-0.07629680633544922,2023-10-21T15:34:03.044996Z,1697902443044
0.11868143081665039,0.10199594497680664,-0.07469940185546875,2023-10-21T15:34:03.065162Z,1697902443065
0.10915279388427734,0.093994140625,-0.0708780288696289,2023-10-21T15:34:03.085596Z,1697902443085
0.09839248657226562,0.08500194549560547,-0.06599283218383789,2023-10-21T15:34:03.105825Z,1697902443105
0.0887608528137207,0.07691526412963867,-0.061551570892333984,2023-10-21T15:34:03.126082Z,1697902443126
0.08127117156982422,0.07060050964355469,-0.05832958221435547,2023-10-21T15:34:03.146319Z,1697902443146
0.0774078369140625,0.0673832893371582,-0.05753183364868164,2023-10-21T15:34:03.168851Z,1697902443168
0.07992362976074219,0.06970071792602539,-0.061499595642089844,2023-10-21T15:34:03.186881Z,1697902443186
0.08917665481567383,0.07795476913452148,-0.07098865509033203,2023-10-21T15:34:03.207152Z,1697902443207
0.10532140731811523,0.09239053726196289,-0.08660650253295898,2023-10-21T15:34:03.227406Z,1697902443227
0.12863540649414062,0.11333417892456055,-0.10898494720458984,2023-10-21T15:34:03.247677Z,1697902443247
0.15830278396606445,0.14011096954345703,-0.13770198822021484,2023-10-21T15:34:03.268777Z,1697902443268
0.19217967987060547,0.17079448699951172,-0.1708993911743164,2023-10-21T15:34:03.288138Z,1697902443288
0.22720670700073242,0.20266056060791016,-0.20552778244018555,2023-10-21T15:34:03.308471Z,1697902443308
0.25998830795288086,0.23266839981079102,-0.23783159255981445,2023-10-21T15:34:03.328645Z,1697902443328
0.2891683578491211,0.2594327926635742,-0.2657651901245117,2023-10-21T15:34:03.352028Z,1697902443351
0.31429195404052734,0.28223705291748047,-0.2883000373840332,2023-10-21T15:34:03.369215Z,1697902443369
0.3349790573120117,0.30033349990844727,-0.30474042892456055,2023-10-21T15:34:03.389536Z,1697902443389
0.3524003028869629,0.3142361640930176,-0.3158879280090332,2023-10-21T15:34:03.409770Z,1697902443409
0.3671860694885254,0.3240790367126465,-0.32216405868530273,2023-10-21T15:34:03.429998Z,1697902443429
0.37989234924316406,0.33019447326660156,-0.3241548538208008,2023-10-21T15:34:03.451974Z,1697902443451
0.3905787467956543,0.33286190032958984,-0.32234764099121094,2023-10-21T15:34:03.470534Z,1697902443470
0.4008326530456543,0.33376264572143555,-0.3186459541320801,2023-10-21T15:34:03.490874Z,1697902443490
0.41303253173828125,0.33515024185180664,-0.3154435157775879,2023-10-21T15:34:03.511039Z,1697902443511
0.42959070205688477,0.33905696868896484,-0.314755916595459,2023-10-21T15:34:03.531270Z,1697902443531
0.4515209197998047,0.34624576568603516,-0.3172483444213867,2023-10-21T15:34:03.551957Z,1697902443551
0.4780406951904297,0.356168270111084,-0.3223085403442383,2023-10-21T15:34:03.571886Z,1697902443571
0.5074424743652344,0.3678269386291504,-0.3289146423339844,2023-10-21T15:34:03.592153Z,1697902443592
0.5370821952819824,0.37987327575683594,-0.33568525314331055,2023-10-21T15:34:03.612383Z,1697902443612
0.5639567375183105,0.39081907272338867,-0.3410758972167969,2023-10-21T15:34:03.635266Z,1697902443635
0.5850353240966797,0.3990640640258789,-0.34354400634765625,2023-10-21T15:34:03.652903Z,1697902443652
0.5982756614685059,0.40342187881469727,-0.3420748710632324,2023-10-21T15:34:03.673224Z,1697902443673
0.6029667854309082,0.4034233093261719,-0.33640003204345703,2023-10-21T15:34:03.693450Z,1697902443693
0.5998749732971191,0.3994002342224121,-0.32708311080932617,2023-10-21T15:34:03.713654Z,1697902443713
0.5908451080322266,0.39234066009521484,-0.31533098220825195,2023-10-21T15:34:03.735065Z,1697902443735
0.5773863792419434,0.38301658630371094,-0.30213022232055664,2023-10-21T15:34:03.754250Z,1697902443754
0.560333251953125,0.371795654296875,-0.28798341751098633,2023-10-21T15:34:03.774610Z,1697902443774
0.5394554138183594,0.3583993911743164,-0.2727947235107422,2023-10-21T15:34:03.794769Z,1697902443794
0.5145053863525391,0.3425273895263672,-0.25649309158325195,2023-10-21T15:34:03.814935Z,1697902443814
0.4853358268737793,0.32402849197387695,-0.23920273780822754,2023-10-21T15:34:03.835264Z,1697902443835
0.45244646072387695,0.30323219299316406,-0.22136974334716797,2023-10-21T15:34:03.855605Z,1697902443855
0.41745519638061523,0.28124332427978516,-0.20386695861816406,2023-10-21T15:34:03.875854Z,1697902443875
0.38158273696899414,0.2589282989501953,-0.18722844123840332,2023-10-21T15:34:03.896075Z,1697902443896
0.3447136878967285,0.23623895645141602,-0.17117738723754883,2023-10-21T15:34:03.918401Z,1697902443918
0.30562496185302734,0.21226263046264648,-0.15474605560302734,2023-10-21T15:34:03.936614Z,1697902443936
0.2634553909301758,0.18615961074829102,-0.1369779109954834,2023-10-21T15:34:03.956933Z,1697902443956
0.2201547622680664,0.15887022018432617,-0.11826562881469727,2023-10-21T15:34:03.977088Z,1697902443977
0.1787576675415039,0.13219976425170898,-0.09972190856933594,2023-10-21T15:34:03.997321Z,1697902443997
0.14187383651733398,0.10786104202270508,-0.08250761032104492,2023-10-21T15:34:04.018219Z,1697902444018
0.11073780059814453,0.08678674697875977,-0.06731414794921875,2023-10-21T15:34:04.037999Z,1697902444037
0.08583354949951172,0.0695028305053711,-0.05461311340332031,2023-10-21T15:34:04.058284Z,1697902444058
0.06735849380493164,0.05643272399902344,-0.04486656188964844,2023-10-21T15:34:04.078425Z,1697902444078
0.0553126335144043,0.047951698303222656,-0.03851509094238281,2023-10-21T15:34:04.101584Z,1697902444101
0.049547672271728516,0.0443720817565918,-0.03595685958862305,2023-10-21T15:34:04.118957Z,1697902444118
0.04909467697143555,0.04526710510253906,-0.03695058822631836,2023-10-21T15:34:04.139292Z,1697902444139
0.052748680114746094,0.04983711242675781,-0.04092121124267578,2023-10-21T15:34:04.159546Z,1697902444159
0.058391571044921875,0.05620527267456055,-0.04636859893798828,2023-10-21T15:34:04.179800Z,1697902444179
0.06439733505249023,0.06273841857910156,-0.05196189880371094,2023-10-21T15:34:04.201464Z,1697902444201
0.06963634490966797,0.06818437576293945,-0.05667400360107422,2023-10-21T15:34:04.220310Z,1697902444220
0.07355022430419922,0.07185173034667969,-0.059935569763183594,2023-10-21T15:34:04.240635Z,1697902444240
0.07586383819580078,0.07339859008789062,-0.06146812438964844,2023-10-21T15:34:04.260825Z,1697902444260
0.076629638671875,0.0729222297668457,-0.061344146728515625,2023-10-21T15:34:04.281030Z,1697902444280
0.07680368423461914,0.07144689559936523,-0.0604243278503418,2023-10-21T15:34:04.301431Z,1697902444301
0.07807016372680664,0.07063961029052734,-0.06012392044067383,2023-10-21T15:34:04.321685Z,1697902444321
0.0823979377746582,0.0722198486328125,-0.06193065643310547,2023-10-21T15:34:04.341897Z,1697902444341
0.09120512008666992,0.07713747024536133,-0.06670904159545898,2023-10-21T15:34:04.362131Z,1697902444362
0.10539007186889648,0.08566904067993164,-0.07475566864013672,2023-10-21T15:34:04.384669Z,1697902444384
0.12541532516479492,0.09757709503173828,-0.08591747283935547,2023-10-21T15:34:04.402632Z,1697902444402
0.15185070037841797,0.11258125305175781,-0.10001325607299805,2023-10-21T15:34:04.422967Z,1697902444422
0.18490839004516602,0.1300497055053711,-0.11656951904296875,2023-10-21T15:34:04.443228Z,1697902444443
0.2246842384338379,0.14922332763671875,-0.13503360748291016,2023-10-21T15:34:04.463422Z,1697902444463
0.2711668014526367,0.16921186447143555,-0.154815673828125,2023-10-21T15:34:04.484447Z,1697902444484
0.32494115829467773,0.18941259384155273,-0.17566251754760742,2023-10-21T15:34:04.503952Z,1697902444503
0.3874845504760742,0.2095332145690918,-0.19771766662597656,2023-10-21T15:34:04.524307Z,1697902444524
0.4609794616699219,0.2293868064880371,-0.22136163711547852,2023-10-21T15:34:04.544584Z,1697902444544
0.5469799041748047,0.24824142456054688,-0.24666309356689453,2023-10-21T15:34:04.567929Z,1697902444567
0.6450901031494141,0.2644467353820801,-0.27300000190734863,2023-10-21T15:34:04.585039Z,1697902444585
0.7532548904418945,0.27594947814941406,-0.29955363273620605,2023-10-21T15:34:04.605339Z,1697902444605
0.8696250915527344,0.2812790870666504,-0.3262362480163574,2023-10-21T15:34:04.625611Z,1697902444625
0.9928359985351562,0.2797551155090332,-0.3536853790283203,2023-10-21T15:34:04.645774Z,1697902444645
1.1200246810913086,0.2707500457763672,-0.38227343559265137,2023-10-21T15:34:04.667707Z,1697902444667
1.2460613250732422,0.25364255905151367,-0.41166162490844727,2023-10-21T15:34:04.686494Z,1697902444686
1.3630743026733398,0.227827787399292,-0.4406108856201172,2023-10-21T15:34:04.706681Z,1697902444706
1.4647388458251953,0.19364428520202637,-0.4683723449707031,2023-10-21T15:34:04.726941Z,1697902444726
1.5480194091796875,0.1523125171661377,-0.49540138244628906,2023-10-21T15:34:04.747044Z,1697902444747
1.6137733459472656,0.10543733835220337,-0.5233931541442871,2023-10-21T15:34:04.767713Z,1697902444767
1.6632051467895508,0.054481446743011475,-0.5538358688354492,2023-10-21T15:34:04.787678Z,1697902444787
1.6953544616699219,8.020033128559589E-4,-0.5866210460662842,2023-10-21T15:34:04.808049Z,1697902444807
1.7071256637573242,-0.05399838089942932,-0.6197037696838379,2023-10-21T15:34:04.828231Z,1697902444828
1.6977291107177734,-0.10813838243484497,-0.6510674953460693,2023-10-21T15:34:04.851014Z,1697902444850
1.6689472198486328,-0.15968096256256104,-0.6796989440917969,2023-10-21T15:34:04.868729Z,1697902444868
1.6229372024536133,-0.2064112424850464,-0.7047955989837646,2023-10-21T15:34:04.889044Z,1697902444889
1.560847282409668,-0.24586153030395508,-0.7249355316162109,2023-10-21T15:34:04.909279Z,1697902444909
1.4821844100952148,-0.275457501411438,-0.7374348640441895,2023-10-21T15:34:04.929481Z,1697902444929
1.3845863342285156,-0.29267120361328125,-0.7380571365356445,2023-10-21T15:34:04.950968Z,1697902444950
1.2603445053100586,-0.2944605350494385,-0.7191071510314941,2023-10-21T15:34:04.970080Z,1697902444969
1.0958023071289062,-0.2768731117248535,-0.6678242683410645,2023-10-21T15:34:04.990385Z,1697902444990
0.8809213638305664,-0.23706984519958496,-0.5731716156005859,2023-10-21T15:34:05.010543Z,1697902445010
0.6113691329956055,-0.17296600341796875,-0.42549991607666016,2023-10-21T15:34:05.030788Z,1697902445030
0.30214643478393555,-0.08858346939086914,-0.22534990310668945,2023-10-21T15:34:05.051084Z,1697902445051
-0.025827407836914062,0.00771021842956543,0.020630836486816406,2023-10-21T15:34:05.071375Z,1697902445071
-0.358151912689209,0.1067194938659668,0.3053126335144043,2023-10-21T15:34:05.091671Z,1697902445091
-0.6928791999816895,0.2018587589263916,0.6280503273010254,2023-10-21T15:34:05.111865Z,1697902445111
-1.0323553085327148,0.2866278886795044,0.9956269264221191,2023-10-21T15:34:05.134166Z,1697902445134
-1.368398666381836,0.34815776348114014,1.4074549674987793,2023-10-21T15:34:05.152442Z,1697902445152
-1.6821532249450684,0.3653908967971802,1.8461275100708008,2023-10-21T15:34:05.172748Z,1697902445172
-1.95263671875,0.3112944960594177,2.279843330383301,2023-10-21T15:34:05.192914Z,1697902445192
-2.169926166534424,0.16003885865211487,2.6676406860351562,2023-10-21T15:34:05.213138Z,1697902445213
-2.332085609436035,-0.09709584712982178,2.965935707092285,2023-10-21T15:34:05.234111Z,1697902445234
-2.4403369426727295,-0.44915568828582764,3.151435375213623,2023-10-21T15:34:05.253826Z,1697902445253
-2.4890689849853516,-0.8718822002410889,3.2105836868286133,2023-10-21T15:34:05.274048Z,1697902445273
-2.4641997814178467,-1.3247126340866089,3.128736972808838,2023-10-21T15:34:05.294260Z,1697902445294
-2.3562679290771484,-1.7407279014587402,2.8927743434906006,2023-10-21T15:34:05.317372Z,1697902445317
-2.1785123348236084,-2.034670829772949,2.518523693084717,2023-10-21T15:34:05.334795Z,1697902445334
-1.9478576183319092,-2.1555674076080322,2.0668420791625977,2023-10-21T15:34:05.355111Z,1697902445355
-1.6801207065582275,-2.1061878204345703,1.6061429977416992,2023-10-21T15:34:05.375371Z,1697902445375
-1.3909542560577393,-1.9158101081848145,1.1826634407043457,2023-10-21T15:34:05.395551Z,1697902445395
-1.0950682163238525,-1.6238212585449219,0.8208267688751221,2023-10-21T15:34:05.417369Z,1697902445417
-0.8037781715393066,-1.262732982635498,0.5261406898498535,2023-10-21T15:34:05.436076Z,1697902445436
-0.5239725112915039,-0.8597955703735352,0.29654836654663086,2023-10-21T15:34:05.456378Z,1697902445456
-0.2589693069458008,-0.43851804733276367,0.1255807876586914,2023-10-21T15:34:05.476649Z,1697902445476
-0.006667137145996094,-0.011507987976074219,0.0027501583099365234,2023-10-21T15:34:05.496824Z,1697902445496
0.2397303581237793,0.4159383773803711,-0.08350551128387451,2023-10-21T15:34:05.517202Z,1697902445517
0.48702001571655273,0.8375558853149414,-0.14315080642700195,2023-10-21T15:34:05.537448Z,1697902445537
0.7350239753723145,1.2423934936523438,-0.18527472019195557,2023-10-21T15:34:05.557780Z,1697902445557
0.9752135276794434,1.617574691772461,-0.2182556390762329,2023-10-21T15:34:05.577938Z,1697902445577
1.198887825012207,1.9570980072021484,-0.2502751350402832,2023-10-21T15:34:05.600541Z,1697902445600
1.4083342552185059,2.2665576934814453,-0.28856778144836426,2023-10-21T15:34:05.618503Z,1697902445618
1.6121878623962402,2.5525455474853516,-0.3371155261993408,2023-10-21T15:34:05.638823Z,1697902445638
1.813429832458496,2.816653251647949,-0.39780426025390625,2023-10-21T15:34:05.659091Z,1697902445659
2.0021276473999023,3.0498456954956055,-0.46960389614105225,2023-10-21T15:34:05.679224Z,1697902445679
2.158121109008789,3.2350940704345703,-0.5472798347473145,2023-10-21T15:34:05.700391Z,1697902445700
2.2598419189453125,3.355931282043457,-0.6243176460266113,2023-10-21T15:34:05.719818Z,1697902445719
2.2980570793151855,3.4094066619873047,-0.6942684650421143,2023-10-21T15:34:05.740167Z,1697902445740
2.283461093902588,3.40256404876709,-0.7519516944885254,2023-10-21T15:34:05.760331Z,1697902445760
2.2327027320861816,3.344057559967041,-0.7953536510467529,2023-10-21T15:34:05.783719Z,1697902445783
2.1554508209228516,3.2377676963806152,-0.8220193386077881,2023-10-21T15:34:05.800837Z,1697902445800
2.0492024421691895,3.0821733474731445,-0.8289570808410645,2023-10-21T15:34:05.821179Z,1697902445821
1.9067153930664062,2.879016876220703,-0.8162493705749512,2023-10-21T15:34:05.841488Z,1697902445841
1.731950283050537,2.636242389678955,-0.7851352691650391,2023-10-21T15:34:05.861648Z,1697902445861
1.5399079322814941,2.3673415184020996,-0.7398054599761963,2023-10-21T15:34:05.883717Z,1697902445883
1.3445868492126465,2.0863914489746094,-0.684908390045166,2023-10-21T15:34:05.902194Z,1697902445902
1.1575655937194824,1.8070087432861328,-0.6251220703125,2023-10-21T15:34:05.922479Z,1697902445922
0.9827980995178223,1.5374011993408203,-0.5634622573852539,2023-10-21T15:34:05.942690Z,1697902445942
0.8217291831970215,1.2839527130126953,-0.5010545253753662,2023-10-21T15:34:05.962910Z,1697902445962
0.677311897277832,1.053365707397461,-0.43961334228515625,2023-10-21T15:34:05.983553Z,1697902445983
0.5508770942687988,0.8501472473144531,-0.3808164596557617,2023-10-21T15:34:06.003497Z,1697902446003
0.44217395782470703,0.6758699417114258,-0.32541680335998535,2023-10-21T15:34:06.023813Z,1697902446023
0.3501887321472168,0.5289220809936523,-0.2734107971191406,2023-10-21T15:34:06.044124Z,1697902446044
0.2725825309753418,0.4049992561340332,-0.22387981414794922,2023-10-21T15:34:06.066941Z,1697902446066
0.2087569236755371,0.30317211151123047,-0.17825794219970703,2023-10-21T15:34:06.084533Z,1697902446084
0.15929937362670898,0.22461366653442383,-0.13947153091430664,2023-10-21T15:34:06.104870Z,1697902446104
0.12279510498046875,0.1674332618713379,-0.10873937606811523,2023-10-21T15:34:06.125096Z,1697902446125
0.09409523010253906,0.12388944625854492,-0.08316755294799805,2023-10-21T15:34:06.145285Z,1697902446145
0.06676912307739258,0.08488941192626953,-0.05823230743408203,2023-10-21T15:34:06.166557Z,1697902446166
0.037784576416015625,0.04643726348876953,-0.03218841552734375,2023-10-21T15:34:06.185933Z,1697902446185
0.009465694427490234,0.011255264282226562,-0.007797718048095703,2023-10-21T15:34:06.206224Z,1697902446206
-0.013203144073486328,-0.015198230743408203,0.010422229766845703,2023-10-21T15:34:06.226491Z,1697902446226
-0.026274681091308594,-0.029316425323486328,0.01973247528076172,2023-10-21T15:34:06.246583Z,1697902446246
-0.027665138244628906,-0.030037403106689453,0.019720077514648438,2023-10-21T15:34:06.266914Z,1697902446266
-0.019459247589111328,-0.020676612854003906,0.013173580169677734,2023-10-21T15:34:06.287263Z,1697902446287
-0.00615692138671875,-0.006441593170166016,0.0039708614349365234,2023-10-21T15:34:06.307500Z,1697902446307
0.008255958557128906,0.008543014526367188,-0.005090951919555664,2023-10-21T15:34:06.327719Z,1697902446327
0.024388790130615234,0.0250091552734375,-0.014419078826904297,2023-10-21T15:34:06.350308Z,1697902446350
0.04590749740600586,0.046672821044921875,-0.02604842185974121,2023-10-21T15:34:06.368232Z,1697902446368
0.07365608215332031,0.07419013977050781,-0.04008960723876953,2023-10-21T15:34:06.388545Z,1697902446388
0.1053762435913086,0.10502910614013672,-0.05493950843811035,2023-10-21T15:34:06.408792Z,1697902446408
0.13693857192993164,0.13495302200317383,-0.06832313537597656,2023-10-21T15:34:06.428941Z,1697902446428
0.16359758377075195,0.159393310546875,-0.07805299758911133,2023-10-21T15:34:06.449837Z,1697902446449
0.18279027938842773,0.1760249137878418,-0.0833442211151123,2023-10-21T15:34:06.469544Z,1697902446469
0.19534587860107422,0.18572330474853516,-0.08505797386169434,2023-10-21T15:34:06.489844Z,1697902446489
0.20577716827392578,0.1926865577697754,-0.08546757698059082,2023-10-21T15:34:06.510093Z,1697902446510
0.2194662094116211,0.20178747177124023,-0.08683133125305176,2023-10-21T15:34:06.533144Z,1697902446533
0.2397170066833496,0.21584320068359375,-0.09029936790466309,2023-10-21T15:34:06.550588Z,1697902446550
0.2668595314025879,0.23498249053955078,-0.09585165977478027,2023-10-21T15:34:06.570893Z,1697902446570
0.29835081100463867,0.2568783760070801,-0.10254430770874023,2023-10-21T15:34:06.591169Z,1697902446591
0.3305025100708008,0.2782144546508789,-0.10925173759460449,2023-10-21T15:34:06.611362Z,1697902446611
0.3619565963745117,0.29741525650024414,-0.11572623252868652,2023-10-21T15:34:06.633058Z,1697902446633
0.3964877128601074,0.3168954849243164,-0.1233530044555664,2023-10-21T15:34:06.651940Z,1697902446651
0.4391598701477051,0.3399848937988281,-0.13368988037109375,2023-10-21T15:34:06.672217Z,1697902446672
0.4908614158630371,0.3667612075805664,-0.14688634872436523,2023-10-21T15:34:06.692447Z,1697902446692
0.5461797714233398,0.39283132553100586,-0.16124510765075684,2023-10-21T15:34:06.712645Z,1697902446712
0.5967316627502441,0.4121670722961426,-0.1744391918182373,2023-10-21T15:34:06.732965Z,1697902446732
0.6363396644592285,0.42071056365966797,-0.18494749069213867,2023-10-21T15:34:06.753256Z,1697902446753
0.663177490234375,0.4176325798034668,-0.19238567352294922,2023-10-21T15:34:06.773517Z,1697902446773
0.6784038543701172,0.4043087959289551,-0.19698691368103027,2023-10-21T15:34:06.793731Z,1697902446793
0.6867237091064453,0.3843398094177246,-0.19985604286193848,2023-10-21T15:34:06.816261Z,1697902446816
0.6934566497802734,0.3614840507507324,-0.2024219036102295,2023-10-21T15:34:06.834266Z,1697902446834
0.7008419036865234,0.3373904228210449,-0.20558929443359375,2023-10-21T15:34:06.854573Z,1697902446854
0.7074794769287109,0.31174707412719727,-0.20950865745544434,2023-10-21T15:34:06.874819Z,1697902446874
0.7099180221557617,0.28361058235168457,-0.2136998176574707,2023-10-21T15:34:06.895045Z,1697902446895
0.705927848815918,0.25290799140930176,-0.2177441120147705,2023-10-21T15:34:06.916154Z,1697902446916
0.6959667205810547,0.22065019607543945,-0.22157812118530273,2023-10-21T15:34:06.935588Z,1697902446935
0.6827421188354492,0.18846487998962402,-0.22575926780700684,2023-10-21T15:34:06.955910Z,1697902446955
0.6682233810424805,0.1575326919555664,-0.23079490661621094,2023-10-21T15:34:06.976176Z,1697902446976
0.6524486541748047,0.1284862756729126,-0.23668932914733887,2023-10-21T15:34:06.999696Z,1697902446999
0.6310300827026367,0.1012197732925415,-0.24167680740356445,2023-10-21T15:34:07.016597Z,1697902447016
0.598419189453125,0.07585418224334717,-0.24299120903015137,2023-10-21T15:34:07.036952Z,1697902447036
0.5491056442260742,0.05279552936553955,-0.23704099655151367,2023-10-21T15:34:07.057200Z,1697902447057
0.4812192916870117,0.032816946506500244,-0.22116708755493164,2023-10-21T15:34:07.077478Z,1697902447077
0.3996744155883789,0.01683560013771057,-0.19571399688720703,2023-10-21T15:34:07.099288Z,1697902447099
0.3148050308227539,0.005392193794250488,-0.1643691062927246,2023-10-21T15:34:07.117967Z,1697902447117
0.22130107879638672,-0.0013850927352905273,-0.1237492561340332,2023-10-21T15:34:07.138342Z,1697902447138
0.09776115417480469,-0.0025785118341445923,-0.0589299201965332,2023-10-21T15:34:07.158509Z,1697902447158
-0.0636911392211914,0.002680361270904541,0.041590213775634766,2023-10-21T15:34:07.178707Z,1697902447178
-0.24879693984985352,0.013071894645690918,0.17581892013549805,2023-10-21T15:34:07.199446Z,1697902447199
-0.4180316925048828,0.024170994758605957,0.3172779083251953,2023-10-21T15:34:07.219393Z,1697902447219
-0.5504355430603027,0.03178846836090088,0.4446396827697754,2023-10-21T15:34:07.239590Z,1697902447239
-0.6479949951171875,0.03342893719673157,0.5527358055114746,2023-10-21T15:34:07.259847Z,1697902447259
-0.7239007949829102,0.027773350477218628,0.6481781005859375,2023-10-21T15:34:07.282611Z,1697902447282
-0.7877607345581055,0.013133011758327484,0.7363309860229492,2023-10-21T15:34:07.300352Z,1697902447300
-0.8464398384094238,-0.013372927904129028,0.8211264610290527,2023-10-21T15:34:07.320652Z,1697902447320
-0.8972549438476562,-0.05309441685676575,0.8935174942016602,2023-10-21T15:34:07.340958Z,1697902447340
-0.9256105422973633,-0.10175418853759766,0.9312615394592285,2023-10-21T15:34:07.361113Z,1697902447361
-0.9213676452636719,-0.15133357048034668,0.9222955703735352,2023-10-21T15:34:07.382348Z,1697902447382
-0.8819561004638672,-0.19373738765716553,0.8710446357727051,2023-10-21T15:34:07.401746Z,1697902447401
-0.8262743949890137,-0.22937750816345215,0.8046994209289551,2023-10-21T15:34:07.421965Z,1697902447421
-0.7688817977905273,-0.26082921028137207,0.7385067939758301,2023-10-21T15:34:07.442249Z,1697902447442
-0.7102756500244141,-0.2868225574493408,0.6709499359130859,2023-10-21T15:34:07.462359Z,1697902447462
-0.6420106887817383,-0.30142664909362793,0.5925989151000977,2023-10-21T15:34:07.482673Z,1697902447482
-0.5593218803405762,-0.2988860607147217,0.50054931640625,2023-10-21T15:34:07.503018Z,1697902447502
-0.4649829864501953,-0.2773101329803467,0.4006929397583008,2023-10-21T15:34:07.523297Z,1697902447523
-0.3640861511230469,-0.23816871643066406,0.3004159927368164,2023-10-21T15:34:07.543495Z,1697902447543
-0.25530576705932617,-0.18040895462036133,0.2006702423095703,2023-10-21T15:34:07.565707Z,1697902447565
-0.13283348083496094,-0.10000896453857422,0.0988764762878418,2023-10-21T15:34:07.584067Z,1697902447584
0.009164810180664062,0.007267475128173828,-0.006426811218261719,2023-10-21T15:34:07.604377Z,1697902447604
0.1617121696472168,0.13414287567138672,-0.10654926300048828,2023-10-21T15:34:07.624647Z,1697902447624
0.31763124465942383,0.2738661766052246,-0.19609975814819336,2023-10-21T15:34:07.644891Z,1697902447644
0.4793577194213867,0.4249563217163086,-0.2763526439666748,2023-10-21T15:34:07.665667Z,1697902447665
0.6502499580383301,0.5853466987609863,-0.3501875400543213,2023-10-21T15:34:07.685558Z,1697902447685
0.8217658996582031,0.7442831993103027,-0.417496919631958,2023-10-21T15:34:07.705673Z,1697902447705
0.9707818031311035,0.883791446685791,-0.47310733795166016,2023-10-21T15:34:07.725861Z,1697902447725
1.083838939666748,0.9951944351196289,-0.5147452354431152,2023-10-21T15:34:07.748957Z,1697902447748
1.1607909202575684,1.078880786895752,-0.5439562797546387,2023-10-21T15:34:07.766473Z,1697902447766
1.206183910369873,1.137063980102539,-0.5632114410400391,2023-10-21T15:34:07.786731Z,1697902447786
1.2178430557250977,1.1655168533325195,-0.5715475082397461,2023-10-21T15:34:07.807020Z,1697902447806
1.2038755416870117,1.1667098999023438,-0.5715758800506592,2023-10-21T15:34:07.827222Z,1697902447827
1.167820930480957,1.1444945335388184,-0.5659506320953369,2023-10-21T15:34:07.848855Z,1697902447848
1.108055591583252,1.1028122901916504,-0.553250789642334,2023-10-21T15:34:07.867780Z,1697902447867
1.0244832038879395,1.043166160583496,-0.5298075675964355,2023-10-21T15:34:07.888106Z,1697902447888
0.9266667366027832,0.9710578918457031,-0.49463677406311035,2023-10-21T15:34:07.908279Z,1697902447908
0.8371682167053223,0.9013733863830566,-0.45640039443969727,2023-10-21T15:34:07.928460Z,1697902447928
0.7684192657470703,0.8450579643249512,-0.4234468936920166,2023-10-21T15:34:07.948779Z,1697902447948
0.7178106307983398,0.8020462989807129,-0.3968801498413086,2023-10-21T15:34:07.969083Z,1697902447969
0.674983024597168,0.7641582489013672,-0.372877836227417,2023-10-21T15:34:07.989350Z,1697902447989
0.6340007781982422,0.7262063026428223,-0.34899163246154785,2023-10-21T15:34:08.009608Z,1697902448009
0.5957050323486328,0.6898279190063477,-0.32610297203063965,2023-10-21T15:34:08.031922Z,1697902448031
0.5609869956970215,0.6563739776611328,-0.3052082061767578,2023-10-21T15:34:08.050159Z,1697902448050
0.525385856628418,0.6210432052612305,-0.2843661308288574,2023-10-21T15:34:08.070430Z,1697902448070
0.4820590019226074,0.5762176513671875,-0.26035141944885254,2023-10-21T15:34:08.090685Z,1697902448090
0.4262089729309082,0.5158839225769043,-0.23039674758911133,2023-10-21T15:34:08.110918Z,1697902448110
0.3644113540649414,0.4463191032409668,-0.19720029830932617,2023-10-21T15:34:08.132052Z,1697902448132
0.30469417572021484,0.37660980224609375,-0.16469550132751465,2023-10-21T15:34:08.151432Z,1697902448151
0.25211286544799805,0.31354188919067383,-0.13560724258422852,2023-10-21T15:34:08.171770Z,1697902448171
0.2062392234802246,0.257535457611084,-0.1098783016204834,2023-10-21T15:34:08.191940Z,1697902448191
0.16578435897827148,0.2074899673461914,-0.08694958686828613,2023-10-21T15:34:08.215372Z,1697902448215
0.12890148162841797,0.16134881973266602,-0.0660398006439209,2023-10-21T15:34:08.232467Z,1697902448232
0.09609746932983398,0.119903564453125,-0.04762744903564453,2023-10-21T15:34:08.252793Z,1697902448252
0.07006359100341797,0.0867767333984375,-0.03322744369506836,2023-10-21T15:34:08.273106Z,1697902448273
0.05575370788574219,0.06825017929077148,-0.025023698806762695,2023-10-21T15:34:08.293275Z,1697902448293
0.05974102020263672,0.07200431823730469,-0.025170564651489258,2023-10-21T15:34:08.315190Z,1697902448315
0.07747268676757812,0.09189033508300781,-0.03057384490966797,2023-10-21T15:34:08.333783Z,1697902448333
0.09885025024414062,0.11571311950683594,-0.036710500717163086,2023-10-21T15:34:08.354137Z,1697902448354
0.11426639556884766,0.13256311416625977,-0.04035019874572754,2023-10-21T15:34:08.374496Z,1697902448374
0.12180662155151367,0.14056634902954102,-0.04149985313415527,2023-10-21T15:34:08.394608Z,1697902448394
0.12391090393066406,0.14262962341308594,-0.041435956954956055,2023-10-21T15:34:08.415536Z,1697902448415
0.1223897933959961,0.14084434509277344,-0.040903329849243164,2023-10-21T15:34:08.435148Z,1697902448435
0.11562061309814453,0.13331127166748047,-0.039224863052368164,2023-10-21T15:34:08.455437Z,1697902448455
0.1041116714477539,0.12038469314575195,-0.03631877899169922,2023-10-21T15:34:08.475683Z,1697902448475
0.09067249298095703,0.1050863265991211,-0.03288984298706055,2023-10-21T15:34:08.498481Z,1697902448498
0.07819223403930664,0.09066009521484375,-0.02977585792541504,2023-10-21T15:34:08.516147Z,1697902448516
0.07002687454223633,0.08095121383666992,-0.02816605567932129,2023-10-21T15:34:08.536497Z,1697902448536
0.06879520416259766,0.07887935638427734,-0.02922368049621582,2023-10-21T15:34:08.556765Z,1697902448556
0.07654714584350586,0.08651399612426758,-0.03417515754699707,2023-10-21T15:34:08.576974Z,1697902448576
0.09363365173339844,0.1036691665649414,-0.04360175132751465,2023-10-21T15:34:08.598451Z,1697902448598
0.1186223030090332,0.12807321548461914,-0.05723977088928223,2023-10-21T15:34:08.617559Z,1697902448617
0.14894962310791016,0.15643024444580078,-0.07416391372680664,2023-10-21T15:34:08.637819Z,1697902448637
0.18234872817993164,0.1862020492553711,-0.09356355667114258,2023-10-21T15:34:08.658052Z,1697902448657
0.21612834930419922,0.21481847763061523,-0.11441874504089355,2023-10-21T15:34:08.678226Z,1697902448678
0.24699974060058594,0.2394237518310547,-0.13518810272216797,2023-10-21T15:34:08.698538Z,1697902448698
0.2711782455444336,0.25705862045288086,-0.15384626388549805,2023-10-21T15:34:08.718850Z,1697902448718
0.2845463752746582,0.2648000717163086,-0.16790390014648438,2023-10-21T15:34:08.739110Z,1697902448739
0.28411436080932617,0.26078176498413086,-0.17515850067138672,2023-10-21T15:34:08.759335Z,1697902448759
0.2686915397644043,0.24434375762939453,-0.17389535903930664,2023-10-21T15:34:08.781839Z,1697902448781
0.24056673049926758,0.2173938751220703,-0.16411304473876953,2023-10-21T15:34:08.799880Z,1697902448799
0.20291376113891602,0.18239164352416992,-0.14627647399902344,2023-10-21T15:34:08.820180Z,1697902448820
0.15834903717041016,0.14144277572631836,-0.12067079544067383,2023-10-21T15:34:08.840455Z,1697902448840
0.10973262786865234,0.09707975387573242,-0.0881814956665039,2023-10-21T15:34:08.860647Z,1697902448860
0.05886554718017578,0.051296234130859375,-0.04963111877441406,2023-10-21T15:34:08.881414Z,1697902448881
0.007031917572021484,0.0059909820556640625,-0.006179332733154297,2023-10-21T15:34:08.901185Z,1697902448901
-0.04457521438598633,-0.03681516647338867,0.04054069519042969,2023-10-21T15:34:08.921491Z,1697902448921
-0.0944223403930664,-0.0749363899230957,0.08832740783691406,2023-10-21T15:34:08.941775Z,1697902448941
-0.13901615142822266,-0.10513734817504883,0.13311004638671875,2023-10-21T15:34:08.964842Z,1697902448964
