GYR_X,GYR_Y,GYR_Z,DATE,UNIX_TIMESTAMP
0.0025275349617004395,-6.651407456956804E-4,-0.0035917600616812706,2023-10-20T11:58:23.974359Z,1697803103974
0.0039908443577587605,0.0037247883155941963,-0.0011972533538937569,2023-10-20T11:58:23.985731Z,1697803103985
0.004256900865584612,-0.0023945067077875137,0.002128450432792306,2023-10-20T11:58:23.994405Z,1697803103994
0.0027935912366956472,-0.004655985161662102,0.001064225216396153,2023-10-20T11:58:24.004222Z,1697803104004
-0.0026605629827827215,-0.0015963378828018904,-0.004655985161662102,2023-10-20T11:58:24.014998Z,1697803104014
-0.004389929119497538,0.0017293660202994943,0.004123872611671686,2023-10-20T11:58:24.024789Z,1697803104024
0.001064225216396153,0.0015963378828018904,0.0015963378828018904,2023-10-20T11:58:24.035956Z,1697803104035
-0.0026605629827827215,-0.0015963378828018904,0.0019954221788793802,2023-10-20T11:58:24.045007Z,1697803104044
0.004655985161662102,-0.0039908443577587605,0.004256900865584612,2023-10-20T11:58:24.055867Z,1697803104055
-0.004655985161662102,-0.0034587320405989885,-0.0014633096288889647,2023-10-20T11:58:24.064983Z,1697803104064
-0.0023945067077875137,3.990844707004726E-4,-0.0047890134155750275,2023-10-20T11:58:24.076301Z,1697803104076
6.651407456956804E-4,-0.0027935912366956472,-5.321126081980765E-4,2023-10-20T11:58:24.085197Z,1697803104085
0.0022614786867052317,0.0014633096288889647,-0.0029266192577779293,2023-10-20T11:58:24.096275Z,1697803104096
0.003325703786686063,0.004389929119497538,-0.0019954221788793802,2023-10-20T11:58:24.105545Z,1697803104105
-0.0029266192577779293,-0.004256900865584612,-0.0017293660202994943,2023-10-20T11:58:24.118838Z,1697803104118
0.0017293660202994943,-0.0047890134155750275,0.0031926757656037807,2023-10-20T11:58:24.126098Z,1697803104126
-0.0015963378828018904,-0.0031926757656037807,0.0015963378828018904,2023-10-20T11:58:24.136578Z,1697803104136
-0.0035917600616812706,0.0035917600616812706,-0.0019954221788793802,2023-10-20T11:58:24.146335Z,1697803104146
0.0038578163366764784,0.003325703786686063,0.004256900865584612,2023-10-20T11:58:24.157325Z,1697803104157
0.0027935912366956472,-0.0025275349617004395,-0.004389929119497538,2023-10-20T11:58:24.172624Z,1697803104172
3.990844707004726E-4,9.311970788985491E-4,7.981689414009452E-4,2023-10-20T11:58:24.177607Z,1697803104177
0.0013302814913913608,0.001064225216396153,0.003059647511690855,2023-10-20T11:58:24.186351Z,1697803104186
-0.0023945067077875137,0.004922041669487953,6.651407456956804E-4,2023-10-20T11:58:24.197863Z,1697803104197
-0.0013302814913913608,-0.0022614786867052317,1.3302815204951912E-4,2023-10-20T11:58:24.207666Z,1697803104207
0.004655985161662102,-0.0035917600616812706,9.311970788985491E-4,2023-10-20T11:58:24.220411Z,1697803104220
-0.0035917600616812706,2.6605630409903824E-4,0.004389929119497538,2023-10-20T11:58:24.228296Z,1697803104228
0.0018623941577970982,-0.004522957373410463,0.0023945067077875137,2023-10-20T11:58:24.240067Z,1697803104239
-0.004655985161662102,-6.651407456956804E-4,0.0047890134155750275,2023-10-20T11:58:24.248207Z,1697803104248
0.2567443251609802,0.1964825838804245,-0.02633957378566265,2023-10-20T11:58:24.259019Z,1697803104258
0.285478413105011,0.20552849769592285,-0.034720346331596375,2023-10-20T11:58:24.272200Z,1697803104272
0.31540974974632263,0.21271201968193054,-0.04296809434890747,2023-10-20T11:58:24.278372Z,1697803104278
0.3450750410556793,0.21603772044181824,-0.051348865032196045,2023-10-20T11:58:24.289362Z,1697803104289
0.3748733401298523,0.2156386375427246,-0.06066083908081055,2023-10-20T11:58:24.298944Z,1697803104298
0.40520375967025757,0.21005144715309143,-0.07369759678840637,2023-10-20T11:58:24.308606Z,1697803104308
0.43553417921066284,0.19661560654640198,-0.09471604228019714,2023-10-20T11:58:24.320025Z,1697803104319
0.4648003578186035,0.17546413838863373,-0.1267758309841156,2023-10-20T11:58:24.328854Z,1697803104328
0.4906078279018402,0.1492575854063034,-0.17094117403030396,2023-10-20T11:58:24.340558Z,1697803104340
0.5104290246963501,0.1229180097579956,-0.22322124242782593,2023-10-20T11:58:24.348796Z,1697803104348
0.5217363834381104,0.10269773006439209,-0.27417102456092834,2023-10-20T11:58:24.360244Z,1697803104360
0.5245299935340881,0.09444998949766159,-0.31248313188552856,2023-10-20T11:58:24.373072Z,1697803104373
0.5202730894088745,0.10283076018095016,-0.33070799708366394,2023-10-20T11:58:24.380262Z,1697803104380
0.5118923187255859,0.12810611724853516,-0.32844650745391846,2023-10-20T11:58:24.389635Z,1697803104389
0.5020482540130615,0.16655124723911285,-0.31088680028915405,2023-10-20T11:58:24.403269Z,1697803104403
0.49313536286354065,0.20818905532360077,-0.2876068651676178,2023-10-20T11:58:24.410334Z,1697803104410
0.4868830442428589,0.2403818666934967,-0.2700471580028534,2023-10-20T11:58:24.421079Z,1697803104421
0.4830252230167389,0.2536846995353699,-0.26978108286857605,2023-10-20T11:58:24.430506Z,1697803104430
0.4795664846897125,0.24517089128494263,-0.2946573495864868,2023-10-20T11:58:24.441667Z,1697803104441
0.4737132489681244,0.21923039853572845,-0.34268051385879517,2023-10-20T11:58:24.455699Z,1697803104455
0.46413522958755493,0.1849091351032257,-0.40214410424232483,2023-10-20T11:58:24.461695Z,1697803104461
0.451630562543869,0.15338145196437836,-0.4556214213371277,2023-10-20T11:58:24.470187Z,1697803104470
0.4384607970714569,0.13475751876831055,-0.4878142476081848,2023-10-20T11:58:24.481709Z,1697803104481
0.42662128806114197,0.13475751876831055,-0.4896766245365143,2023-10-20T11:58:24.490934Z,1697803104490
0.418639600276947,0.15431265532970428,-0.4582819938659668,2023-10-20T11:58:24.503507Z,1697803104503
0.4161120653152466,0.18983116745948792,-0.39815324544906616,2023-10-20T11:58:24.511646Z,1697803104511
0.41970381140708923,0.23466165363788605,-0.3187354505062103,2023-10-20T11:58:24.524144Z,1697803104524
0.42941486835479736,0.28029030561447144,-0.23333138227462769,2023-10-20T11:58:24.531250Z,1697803104531
0.444580078125,0.31740516424179077,-0.1553768813610077,2023-10-20T11:58:24.542820Z,1697803104542
0.46400219202041626,0.33988693356513977,-0.09298668056726456,2023-10-20T11:58:24.556320Z,1697803104556
0.48661696910858154,0.34667137265205383,-0.04935344308614731,2023-10-20T11:58:24.562967Z,1697803104562
0.5102959871292114,0.3408181369304657,-0.02354598231613636,2023-10-20T11:58:24.573292Z,1697803104573
0.5326447486877441,0.325918972492218,-0.013302815146744251,2023-10-20T11:58:24.582691Z,1697803104582
0.5521998405456543,0.3047674894332886,-0.015431265346705914,2023-10-20T11:58:24.592513Z,1697803104592
0.5681632161140442,0.28135454654693604,-0.02540837787091732,2023-10-20T11:58:24.603406Z,1697803104603
0.5810669660568237,0.2596709430217743,-0.038711193948984146,2023-10-20T11:58:24.612764Z,1697803104612
0.5915762186050415,0.24290940165519714,-0.05188097804784775,2023-10-20T11:58:24.624104Z,1697803104624
0.6008881330490112,0.23173503577709198,-0.06305534392595291,2023-10-20T11:58:24.639694Z,1697803104639
0.6105992197990417,0.22588180005550385,-0.06930766999721527,2023-10-20T11:58:24.643477Z,1697803104643
0.6229708194732666,0.22654694318771362,-0.06717921793460846,2023-10-20T11:58:24.656062Z,1697803104656
0.6389341950416565,0.23346440494060516,-0.055339712649583817,2023-10-20T11:58:24.664062Z,1697803104664
0.6574251055717468,0.24237729609012604,-0.039376333355903625,2023-10-20T11:58:24.672887Z,1697803104672
0.6753839254379272,0.24556997418403625,-0.029399221763014793,2023-10-20T11:58:24.690569Z,1697803104690
0.6885536909103394,0.23851947486400604,-0.03445428982377052,2023-10-20T11:58:24.693544Z,1697803104693
0.6946730017662048,0.22135885059833527,-0.056004852056503296,2023-10-20T11:58:24.706146Z,1697803104706
0.6940078735351562,0.1987440586090088,-0.08753252774477005,2023-10-20T11:58:24.713825Z,1697803104713
0.6884207129478455,0.17652836441993713,-0.11906019598245621,2023-10-20T11:58:24.724950Z,1697803104724
0.6796408295631409,0.16202828288078308,-0.1383492797613144,2023-10-20T11:58:24.736215Z,1697803104736
0.6701958179473877,0.16389068961143494,-0.13382631540298462,2023-10-20T11:58:24.745229Z,1697803104745
0.6623471975326538,0.18650546669960022,-0.09963808953762054,2023-10-20T11:58:24.754330Z,1697803104754
0.6582232713699341,0.22747814655303955,-0.038445137441158295,2023-10-20T11:58:24.764995Z,1697803104764
0.6576911807060242,0.27856093645095825,0.039110276848077774,2023-10-20T11:58:24.774411Z,1697803104774
0.6599526405334473,0.3308410048484802,0.12092258781194687,2023-10-20T11:58:24.786551Z,1697803104786
0.6652737855911255,0.37567150592803955,0.1970146894454956,2023-10-20T11:58:24.794945Z,1697803104794
0.6755169630050659,0.4044055938720703,0.2607351839542389,2023-10-20T11:58:24.806398Z,1697803104806
0.6910812258720398,0.4101257920265198,0.30756109952926636,2023-10-20T11:58:24.814873Z,1697803104814
0.7109024524688721,0.39163488149642944,0.3346988260746002,2023-10-20T11:58:24.826023Z,1697803104825
0.7329851388931274,0.3545200228691101,0.34334567189216614,2023-10-20T11:58:24.836181Z,1697803104836
0.7561320066452026,0.30436840653419495,0.3385566473007202,2023-10-20T11:58:24.846283Z,1697803104846
0.7790128588676453,0.24556997418403625,0.326185017824173,2023-10-20T11:58:24.855719Z,1697803104855
0.7991001009941101,0.18357884883880615,0.30982255935668945,2023-10-20T11:58:24.870208Z,1697803104870
0.8126689791679382,0.12664279341697693,0.29119861125946045,2023-10-20T11:58:24.875738Z,1697803104875
0.8167928457260132,0.08314259350299835,0.27257469296455383,2023-10-20T11:58:24.886709Z,1697803104886
0.8096093535423279,0.05693604797124863,0.25607919692993164,2023-10-20T11:58:24.896549Z,1697803104896
0.7905862927436829,0.0482892207801342,0.24397362768650055,2023-10-20T11:58:24.907728Z,1697803104907
0.7593246698379517,0.054807599633932114,0.23466165363788605,2023-10-20T11:58:24.919572Z,1697803104919
0.6864252686500549,0.0570690780878067,0.21337716281414032,2023-10-20T11:58:24.927105Z,1697803104927
0.6318837404251099,0.08700041472911835,0.19621652364730835,2023-10-20T11:58:24.937109Z,1697803104937
0.5958331227302551,0.14021167159080505,0.181583434343338,2023-10-20T11:58:24.948104Z,1697803104948
0.5241309404373169,0.18012011051177979,0.15218420326709747,2023-10-20T11:58:24.956843Z,1697803104956
0.4538920521736145,0.2222900390625,0.12211984395980835,2023-10-20T11:58:24.969851Z,1697803104969
0.3885752260684967,0.26033610105514526,0.09272062033414841,2023-10-20T11:58:24.977253Z,1697803104977
0.3309740424156189,0.28787291049957275,0.06305534392595291,2023-10-20T11:58:24.987824Z,1697803104987
0.2820196747779846,0.3029051125049591,0.03179372847080231,2023-10-20T11:58:24.997776Z,1697803104997
0.2414460927248001,0.30796018242836,-9.311970788985491E-4,2023-10-20T11:58:25.008903Z,1697803105008
0.20725786685943604,0.3083592653274536,-0.03272492438554764,2023-10-20T11:58:25.019328Z,1697803105019
0.1773265302181244,0.30929043889045715,-0.06026175245642662,2023-10-20T11:58:25.029104Z,1697803105029
0.15018878877162933,0.31368038058280945,-0.08167928457260132,2023-10-20T11:58:25.038019Z,1697803105037
0.12464737892150879,0.32139602303504944,-0.09697752445936203,2023-10-20T11:58:25.048876Z,1697803105048
0.1009683683514595,0.33017587661743164,-0.1081518903374672,2023-10-20T11:58:25.058125Z,1697803105058
0.07968386262655258,0.337492436170578,-0.11719780415296555,2023-10-20T11:58:25.069716Z,1697803105069
0.061725061386823654,0.3397538959980011,-0.12704189121723175,2023-10-20T11:58:25.078380Z,1697803105078
0.047890134155750275,0.3319052457809448,-0.1410098373889923,2023-10-20T11:58:25.089426Z,1697803105089
0.038711193948984146,0.31035467982292175,-0.16256040334701538,2023-10-20T11:58:25.102154Z,1697803105102
0.034720346331596375,0.2756343185901642,-0.19129447638988495,2023-10-20T11:58:25.109941Z,1697803105109
0.03538548946380615,0.23506075143814087,-0.2212258130311966,2023-10-20T11:58:25.119174Z,1697803105119
0.03964238986372948,0.19781285524368286,-0.2431754618883133,2023-10-20T11:58:25.130020Z,1697803105130
0.046293795108795166,0.17094117403030396,-0.2503589689731598,2023-10-20T11:58:25.139385Z,1697803105139
0.04655985161662102,0.14912456274032593,-0.23133595287799835,2023-10-20T11:58:25.153298Z,1697803105153
0.056536965072155,0.1487254798412323,-0.211381733417511,2023-10-20T11:58:25.160126Z,1697803105160
0.06505076587200165,0.14845941960811615,-0.1943541318178177,2023-10-20T11:58:25.170577Z,1697803105170
0.07170217484235764,0.16123011708259583,-0.16841363906860352,2023-10-20T11:58:25.179844Z,1697803105179
0.08327562361955643,0.18836785852909088,-0.15218420326709747,2023-10-20T11:58:25.190557Z,1697803105190
0.08021597564220428,0.1882348358631134,-0.15058787167072296,2023-10-20T11:58:25.202535Z,1697803105202
0.07117006182670593,0.17772561311721802,-0.1673494130373001,2023-10-20T11:58:25.211500Z,1697803105211
0.055738795548677444,0.16149617731571198,-0.19688166677951813,2023-10-20T11:58:25.221013Z,1697803105220
0.035917602479457855,0.14832639694213867,-0.22814327478408813,2023-10-20T11:58:25.231676Z,1697803105231
0.015032181516289711,0.14473463594913483,-0.24982686340808868,2023-10-20T11:58:25.240560Z,1697803105240
-0.0034587320405989885,0.15218420326709747,-0.2552810311317444,2023-10-20T11:58:25.252753Z,1697803105252
-0.016894575208425522,0.17160631716251373,-0.24118003249168396,2023-10-20T11:58:25.261417Z,1697803105261
-0.02288084290921688,0.20379912853240967,-0.205794557929039,2023-10-20T11:58:25.272226Z,1697803105272
-0.01982119493186474,0.2447717934846878,-0.1515190601348877,2023-10-20T11:58:25.281333Z,1697803105281
-0.007316548377275467,0.2849462926387787,-0.08567012846469879,2023-10-20T11:58:25.292331Z,1697803105292
0.011972533538937569,0.31527671217918396,-0.01888999715447426,2023-10-20T11:58:25.302244Z,1697803105302
0.0345873199403286,0.33283644914627075,0.04083964228630066,2023-10-20T11:58:25.312746Z,1697803105312
0.05813330411911011,0.3392217755317688,0.09032611548900604,2023-10-20T11:58:25.321888Z,1697803105321
0.08194534480571747,0.3357630670070648,0.12996850907802582,2023-10-20T11:58:25.332258Z,1697803105332
0.10655555129051208,0.3243226408958435,0.1613631546497345,2023-10-20T11:58:25.342041Z,1697803105341
0.1322299838066101,0.3068959414958954,0.1859733611345291,2023-10-20T11:58:25.353195Z,1697803105353
0.1585695594549179,0.2821527123451233,0.20260187983512878,2023-10-20T11:58:25.362673Z,1697803105362
0.18504215776920319,0.2437075674533844,0.20592758059501648,2023-10-20T11:58:25.373283Z,1697803105373
0.2107165902853012,0.18517518043518066,0.18863391876220703,2023-10-20T11:58:25.385587Z,1697803105385
0.23333138227462769,0.10469315201044083,0.14633096754550934,2023-10-20T11:58:25.393846Z,1697803105393
0.25102412700653076,0.0055871824733912945,0.08167928457260132,2023-10-20T11:58:25.402135Z,1697803105402
0.26259756088256836,-0.10416104644536972,0.004256900865584612,2023-10-20T11:58:25.413928Z,1697803105413
0.2688499093055725,-0.21311110258102417,-0.07383062690496445,2023-10-20T11:58:25.422679Z,1697803105422
0.2711113691329956,-0.30862531065940857,-0.14194104075431824,2023-10-20T11:58:25.436420Z,1697803105436
0.2705792486667633,-0.3799284100532532,-0.19129447638988495,2023-10-20T11:58:25.443586Z,1697803105443
0.2679187059402466,-0.42023593187332153,-0.21444137394428253,2023-10-20T11:58:25.454775Z,1697803105454
0.26259756088256836,-0.42941486835479736,-0.21031750738620758,2023-10-20T11:58:25.463978Z,1697803105463
0.2535516619682312,-0.41291937232017517,-0.18477609753608704,2023-10-20T11:58:25.474675Z,1697803105474
0.23000568151474,-0.37008431553840637,-0.15564294159412384,2023-10-20T11:58:25.485718Z,1697803105485
0.21337716281414032,-0.32951071858406067,-0.11826203018426895,2023-10-20T11:58:25.494876Z,1697803105494
0.19914314150810242,-0.29492342472076416,-0.08633527159690857,2023-10-20T11:58:25.504363Z,1697803105504
0.1701430082321167,-0.2519553303718567,-0.07383062690496445,2023-10-20T11:58:25.514324Z,1697803105514
0.15178512036800385,-0.22215701639652252,-0.04363323375582695,2023-10-20T11:58:25.524211Z,1697803105524
0.1360878050327301,-0.19674864411354065,-0.017825772985816002,2023-10-20T11:58:25.536298Z,1697803105536
0.11626660823822021,-0.1680145561695099,-0.015298237092792988,2023-10-20T11:58:25.544890Z,1697803105544
0.09258759021759033,-0.15843652188777924,-0.0063853515312075615,2023-10-20T11:58:25.556127Z,1697803105556
0.07236731797456741,-0.1503218114376068,0.0011972533538937569,2023-10-20T11:58:25.564705Z,1697803105564
0.06185809150338173,-0.1283721625804901,0.001064225216396153,2023-10-20T11:58:25.575918Z,1697803105575
0.03205978497862816,-0.09750963747501373,0.007981688715517521,2023-10-20T11:58:25.585104Z,1697803105585
0.006651407573372126,-0.07103703171014786,0.014100983738899231,2023-10-20T11:58:25.596187Z,1697803105596
-0.012770703062415123,-0.040041472762823105,0.025009293109178543,2023-10-20T11:58:25.605293Z,1697803105605
-0.03738091140985489,-0.0031926757656037807,0.04403231665492058,2023-10-20T11:58:25.619463Z,1697803105619
-0.04669288173317909,0.017958801239728928,0.05866541340947151,2023-10-20T11:58:25.626002Z,1697803105625
-0.05121583864092827,0.03525245934724808,0.07383062690496445,2023-10-20T11:58:25.636757Z,1697803105636
-0.050683725625276566,0.048821330070495605,0.08952794969081879,2023-10-20T11:58:25.646203Z,1697803105646
-0.04562865570187569,0.05055069923400879,0.09045914560556412,2023-10-20T11:58:25.657298Z,1697803105657
-0.03791302442550659,0.053477317094802856,0.10722068697214127,2023-10-20T11:58:25.669221Z,1697803105669
-0.031261615455150604,0.056004852056503296,0.12158773094415665,2023-10-20T11:58:25.677636Z,1697803105677
-0.018756968900561333,0.0482892207801342,0.13462449610233307,2023-10-20T11:58:25.686050Z,1697803105685
-0.007981688715517521,0.04177083820104599,0.14566582441329956,2023-10-20T11:58:25.697767Z,1697803105697
0.003325703786686063,0.028334995731711388,0.1504548341035843,2023-10-20T11:58:25.707066Z,1697803105707
0.0130367586389184,0.017027603462338448,0.15457871556282043,2023-10-20T11:58:25.719244Z,1697803105719
0.01888999715447426,-0.0,0.15271632373332977,2023-10-20T11:58:25.726653Z,1697803105726
0.024078095331788063,-0.014633096754550934,0.15111997723579407,2023-10-20T11:58:25.737413Z,1697803105737
0.024078095331788063,-0.03485337644815445,0.1497897058725357,2023-10-20T11:58:25.746649Z,1697803105746
0.024610208347439766,-0.06465168297290802,0.1608310341835022,2023-10-20T11:58:25.757512Z,1697803105757
0.02168358862400055,-0.0784866064786911,0.16269342601299286,2023-10-20T11:58:25.767100Z,1697803105767
0.01849091239273548,-0.0779544934630394,0.15205118060112,2023-10-20T11:58:25.778021Z,1697803105778
0.014100983738899231,-0.07768844068050385,0.15604202449321747,2023-10-20T11:58:25.787861Z,1697803105787
0.010376195423305035,-0.07755541056394577,0.15936772525310516,2023-10-20T11:58:25.798358Z,1697803105798
0.004522957373410463,-0.06318837404251099,0.16349159181118011,2023-10-20T11:58:25.808427Z,1697803105808
-5.321126081980765E-4,-0.05094978213310242,0.16708335280418396,2023-10-20T11:58:25.819226Z,1697803105819
-0.007449576631188393,-0.03525245934724808,0.17772561311721802,2023-10-20T11:58:25.828842Z,1697803105828
-0.016229433938860893,-0.0172936599701643,0.21005144715309143,2023-10-20T11:58:25.839431Z,1697803105839
-0.01849091239273548,-0.0039908443577587605,0.23067080974578857,2023-10-20T11:58:25.852385Z,1697803105852
-0.0172936599701643,0.011041336692869663,0.25714340806007385,2023-10-20T11:58:25.859775Z,1697803105859
-0.012770703062415123,0.026871686801314354,0.2881389856338501,2023-10-20T11:58:25.868763Z,1697803105868
-0.005454154219478369,0.04150478169322014,0.3205978572368622,2023-10-20T11:58:25.880251Z,1697803105880
0.0026605629827827215,0.054142456501722336,0.3513273596763611,2023-10-20T11:58:25.889167Z,1697803105889
0.009977111592888832,0.06465168297290802,0.37740087509155273,2023-10-20T11:58:25.902341Z,1697803105902
0.015431265346705914,0.07396364957094193,0.39708903431892395,2023-10-20T11:58:25.909624Z,1697803105909
0.01849091239273548,0.08261048048734665,0.40972670912742615,2023-10-20T11:58:25.920207Z,1697803105920
0.018623940646648407,0.09045914560556412,0.41464874148368835,2023-10-20T11:58:25.929620Z,1697803105929
0.015830349177122116,0.095514215528965,0.41145607829093933,2023-10-20T11:58:25.940630Z,1697803105940
0.010243168100714684,0.09631238132715225,0.4006807804107666,2023-10-20T11:58:25.951357Z,1697803105951
0.0029266192577779293,0.09285365045070648,0.3841853141784668,2023-10-20T11:58:25.960766Z,1697803105960
-9.311970788985491E-4,0.0834086537361145,0.3474695384502411,2023-10-20T11:58:25.969753Z,1697803105969
-0.010376195423305035,0.06930766999721527,0.32565292716026306,2023-10-20T11:58:25.980984Z,1697803105980
-0.018357884138822556,0.05720210447907448,0.3068959414958954,2023-10-20T11:58:25.990089Z,1697803105990
-0.027536828070878983,0.03365612402558327,0.2809554636478424,2023-10-20T11:58:26.002270Z,1697803106002
-0.03525245934724808,0.013568871654570103,0.25873976945877075,2023-10-20T11:58:26.010690Z,1697803106010
-0.0433671772480011,-0.009578026831150055,0.233198344707489,2023-10-20T11:58:26.021526Z,1697803106021
-0.05028464272618294,-0.029266193509101868,0.211381733417511,2023-10-20T11:58:26.030725Z,1697803106030
-0.05587182566523552,-0.0521470345556736,0.1861063838005066,2023-10-20T11:58:26.041785Z,1697803106041
-0.06079386547207832,-0.07156914472579956,0.16442279517650604,2023-10-20T11:58:26.052365Z,1697803106052
-0.06345442682504654,-0.09671146422624588,0.1383492797613144,2023-10-20T11:58:26.062124Z,1697803106062
-0.0702388659119606,-0.14114287495613098,0.11347301304340363,2023-10-20T11:58:26.071088Z,1697803106071
-0.06850949674844742,-0.1696108877658844,0.09152337163686752,2023-10-20T11:58:26.085929Z,1697803106085
-0.0663810446858406,-0.198078915476799,0.07316548377275467,2023-10-20T11:58:26.091970Z,1697803106091
-0.0647847130894661,-0.22295518219470978,0.05959661304950714,2023-10-20T11:58:26.103142Z,1697803106103
-0.0653168261051178,-0.24277637898921967,0.05081675574183464,2023-10-20T11:58:26.112474Z,1697803106112
-0.06837646663188934,-0.2568773627281189,0.04549562931060791,2023-10-20T11:58:26.123231Z,1697803106123
-0.07396364957094193,-0.26312968134880066,0.04137175530195236,2023-10-20T11:58:26.135323Z,1697803106135
-0.07156914472579956,-0.24463877081871033,0.03644971549510956,2023-10-20T11:58:26.143411Z,1697803106143
-0.08247745782136917,-0.23945067822933197,0.02700471505522728,2023-10-20T11:58:26.153157Z,1697803106153
-0.09178942441940308,-0.23506075143814087,0.019023025408387184,2023-10-20T11:58:26.163583Z,1697803106163
-0.10402801632881165,-0.23785433173179626,1.3302815204951912E-4,2023-10-20T11:58:26.173085Z,1697803106172
-0.12704189121723175,-0.26592326164245605,-0.028468023985624313,2023-10-20T11:58:26.185639Z,1697803106185
-0.13356027007102966,-0.2830839157104492,-0.05174795165657997,2023-10-20T11:58:26.192864Z,1697803106192
-0.13901442289352417,-0.30543264746665955,-0.07662421464920044,2023-10-20T11:58:26.204133Z,1697803106204
-0.14420251548290253,-0.3299098312854767,-0.10189956426620483,2023-10-20T11:58:26.213313Z,1697803106213
-0.15111997723579407,-0.3541209399700165,-0.12770701944828033,2023-10-20T11:58:26.224319Z,1697803106224
-0.16123011708259583,-0.3776669204235077,-0.15457871556282043,2023-10-20T11:58:26.235479Z,1697803106235
-0.17466595768928528,-0.4008138179779053,-0.18291370570659637,2023-10-20T11:58:26.244787Z,1697803106244
-0.19102843105793,-0.42449283599853516,-0.21271201968193054,2023-10-20T11:58:26.253610Z,1697803106253
-0.20925328135490417,-0.4496351480484009,-0.2437075674533844,2023-10-20T11:58:26.264286Z,1697803106264
-0.22867539525032043,-0.4759747385978699,-0.27536827325820923,2023-10-20T11:58:26.273561Z,1697803106273
-0.24902869760990143,-0.5021812915802002,-0.30716201663017273,2023-10-20T11:58:26.284968Z,1697803106284
-0.2699141204357147,-0.5281217694282532,-0.33789151906967163,2023-10-20T11:58:26.294166Z,1697803106294
-0.29106560349464417,-0.5519338250160217,-0.3655613660812378,2023-10-20T11:58:26.304852Z,1697803106304
-0.3118179738521576,-0.5697595477104187,-0.38884130120277405,2023-10-20T11:58:26.316748Z,1697803106316
-0.33110707998275757,-0.577741265296936,-0.40746521949768066,2023-10-20T11:58:26.325433Z,1697803106325
-0.348666787147522,-0.57734215259552,-0.4231625497341156,2023-10-20T11:58:26.334501Z,1697803106334
-0.3650292456150055,-0.574548602104187,-0.4380617141723633,2023-10-20T11:58:26.345444Z,1697803106345
-0.3809926211833954,-0.5760118961334229,-0.45469021797180176,2023-10-20T11:58:26.354817Z,1697803106354
-0.39775416254997253,-0.585456907749176,-0.4751765727996826,2023-10-20T11:58:26.367027Z,1697803106367
-0.4161120653152466,-0.6024845242500305,-0.4999198019504547,2023-10-20T11:58:26.374863Z,1697803106374
-0.4368644654750824,-0.622704803943634,-0.5278556942939758,2023-10-20T11:58:26.385512Z,1697803106385
-0.45921316742897034,-0.6395993828773499,-0.5556585788726807,2023-10-20T11:58:26.395454Z,1697803106395
-0.48169493675231934,-0.6501085758209229,-0.5798696875572205,2023-10-20T11:58:26.406550Z,1697803106406
-0.5027133822441101,-0.6544985175132751,-0.5983606576919556,2023-10-20T11:58:26.416534Z,1697803106416
-0.5212042927742004,-0.6550306081771851,-0.6104661822319031,2023-10-20T11:58:26.426283Z,1697803106426
-0.536901593208313,-0.6542324423789978,-0.6172506213188171,2023-10-20T11:58:26.435872Z,1697803106435
-0.5495392680168152,-0.6535673141479492,-0.6203102469444275,2023-10-20T11:58:26.446889Z,1697803106446
-0.559117317199707,-0.6543654799461365,-0.6221726536750793,2023-10-20T11:58:26.456529Z,1697803106456
-0.5660347938537598,-0.6586223840713501,-0.6247001886367798,2023-10-20T11:58:26.468830Z,1697803106468
-0.5721541047096252,-0.6684664487838745,-0.6286910176277161,2023-10-20T11:58:26.476817Z,1697803106476
-0.5784063935279846,-0.6848289370536804,-0.634145200252533,2023-10-20T11:58:26.487237Z,1697803106487
-0.5845257043838501,-0.7061134576797485,-0.6393333077430725,2023-10-20T11:58:26.497019Z,1697803106496
-0.589580774307251,-0.7285951972007751,-0.6422598958015442,2023-10-20T11:58:26.508118Z,1697803106508
-0.593172550201416,-0.7489485144615173,-0.640530526638031,2023-10-20T11:58:26.518560Z,1697803106518
-0.5949019193649292,-0.7647788524627686,-0.6325488686561584,2023-10-20T11:58:26.528461Z,1697803106528
-0.5947688817977905,-0.7747559547424316,-0.6169845461845398,2023-10-20T11:58:26.537137Z,1697803106537
-0.5937046408653259,-0.7784807682037354,-0.5934385657310486,2023-10-20T11:58:26.552553Z,1697803106552
-0.5934385657310486,-0.7780816555023193,-0.5625760555267334,2023-10-20T11:58:26.557875Z,1697803106557
-0.5957000851631165,-0.7770174145698547,-0.5265254378318787,2023-10-20T11:58:26.569179Z,1697803106569
-0.6010211706161499,-0.7767513990402222,-0.48808029294013977,2023-10-20T11:58:26.577655Z,1697803106577
-0.6084707379341125,-0.7764853239059448,-0.44923606514930725,2023-10-20T11:58:26.588759Z,1697803106588
-0.6175166964530945,-0.7791458964347839,-0.4127863645553589,2023-10-20T11:58:26.601570Z,1697803106601
-0.6285580396652222,-0.790054202079773,-0.3808596134185791,2023-10-20T11:58:26.609504Z,1697803106609
-0.6414617300033569,-0.8101414442062378,-0.3538548946380615,2023-10-20T11:58:26.618860Z,1697803106618
-0.6554297208786011,-0.8339534997940063,-0.32911163568496704,2023-10-20T11:58:26.629469Z,1697803106629
-0.6689985990524292,-0.8547058701515198,-0.30223995447158813,2023-10-20T11:58:26.638441Z,1697803106638
-0.6817692518234253,-0.8721325397491455,-0.2705792486667633,2023-10-20T11:58:26.652028Z,1697803106652
-0.6942739486694336,-0.8896923065185547,-0.23346440494060516,2023-10-20T11:58:26.659165Z,1697803106659
-0.7066455483436584,-0.9084492325782776,-0.19102843105793,2023-10-20T11:58:26.670066Z,1697803106670
-0.7183520197868347,-0.9276053309440613,-0.1438034325838089,2023-10-20T11:58:26.679461Z,1697803106679
-0.7295264005661011,-0.9462292194366455,-0.09378484636545181,2023-10-20T11:58:26.690126Z,1697803106690
-0.7407007217407227,-0.967779815196991,-0.04496351629495621,2023-10-20T11:58:26.701253Z,1697803106701
-0.7534714341163635,-0.9963808655738831,-0.0029266192577779293,2023-10-20T11:58:26.709946Z,1697803106709
-0.7683706283569336,-1.0324314832687378,0.030064363032579422,2023-10-20T11:58:26.720196Z,1697803106720
-0.7853981852531433,-1.0724729299545288,0.055073656141757965,2023-10-20T11:58:26.730306Z,1697803106730
-0.8038890957832336,-1.1125143766403198,0.07502787560224533,2023-10-20T11:58:26.740111Z,1697803106740
-0.8249075412750244,-1.1566797494888306,0.09019308537244797,2023-10-20T11:58:26.751763Z,1697803106751
-0.8489856719970703,-1.2084277868270874,0.1009683683514595,2023-10-20T11:58:26.760638Z,1697803106760
-0.8747931122779846,-1.2627031803131104,0.11200970411300659,2023-10-20T11:58:26.771290Z,1697803106771
-0.9003345370292664,-1.3097951412200928,0.12983547151088715,2023-10-20T11:58:26.785104Z,1697803106785
-0.9252107739448547,-1.3470430374145508,0.15710625052452087,2023-10-20T11:58:26.791607Z,1697803106791
-0.9506191611289978,-1.3795019388198853,0.19076237082481384,2023-10-20T11:58:26.801496Z,1697803106801
-0.977357804775238,-1.4099653959274292,0.2282763123512268,2023-10-20T11:58:26.812031Z,1697803106812
-1.0042295455932617,-1.4363049268722534,0.2699141204357147,2023-10-20T11:58:26.821286Z,1697803106821
-1.0292388200759888,-1.455061912536621,0.3172721564769745,2023-10-20T11:58:26.834960Z,1697803106834
-1.0509223937988281,-1.4670344591140747,0.36968523263931274,2023-10-20T11:58:26.841763Z,1697803106841
-1.0690141916275024,-1.4760804176330566,0.4248919188976288,2023-10-20T11:58:26.852470Z,1697803106852
-1.0847115516662598,-1.4848601818084717,0.48102980852127075,2023-10-20T11:58:26.862001Z,1697803106861
-1.0994776487350464,-1.4943052530288696,0.5387639999389648,2023-10-20T11:58:26.873190Z,1697803106873
-1.1162391901016235,-1.5044153928756714,0.5978285074234009,2023-10-20T11:58:26.884308Z,1697803106884
-1.1381888389587402,-1.5154566764831543,0.6570260524749756,2023-10-20T11:58:26.892755Z,1697803106892
-1.1678541898727417,-1.5256998538970947,0.7164896130561829,2023-10-20T11:58:26.901860Z,1697803106901
-1.2059001922607422,-1.5322182178497314,0.7780816555023193,2023-10-20T11:58:26.913113Z,1697803106913
-1.25139582157135,-1.5339475870132446,0.8440636396408081,2023-10-20T11:58:26.922678Z,1697803106922
-1.302345633506775,-1.5307549238204956,0.9162979125976562,2023-10-20T11:58:26.934968Z,1697803106934
-1.3556898832321167,-1.5238374471664429,0.9955826997756958,2023-10-20T11:58:26.943551Z,1697803106943
-1.4085021018981934,-1.515589714050293,1.0829821825027466,2023-10-20T11:58:26.954436Z,1697803106954
-1.4586536884307861,-1.508805274963379,1.1782302856445312,2023-10-20T11:58:26.962895Z,1697803106962
-1.5048145055770874,-1.5040162801742554,1.281061053276062,2023-10-20T11:58:26.974243Z,1697803106974
-1.5480486154556274,-1.5006905794143677,1.3910753726959229,2023-10-20T11:58:26.984528Z,1697803106984
-1.5922139883041382,-1.4994933605194092,1.508805274963379,2023-10-20T11:58:26.994093Z,1697803106994
-1.6406362056732178,-1.500158429145813,1.6361132860183716,2023-10-20T11:58:27.003432Z,1697803107003
-1.6934484243392944,-1.5016217231750488,1.7745954990386963,2023-10-20T11:58:27.013989Z,1697803107013
-1.749719262123108,-1.5042823553085327,1.9225229024887085,2023-10-20T11:58:27.023944Z,1697803107023
-1.8094489574432373,-1.508805274963379,2.075505256652832,2023-10-20T11:58:27.034952Z,1697803107034
-1.8729033470153809,-1.5157227516174316,2.229285717010498,2023-10-20T11:58:27.044622Z,1697803107044
-1.9404816627502441,-1.5260989665985107,2.3808047771453857,2023-10-20T11:58:27.055516Z,1697803107055
-2.01298189163208,-1.5411311388015747,2.5285990238189697,2023-10-20T11:58:27.067628Z,1697803107067
-2.090803384780884,-1.559622049331665,2.671870470046997,2023-10-20T11:58:27.075356Z,1697803107075
-2.172881841659546,-1.5777138471603394,2.8119490146636963,2023-10-20T11:58:27.084507Z,1697803107084
-2.259350061416626,-1.5930120944976807,2.950564384460449,2023-10-20T11:58:27.095357Z,1697803107095
-2.349144220352173,-1.605117678642273,3.089179754257202,2023-10-20T11:58:27.104944Z,1697803107104
-2.4378738403320312,-1.6133654117584229,3.2283272743225098,2023-10-20T11:58:27.118469Z,1697803107118
-2.52128267288208,-1.619085669517517,3.362818717956543,2023-10-20T11:58:27.125723Z,1697803107125
-2.597773790359497,-1.6254709959030151,3.4816126823425293,2023-10-20T11:58:27.136472Z,1697803107136
-2.6669483184814453,-1.6354480981826782,3.572736978530884,2023-10-20T11:58:27.145453Z,1697803107145
-2.7273430824279785,-1.6488839387893677,3.6284759044647217,2023-10-20T11:58:27.155553Z,1697803107155
-2.778825044631958,-1.6620537042617798,3.6472327709198,2023-10-20T11:58:27.166364Z,1697803107166
-2.8201968669891357,-1.6697694063186646,3.6325998306274414,2023-10-20T11:58:27.175929Z,1697803107175
-2.8503942489624023,-1.6663106679916382,3.590695858001709,2023-10-20T11:58:27.185400Z,1697803107185
-2.8731420040130615,-1.6478197574615479,3.526177167892456,2023-10-20T11:58:27.196532Z,1697803107196
-2.8952248096466064,-1.611103892326355,3.442103385925293,2023-10-20T11:58:27.205890Z,1697803107205
-2.9197018146514893,-1.5543009042739868,3.343130588531494,2023-10-20T11:58:27.216705Z,1697803107216
-2.9468395709991455,-1.4774106740951538,3.234180450439453,2023-10-20T11:58:27.226342Z,1697803107226
-2.977169990539551,-1.3808321952819824,3.1183128356933594,2023-10-20T11:58:27.238055Z,1697803107238
-3.0093629360198975,-1.2645655870437622,2.9989867210388184,2023-10-20T11:58:27.251055Z,1697803107251
-3.0372986793518066,-1.1290099620819092,2.8824539184570312,2023-10-20T11:58:27.257987Z,1697803107257
-3.057918071746826,-0.9749633073806763,2.7753663063049316,2023-10-20T11:58:27.268009Z,1697803107267
-3.0722851753234863,-0.8046873211860657,2.684375047683716,2023-10-20T11:58:27.277948Z,1697803107277
-3.079601764678955,-0.623236894607544,2.6152005195617676,2023-10-20T11:58:27.287428Z,1697803107287
-3.0781383514404297,-0.43779563903808594,2.570636034011841,2023-10-20T11:58:27.301424Z,1697803107301
-3.0674960613250732,-0.25607919692993164,2.545626640319824,2023-10-20T11:58:27.307849Z,1697803107307
-3.0474088191986084,-0.08580315858125687,2.530993700027466,2023-10-20T11:58:27.318227Z,1697803107318
-3.014417886734009,0.06544984877109528,2.5162274837493896,2023-10-20T11:58:27.327425Z,1697803107327
-2.964665412902832,0.19062934815883636,2.4917502403259277,2023-10-20T11:58:27.338718Z,1697803107338
-2.900944948196411,0.2885380685329437,2.4481170177459717,2023-10-20T11:58:27.347581Z,1697803107347
-2.830440044403076,0.3648962080478668,2.3784103393554688,2023-10-20T11:58:27.358785Z,1697803107358
-2.758338689804077,0.42941486835479736,2.2807676792144775,2023-10-20T11:58:27.368631Z,1697803107368
-2.685040235519409,0.49034178256988525,2.157317638397217,2023-10-20T11:58:27.379260Z,1697803107379
-2.608549118041992,0.5524659156799316,2.0140461921691895,2023-10-20T11:58:27.388399Z,1697803107388
-2.527268886566162,0.6175166964530945,1.8584033250808716,2023-10-20T11:58:27.401981Z,1697803107401
-2.4402685165405273,0.6845628619194031,1.700631856918335,2023-10-20T11:58:27.408720Z,1697803107408
-2.3476808071136475,0.7517420649528503,1.5501770973205566,2023-10-20T11:58:27.419682Z,1697803107419
-2.252964735031128,0.8174579739570618,1.4140892028808594,2023-10-20T11:58:27.429138Z,1697803107429
-2.1606433391571045,0.8795821666717529,1.2971575260162354,2023-10-20T11:58:27.440147Z,1697803107440
-2.074307918548584,0.9333255290985107,1.2021753787994385,2023-10-20T11:58:27.450777Z,1697803107450
-1.994624137878418,0.9717706441879272,1.1319365501403809,2023-10-20T11:58:27.460933Z,1697803107460
-1.9202613830566406,0.989197313785553,1.0859087705612183,2023-10-20T11:58:27.469942Z,1697803107469
-1.8494904041290283,0.9841422438621521,1.0602344274520874,2023-10-20T11:58:27.480429Z,1697803107480
-1.7809809446334839,0.959132969379425,1.0490599870681763,2023-10-20T11:58:27.490030Z,1697803107489
-1.714599847793579,0.9182933568954468,1.0458673238754272,2023-10-20T11:58:27.502483Z,1697803107502
-1.6508793830871582,0.8678756356239319,1.0440049171447754,2023-10-20T11:58:27.510237Z,1697803107510
-1.5895533561706543,0.8139992356300354,1.0380187034606934,2023-10-20T11:58:27.521239Z,1697803107521
-1.5292916297912598,0.7619852423667908,1.0233855247497559,2023-10-20T11:58:27.529950Z,1697803107529
-1.4684977531433105,0.7147602438926697,0.9975780844688416,2023-10-20T11:58:27.541195Z,1697803107541
-1.4065066576004028,0.6737875938415527,0.9609953761100769,2023-10-20T11:58:27.551333Z,1697803107551
-1.3438503742218018,0.640929639339447,0.9157658219337463,2023-10-20T11:58:27.561671Z,1697803107561
-1.2834556102752686,0.6189799904823303,0.8662793040275574,2023-10-20T11:58:27.570870Z,1697803107570
-1.2283819913864136,0.6088698506355286,0.8177240490913391,2023-10-20T11:58:27.584710Z,1697803107584
-1.1796936988830566,0.607805609703064,0.7756871581077576,2023-10-20T11:58:27.591744Z,1697803107591
-1.1361933946609497,0.6100671291351318,0.7446916103363037,2023-10-20T11:58:27.601868Z,1697803107601
-1.0965510606765747,0.6086037755012512,0.726333737373352,2023-10-20T11:58:27.611539Z,1697803107611
-1.0607664585113525,0.597296416759491,0.7194162607192993,2023-10-20T11:58:27.621998Z,1697803107621
-1.0293718576431274,0.5717549920082092,0.7202144265174866,2023-10-20T11:58:27.633889Z,1697803107633
-1.0023671388626099,0.5298511385917664,0.7242052555084229,2023-10-20T11:58:27.642765Z,1697803107642
-0.9796193242073059,0.47504353523254395,0.726865828037262,2023-10-20T11:58:27.652488Z,1697803107652
-0.9599311351776123,0.41411665081977844,0.7250034213066101,2023-10-20T11:58:27.663098Z,1697803107663
-0.9407750964164734,0.35545122623443604,0.7162235975265503,2023-10-20T11:58:27.672931Z,1697803107672
-0.919091522693634,0.3067629039287567,0.6986638307571411,2023-10-20T11:58:27.684315Z,1697803107684
-0.8928849697113037,0.27417102456092834,0.6707279682159424,2023-10-20T11:58:27.692833Z,1697803107692
-0.8622884750366211,0.26219847798347473,0.6318837404251099,2023-10-20T11:58:27.703464Z,1697803107703
-0.8284993171691895,0.27204257249832153,0.5826632976531982,2023-10-20T11:58:27.712385Z,1697803107712
-0.7929807901382446,0.3013087511062622,0.5253281593322754,2023-10-20T11:58:27.723756Z,1697803107723
-0.7573292851448059,0.3430795967578888,0.4633370637893677,2023-10-20T11:58:27.733775Z,1697803107733
-0.7232740521430969,0.3887082636356354,0.40147897601127625,2023-10-20T11:58:27.744012Z,1697803107743
-0.6925445795059204,0.4296809434890747,0.34374475479125977,2023-10-20T11:58:27.753158Z,1697803107753
-0.6662049889564514,0.4589471220970154,0.29332706332206726,2023-10-20T11:58:27.764043Z,1697803107763
-0.645053505897522,0.46892422437667847,0.2519553303718567,2023-10-20T11:58:27.773258Z,1697803107773
-0.6306864619255066,0.45189663767814636,0.22149187326431274,2023-10-20T11:58:27.784699Z,1697803107784
-0.6248332262039185,0.40307530760765076,0.20406518876552582,2023-10-20T11:58:27.793697Z,1697803107793
-0.630021333694458,0.322061151266098,0.2014046162366867,2023-10-20T11:58:27.805499Z,1697803107805
-0.6495764851570129,0.21217989921569824,0.21763405203819275,2023-10-20T11:58:27.817343Z,1697803107817
-0.6878885626792908,0.07649118453264236,0.2607351839542389,2023-10-20T11:58:27.825060Z,1697803107825
-0.7485494017601013,-0.08593618869781494,0.3408181369304657,2023-10-20T11:58:27.834188Z,1697803107834
-0.8331553339958191,-0.2810884714126587,0.46626368165016174,2023-10-20T11:58:27.845516Z,1697803107845
-0.9423714280128479,-0.5249291062355042,0.6376039385795593,2023-10-20T11:58:27.854298Z,1697803107854
-1.0751335620880127,-0.8441966772079468,0.8473893404006958,2023-10-20T11:58:27.867771Z,1697803107867
-1.2289140224456787,-1.2721482515335083,1.0783262252807617,2023-10-20T11:58:27.875029Z,1697803107874
-1.3999882936477661,-1.840577483177185,1.305538296699524,2023-10-20T11:58:27.885739Z,1697803107885
-1.585030436515808,-2.5831406116485596,1.4982960224151611,2023-10-20T11:58:27.895254Z,1697803107895
-1.6580629348754883,-3.527906656265259,1.5324842929840088,2023-10-20T11:58:27.906100Z,1697803107906
-1.7626230716705322,-4.664499282836914,1.4728877544403076,2023-10-20T11:58:27.917245Z,1697803107917
-2.0059316158294678,-5.554856777191162,1.385621190071106,2023-10-20T11:58:27.926618Z,1697803107926
-2.2606804370880127,-6.488315105438232,1.2118864059448242,2023-10-20T11:58:27.935994Z,1697803107935
-2.4974706172943115,-7.120996952056885,1.0140736103057861,2023-10-20T11:58:27.946482Z,1697803107946
-2.687434673309326,-7.360447883605957,0.8701371550559998,2023-10-20T11:58:27.955601Z,1697803107955
-2.8006417751312256,-7.207332134246826,0.8307608366012573,2023-10-20T11:58:27.967519Z,1697803107967
-2.8193986415863037,-6.731623649597168,0.9052565693855286,2023-10-20T11:58:27.976102Z,1697803107976
-2.746366262435913,-6.030432224273682,1.0771290063858032,2023-10-20T11:58:27.987399Z,1697803107987
-2.6020307540893555,-5.211643695831299,1.3136529922485352,2023-10-20T11:58:28.000555Z,1697803108000
-2.4401354789733887,-4.542246341705322,1.582901954650879,2023-10-20T11:58:28.007032Z,1697803108007
-2.2206389904022217,-3.6757009029388428,1.8361876010894775,2023-10-20T11:58:28.017077Z,1697803108017
-2.0006103515625,-2.919435739517212,2.0479683876037598,2023-10-20T11:58:28.027529Z,1697803108027
-1.7986736297607422,-2.277841091156006,2.197758197784424,2023-10-20T11:58:28.036879Z,1697803108036
-1.630925178527832,-1.7559715509414673,2.271322727203369,2023-10-20T11:58:28.050864Z,1697803108050
-1.5130622386932373,-1.3548917770385742,2.259350061416626,2023-10-20T11:58:28.057610Z,1697803108057
-1.4598509073257446,-1.0634270906448364,2.158381700515747,2023-10-20T11:58:28.068617Z,1697803108068
-1.4844611883163452,-0.8670774698257446,1.9682844877243042,2023-10-20T11:58:28.077561Z,1697803108077
-1.599663496017456,-0.7504118084907532,1.68879234790802,2023-10-20T11:58:28.088652Z,1697803108088
-1.818760871887207,-0.6878885626792908,1.3179099559783936,2023-10-20T11:58:28.100436Z,1697803108100
-2.1489367485046387,-0.6414617300033569,0.855903148651123,2023-10-20T11:58:28.108712Z,1697803108108
-2.5667781829833984,-0.5686953663825989,0.3068959414958954,2023-10-20T11:58:28.117680Z,1697803108117
-3.0209362506866455,-0.4363323450088501,-0.3283134698867798,2023-10-20T11:58:28.128970Z,1697803108128
-3.456603527069092,-0.20765694975852966,-0.5750806927680969,2023-10-20T11:58:28.138185Z,1697803108138
-3.6393842697143555,0.15684019029140472,-0.9466283321380615,2023-10-20T11:58:28.150883Z,1697803108150
-3.4707045555114746,0.6600856781005859,-1.8734354972839355,2023-10-20T11:58:28.158646Z,1697803108158
-3.103679895401001,0.5061721205711365,-2.7861416339874268,2023-10-20T11:58:28.169903Z,1697803108169
-2.9908719062805176,0.4594792425632477,-3.6585402488708496,2023-10-20T11:58:28.178648Z,1697803108178
-3.1515698432922363,1.1976524591445923,-4.472406387329102,2023-10-20T11:58:28.189809Z,1697803108189
-3.193739891052246,1.8329949378967285,-5.216033935546875,2023-10-20T11:58:28.200276Z,1697803108200
-3.053927183151245,2.2548272609710693,-5.501379013061523,2023-10-20T11:58:28.209818Z,1697803108209
-2.9139816761016846,2.3656396865844727,-5.821977138519287,2023-10-20T11:58:28.219541Z,1697803108219
-2.843742847442627,2.096789836883545,-5.872128486633301,2023-10-20T11:58:28.230247Z,1697803108230
-2.9263532161712646,1.5911496877670288,-5.702384948730469,2023-10-20T11:58:28.239571Z,1697803108239
-3.10687255859375,1.100009799003601,-5.439255237579346,2023-10-20T11:58:28.250714Z,1697803108250
-3.302290916442871,0.7506778836250305,-5.162689685821533,2023-10-20T11:58:28.260075Z,1697803108260
-3.6489622592926025,0.45482325553894043,-5.032588005065918,2023-10-20T11:58:28.271006Z,1697803108270
-4.16577672958374,0.048156190663576126,-4.338580131530762,2023-10-20T11:58:28.283986Z,1697803108283
-5.158831596374512,-0.5899798274040222,-3.0635054111480713,2023-10-20T11:58:28.291137Z,1697803108291
-7.443058013916016,-2.7177650928497314,0.9564723968505859,2023-10-20T11:58:28.300233Z,1697803108300
-15.291187286376953,-11.169575691223145,14.07943344116211,2023-10-20T11:58:28.311152Z,1697803108311
-20.870254516601562,-17.472450256347656,23.36200523376465,2023-10-20T11:58:28.320661Z,1697803108320
-19.682846069335938,-16.037208557128906,21.293550491333008,2023-10-20T11:58:28.334177Z,1697803108334
-17.949222564697266,-14.017043113708496,18.622344970703125,2023-10-20T11:58:28.341487Z,1697803108341
-16.31723403930664,-12.110750198364258,16.366851806640625,2023-10-20T11:58:28.351833Z,1697803108351
-14.865230560302734,-10.356374740600586,14.564188003540039,2023-10-20T11:58:28.361681Z,1697803108361
-13.565146446228027,-8.730637550354004,13.061102867126465,2023-10-20T11:58:28.372609Z,1697803108372
-12.37920093536377,-7.22954797744751,11.729225158691406,2023-10-20T11:58:28.383842Z,1697803108383
-11.282649993896484,-5.848848819732666,10.52585220336914,2023-10-20T11:58:28.392615Z,1697803108392
-10.25394344329834,-4.578695774078369,9.446595191955566,2023-10-20T11:58:28.401763Z,1697803108401
-9.280709266662598,-3.4178922176361084,8.484535217285156,2023-10-20T11:58:28.412779Z,1697803108412
-8.35749340057373,-2.3736212253570557,7.624375343322754,2023-10-20T11:58:28.421640Z,1697803108421
-7.477512359619141,-1.4501398801803589,6.847757339477539,2023-10-20T11:58:28.434052Z,1697803108434
-6.635444164276123,-0.6490443348884583,6.136322498321533,2023-10-20T11:58:28.442538Z,1697803108442
-5.8330183029174805,0.028468023985624313,5.471980094909668,2023-10-20T11:58:28.453343Z,1697803108453
-5.078881740570068,0.5797367095947266,4.8353071212768555,2023-10-20T11:58:28.462565Z,1697803108462
-4.556347370147705,1.0051606893539429,4.359731674194336,2023-10-20T11:58:28.473763Z,1697803108473
-3.8768393993377686,1.3050061464309692,3.6770310401916504,2023-10-20T11:58:28.483882Z,1697803108483
-3.3085432052612305,1.485924482345581,3.013087749481201,2023-10-20T11:58:28.493714Z,1697803108493
-2.8494629859924316,1.5680028200149536,2.383199453353882,2023-10-20T11:58:28.502760Z,1697803108502
-2.4861631393432617,1.5823699235916138,1.8122425079345703,2023-10-20T11:58:28.517335Z,1697803108517
-2.1953635215759277,1.5657413005828857,1.32549250125885,2023-10-20T11:58:28.523905Z,1697803108523
-1.9528533220291138,1.549245834350586,0.9379814863204956,2023-10-20T11:58:28.534342Z,1697803108534
-1.7394760847091675,1.5511082410812378,0.6483792066574097,2023-10-20T11:58:28.544090Z,1697803108544
-1.5419293642044067,1.577314853668213,0.4440479576587677,2023-10-20T11:58:28.554544Z,1697803108554
-1.3538274765014648,1.6240077018737793,0.3035702407360077,2023-10-20T11:58:28.566595Z,1697803108566
-1.1753036975860596,1.682407021522522,0.20340004563331604,2023-10-20T11:58:28.574807Z,1697803108574
-1.0112800598144531,1.7401412725448608,0.12318406999111176,2023-10-20T11:58:28.584177Z,1697803108584
-0.8688068389892578,1.7821781635284424,0.0482892207801342,2023-10-20T11:58:28.595118Z,1697803108595
-0.7520081400871277,1.7961461544036865,-0.026871686801314354,2023-10-20T11:58:28.604701Z,1697803108604
-0.6630123257637024,1.771934986114502,-0.10203259438276291,2023-10-20T11:58:28.617691Z,1697803108617
-0.6020854115486145,1.7012970447540283,-0.17373476922512054,2023-10-20T11:58:28.624758Z,1697803108624
-0.5705577731132507,1.5770487785339355,-0.23945067822933197,2023-10-20T11:58:28.636025Z,1697803108635
-0.5740164518356323,1.3893460035324097,-0.2997124195098877,2023-10-20T11:58:28.644958Z,1697803108644
-0.637337863445282,1.1093217134475708,-0.3626347482204437,2023-10-20T11:58:28.656586Z,1697803108656
-0.8282333016395569,0.6640765070915222,-0.4501672685146332,2023-10-20T11:58:28.666673Z,1697803108666
-1.3164465427398682,-0.12943638861179352,-0.6121955513954163,2023-10-20T11:58:28.675886Z,1697803108675
-2.6549758911132812,-1.8760960102081299,-0.9983763098716736,2023-10-20T11:58:28.685284Z,1697803108685
-6.579306125640869,-6.609902858734131,-2.101179599761963,2023-10-20T11:58:28.700615Z,1697803108700
-13.209695816040039,-14.382072448730469,-3.8864173889160156,2023-10-20T11:58:28.705856Z,1697803108705
-17.28567886352539,-19.244251251220703,-4.921509742736816,2023-10-20T11:58:28.717359Z,1697803108717
-17.08440589904785,-19.232145309448242,-4.7868852615356445,2023-10-20T11:58:28.725837Z,1697803108725
-15.544073104858398,-17.674386978149414,-4.299070835113525,2023-10-20T11:58:28.737318Z,1697803108737
-13.734225273132324,-15.786051750183105,-3.7483341693878174,2023-10-20T11:58:28.749875Z,1697803108749
-11.941937446594238,-13.896387100219727,-3.214226245880127,2023-10-20T11:58:28.757585Z,1697803108757
-10.250218391418457,-12.10636043548584,-2.720824718475342,2023-10-20T11:58:28.766393Z,1697803108766
-8.685541152954102,-10.453219413757324,-2.276111602783203,2023-10-20T11:58:28.777405Z,1697803108777
-7.261740684509277,-8.956652641296387,-1.8823482990264893,2023-10-20T11:58:28.786937Z,1697803108786
-5.976555824279785,-7.615063667297363,-1.5371402502059937,2023-10-20T11:58:28.800783Z,1697803108800
-4.815086841583252,-6.409695625305176,-1.235432505607605,2023-10-20T11:58:28.807094Z,1697803108807
-3.76456356048584,-5.323121547698975,-0.9719036817550659,2023-10-20T11:58:28.817883Z,1697803108817
-2.872210741043091,-4.518034934997559,-0.7432282567024231,2023-10-20T11:58:28.827557Z,1697803108827
-2.0309407711029053,-3.593090295791626,-0.5434200167655945,2023-10-20T11:58:28.838204Z,1697803108838
-1.345579743385315,-2.83935284614563,-0.36862102150917053,2023-10-20T11:58:28.850067Z,1697803108850
-0.8014945983886719,-2.237666606903076,-0.2112487107515335,2023-10-20T11:58:28.858474Z,1697803108858
-0.35757967829704285,-1.7462605237960815,-0.06398653984069824,2023-10-20T11:58:28.867882Z,1697803108867
0.0433671772480011,-1.3103272914886475,0.07861963659524918,2023-10-20T11:58:28.878506Z,1697803108878
0.4642682373523712,-0.8717334866523743,0.2179001122713089,2023-10-20T11:58:28.888454Z,1697803108888
0.992789089679718,-0.3523915708065033,0.351859450340271,2023-10-20T11:58:28.900144Z,1697803108900
1.811976432800293,0.40693312883377075,0.47384628653526306,2023-10-20T11:58:28.908672Z,1697803108908
3.4719016551971436,1.861462950706482,0.5657687187194824,2023-10-20T11:58:28.918839Z,1697803108918
7.36430549621582,5.343873977661133,0.5593833923339844,2023-10-20T11:58:28.928420Z,1697803108928
14.666088104248047,11.606040954589844,0.36090537905693054,2023-10-20T11:58:28.939812Z,1697803108939
20.31805419921875,16.30472755432129,0.15550990402698517,2023-10-20T11:58:28.949837Z,1697803108949
21.08429718017578,16.787221908569336,0.1459318846464157,2023-10-20T11:58:28.960028Z,1697803108960
19.681913375854492,15.462393760681152,0.251822292804718,2023-10-20T11:58:28.969254Z,1697803108969
17.716690063476562,13.693252563476562,0.3946945369243622,2023-10-20T11:58:28.979690Z,1697803108979
15.675239562988281,11.882340431213379,0.5428878664970398,2023-10-20T11:58:28.989507Z,1697803108989
13.728239059448242,10.168539047241211,0.6805720329284668,2023-10-20T11:58:29.000306Z,1697803109000
11.94499683380127,8.607586860656738,0.7988340258598328,2023-10-20T11:58:29.009749Z,1697803109009
10.351319313049316,7.219703674316406,0.892352819442749,2023-10-20T11:58:29.021033Z,1697803109021
8.954922676086426,6.009413719177246,0.9597980976104736,2023-10-20T11:58:29.033432Z,1697803109033
7.752880573272705,4.972326278686523,1.003697395324707,2023-10-20T11:58:29.040818Z,1697803109040
6.730825424194336,4.097400188446045,1.0280416011810303,2023-10-20T11:58:29.050210Z,1697803109050
5.86481237411499,3.3686718940734863,1.0366884469985962,2023-10-20T11:58:29.061313Z,1697803109061
5.128767490386963,2.7671186923980713,1.0312342643737793,2023-10-20T11:58:29.070323Z,1697803109070
4.6839213371276855,2.298194408416748,1.0140736103057861,2023-10-20T11:58:29.083350Z,1697803109083
4.084097385406494,1.8838117122650146,0.9812156558036804,2023-10-20T11:58:29.090832Z,1697803109090
3.569411277770996,1.5433926582336426,0.9359861016273499,2023-10-20T11:58:29.101785Z,1697803109101
3.1169826984405518,1.2561848163604736,0.8810454607009888,2023-10-20T11:58:29.111005Z,1697803109110
2.716035842895508,1.009151577949524,0.8194534182548523,2023-10-20T11:58:29.122127Z,1697803109122
2.3629791736602783,0.7951092720031738,0.7557329535484314,2023-10-20T11:58:29.133258Z,1697803109133
2.055817127227783,0.6098010540008545,0.6948060393333435,2023-10-20T11:58:29.142182Z,1697803109142
1.7966781854629517,0.4538920521736145,0.6395993828773499,2023-10-20T11:58:29.151339Z,1697803109151
1.5894203186035156,0.3320382535457611,0.5902459025382996,2023-10-20T11:58:29.162196Z,1697803109162
1.433245301246643,0.24982686340808868,0.544617235660553,2023-10-20T11:58:29.171669Z,1697803109171
1.3175108432769775,0.20765694975852966,0.5003188848495483,2023-10-20T11:58:29.183625Z,1697803109183
1.2270516157150269,0.20007434487342834,0.4545572102069855,2023-10-20T11:58:29.192313Z,1697803109192
1.1496292352676392,0.21803313493728638,0.4044055938720703,2023-10-20T11:58:29.203031Z,1697803109203
1.07539963722229,0.2475653886795044,0.34893283247947693,2023-10-20T11:58:29.216714Z,1697803109216
0.9970459938049316,0.2749691903591156,0.28960227966308594,2023-10-20T11:58:29.223303Z,1697803109223
0.91230708360672,0.2909325659275055,0.22973962128162384,2023-10-20T11:58:29.232811Z,1697803109232
0.8234442472457886,0.293194055557251,0.17280356585979462,2023-10-20T11:58:29.244177Z,1697803109244
0.7371090054512024,0.285478413105011,0.12118864804506302,2023-10-20T11:58:29.253180Z,1697803109253
0.6578242182731628,0.2739049792289734,0.07689027488231659,2023-10-20T11:58:29.267229Z,1697803109267
0.5861220359802246,0.2656572163105011,0.039110276848077774,2023-10-20T11:58:29.273264Z,1697803109273
0.5204061269760132,0.26858383417129517,0.0035917600616812706,2023-10-20T11:58:29.284114Z,1697803109284
0.45908015966415405,0.2865426540374756,-0.035917602479457855,2023-10-20T11:58:29.293481Z,1697803109293
0.39881840348243713,0.31580883264541626,-0.08327562361955643,2023-10-20T11:58:29.303943Z,1697803109303
0.33456578850746155,0.34560713171958923,-0.1371520310640335,2023-10-20T11:58:29.316905Z,1697803109316
0.2644599676132202,0.3664925694465637,-0.1936889886856079,2023-10-20T11:58:29.324599Z,1697803109324
0.19302384555339813,0.37513938546180725,-0.24823053181171417,2023-10-20T11:58:29.333809Z,1697803109333
0.12611068785190582,0.3716806471347809,-0.29612067341804504,2023-10-20T11:58:29.345275Z,1697803109345
0.06757830083370209,0.35864388942718506,-0.3332355320453644,2023-10-20T11:58:29.354256Z,1697803109354
0.01915605366230011,0.340951144695282,-0.3573136031627655,2023-10-20T11:58:29.366791Z,1697803109366
-0.018357884138822556,0.3249877691268921,-0.3692861497402191,2023-10-20T11:58:29.374678Z,1697803109374
-0.04602774232625961,0.3156757950782776,-0.3720797300338745,2023-10-20T11:58:29.385705Z,1697803109385
-0.06678013503551483,0.31474462151527405,-0.36968523263931274,2023-10-20T11:58:29.394742Z,1697803109394
-0.08420681953430176,0.32073086500167847,-0.3650292456150055,2023-10-20T11:58:29.405969Z,1697803109405
-0.10256470739841461,0.32791438698768616,-0.3589099645614624,2023-10-20T11:58:29.416609Z,1697803109416
-0.12384921312332153,0.33057495951652527,-0.3507952392101288,2023-10-20T11:58:29.425893Z,1697803109425
-0.14619794487953186,0.32578593492507935,-0.340685099363327,2023-10-20T11:58:29.435325Z,1697803109435
-0.16615216434001923,0.31594187021255493,-0.32964375615119934,2023-10-20T11:58:29.445824Z,1697803109445
-0.18251462280750275,0.3047674894332886,-0.31966665387153625,2023-10-20T11:58:29.455417Z,1697803109455
-0.1986110359430313,0.2941252589225769,-0.31301525235176086,2023-10-20T11:58:29.467131Z,1697803109467
-0.21723496913909912,0.28561145067214966,-0.31208404898643494,2023-10-20T11:58:29.476236Z,1697803109476
-0.23905159533023834,0.2826848328113556,-0.31860241293907166,2023-10-20T11:58:29.487168Z,1697803109487
-0.26273059844970703,0.28840503096580505,-0.33283644914627075,2023-10-20T11:58:29.499905Z,1697803109499
-0.2885380685329437,0.30170783400535583,-0.3534558117389679,2023-10-20T11:58:29.507016Z,1697803109506
-0.31687304377555847,0.31846940517425537,-0.37793296575546265,2023-10-20T11:58:29.516695Z,1697803109516
-0.3457401692867279,0.33509790897369385,-0.40467163920402527,2023-10-20T11:58:29.527213Z,1697803109527
-0.3727448880672455,0.3497309982776642,-0.43234148621559143,2023-10-20T11:58:29.536375Z,1697803109536
-0.39655691385269165,0.3617035448551178,-0.4605434536933899,2023-10-20T11:58:29.549873Z,1697803109549
-0.41691023111343384,0.3710155189037323,-0.4896766245365143,2023-10-20T11:58:29.556479Z,1697803109556
-0.43486902117729187,0.3776669204235077,-0.5202730894088745,2023-10-20T11:58:29.567857Z,1697803109567
-0.45256176590919495,0.3809926211833954,-0.5524659156799316,2023-10-20T11:58:29.577034Z,1697803109576
-0.4721169173717499,0.3797953724861145,-0.5867871642112732,2023-10-20T11:58:29.588250Z,1697803109588
-0.49419957399368286,0.37354305386543274,-0.6229708194732666,2023-10-20T11:58:29.599238Z,1697803109599
-0.5170804262161255,0.3621026277542114,-0.6612829566001892,2023-10-20T11:58:29.608045Z,1697803109608
-0.5383649468421936,0.3450750410556793,-0.7018565535545349,2023-10-20T11:58:29.617599Z,1697803109617
-0.5573879480361938,0.322061151266098,-0.7449576258659363,2023-10-20T11:58:29.628848Z,1697803109628
-0.5738834738731384,0.29385918378829956,-0.7899211645126343,2023-10-20T11:58:29.637947Z,1697803109637
-0.5881174802780151,0.2628636360168457,-0.8343525528907776,2023-10-20T11:58:29.649827Z,1697803109649
-0.60048907995224,0.23293229937553406,-0.874660074710846,2023-10-20T11:58:29.658261Z,1697803109658
-0.6123285889625549,0.207523912191391,-0.9073850512504578,2023-10-20T11:58:29.669655Z,1697803109669
-0.6231038570404053,0.1904963105916977,-0.9289355874061584,2023-10-20T11:58:29.678532Z,1697803109678
-0.6310855746269226,0.18451005220413208,-0.9365181922912598,2023-10-20T11:58:29.689571Z,1697803109689
-0.6344112753868103,0.19009722769260406,-0.9281374216079712,2023-10-20T11:58:29.699199Z,1697803109699
-0.6326819062232971,0.20592758059501648,-0.9033941626548767,2023-10-20T11:58:29.709706Z,1697803109709
-0.6258974671363831,0.2288084179162979,-0.8650820851325989,2023-10-20T11:58:29.719245Z,1697803109719
-0.6140579581260681,0.2546158730983734,-0.8167928457260132,2023-10-20T11:58:29.732999Z,1697803109732
-0.5974294543266296,0.2786939740180969,-0.7630494832992554,2023-10-20T11:58:29.739225Z,1697803109739
-0.5770761370658875,0.29771700501441956,-0.707310676574707,2023-10-20T11:58:29.750212Z,1697803109750
-0.5540622472763062,0.30982255935668945,-0.652769148349762,2023-10-20T11:58:29.759680Z,1697803109759
-0.5297181010246277,0.3135473430156708,-0.6024845242500305,2023-10-20T11:58:29.770782Z,1697803109770
-0.5060390830039978,0.30809319019317627,-0.5593833923339844,2023-10-20T11:58:29.782508Z,1697803109782
-0.4846215546131134,0.29346010088920593,-0.5254611968994141,2023-10-20T11:58:29.790642Z,1697803109790
-0.467061847448349,0.2716434895992279,-0.5024473071098328,2023-10-20T11:58:29.799969Z,1697803109799
-0.45362600684165955,0.24503785371780396,-0.4906078279018402,2023-10-20T11:58:29.810880Z,1697803109810
-0.4435158669948578,0.21617074310779572,-0.4894105792045593,2023-10-20T11:58:29.820326Z,1697803109820
-0.43606626987457275,0.18584032356739044,-0.49699318408966064,2023-10-20T11:58:29.833289Z,1697803109833
-0.4307451546192169,0.15351448953151703,-0.5112271904945374,2023-10-20T11:58:29.840543Z,1697803109840
-0.4268873333930969,0.1179959699511528,-0.5289199352264404,2023-10-20T11:58:29.851197Z,1697803109851
-0.42302951216697693,0.07981689274311066,-0.5464796423912048,2023-10-20T11:58:29.860518Z,1697803109860
-0.4177083969116211,0.03964238986372948,-0.560447633266449,2023-10-20T11:58:29.871552Z,1697803109871
-0.4098597466945648,-0.0015963378828018904,-0.5688284039497375,2023-10-20T11:58:29.882831Z,1697803109882
-0.39935052394866943,-0.04270203784108162,-0.5710898637771606,2023-10-20T11:58:29.892190Z,1697803109892
-0.3869788944721222,-0.0823444277048111,-0.5685623288154602,2023-10-20T11:58:29.901312Z,1697803109901
-0.37407517433166504,-0.11906019598245621,-0.5617778897285461,2023-10-20T11:58:29.912253Z,1697803109912
-0.3611714243888855,-0.15191814303398132,-0.5521998405456543,2023-10-20T11:58:29.921185Z,1697803109921
-0.348400741815567,-0.18145039677619934,-0.5407594442367554,2023-10-20T11:58:29.933302Z,1697803109933
-0.3358960747718811,-0.20818905532360077,-0.5290529727935791,2023-10-20T11:58:29.942017Z,1697803109941
-0.3249877691268921,-0.2338634878396988,-0.5193418860435486,2023-10-20T11:58:29.953405Z,1697803109953
-0.3176712393760681,-0.2608681917190552,-0.514552891254425,2023-10-20T11:58:29.965948Z,1697803109965
-0.31540974974632263,-0.29252889752388,-0.5170804262161255,2023-10-20T11:58:29.973060Z,1697803109973
-0.31807032227516174,-0.3321712911128998,-0.5290529727935791,2023-10-20T11:58:29.982502Z,1697803109982
-0.3249877691268921,-0.38272199034690857,-0.5521998405456543,2023-10-20T11:58:29.993346Z,1697803109993
-0.3348318636417389,-0.44710761308670044,-0.5862550735473633,2023-10-20T11:58:30.002224Z,1697803110002
-0.3469374179840088,-0.5255942344665527,-0.6273607611656189,2023-10-20T11:58:30.016884Z,1697803110016
-0.359575092792511,-0.6127276420593262,-0.6655398607254028,2023-10-20T11:58:30.022899Z,1697803110022
-0.37061643600463867,-0.6956042051315308,-0.6884207129478455,2023-10-20T11:58:30.034362Z,1697803110034
-0.3797953724861145,-0.7540035843849182,-0.6856271028518677,2023-10-20T11:58:30.043099Z,1697803110043
-0.389107346534729,-0.7681045532226562,-0.6539663672447205,2023-10-20T11:58:30.054200Z,1697803110054
-0.40201106667518616,-0.730058491230011,-0.600089967250824,2023-10-20T11:58:30.065679Z,1697803110065
-0.4203689694404602,-0.6461177468299866,-0.5353052616119385,2023-10-20T11:58:30.074144Z,1697803110074
-0.4436488747596741,-0.5342410802841187,-0.4691902995109558,2023-10-20T11:58:30.083660Z,1697803110083
-0.4687912166118622,-0.4127863645553589,-0.40533676743507385,2023-10-20T11:58:30.094598Z,1697803110094
-0.4894105792045593,-0.29558855295181274,-0.3412172198295593,2023-10-20T11:58:30.104046Z,1697803110104
-0.4973922669887543,-0.19142751395702362,-0.2735058665275574,2023-10-20T11:58:30.115862Z,1697803110115
-0.4851536750793457,-0.1037619560956955,-0.19728074967861176,2023-10-20T11:58:30.124024Z,1697803110123
-0.4500342309474945,-0.03352309390902519,-0.1086840033531189,2023-10-20T11:58:30.135088Z,1697803110135
-0.39482754468917847,0.022215701639652252,-0.00864682998508215,2023-10-20T11:58:30.144452Z,1697803110144
-0.3272492587566376,0.06731224805116653,0.09484907239675522,2023-10-20T11:58:30.155533Z,1697803110155
-0.25661131739616394,0.0999041423201561,0.18650546669960022,2023-10-20T11:58:30.165641Z,1697803110165
-0.19102843105793,0.11227575689554214,0.25062504410743713,2023-10-20T11:58:30.175674Z,1697803110175
-0.1487254798412323,0.10402801632881165,0.2540837824344635,2023-10-20T11:58:30.185207Z,1697803110185
-0.1081518903374672,0.05693604797124863,0.23745524883270264,2023-10-20T11:58:30.199101Z,1697803110199
-0.0702388659119606,-0.022082673385739326,0.20260187983512878,2023-10-20T11:58:30.205764Z,1697803110205
-0.0570690780878067,-0.10788583010435104,0.11453723907470703,2023-10-20T11:58:30.216745Z,1697803110216
-0.05094978213310242,-0.20127159357070923,0.00944499857723713,2023-10-20T11:58:30.225555Z,1697803110225
-0.04762407764792442,-0.29385918378829956,-0.10110139846801758,2023-10-20T11:58:30.236756Z,1697803110236
-0.0433671772480011,-0.3793962895870209,-0.20592758059501648,2023-10-20T11:58:30.249027Z,1697803110248
-0.03418823331594467,-0.4526948034763336,-0.2946573495864868,2023-10-20T11:58:30.256885Z,1697803110256
-0.017426688224077225,-0.5105620622634888,-0.36196959018707275,2023-10-20T11:58:30.265616Z,1697803110265
0.007316548377275467,-0.5512686371803284,-0.4073322117328644,2023-10-20T11:58:30.276566Z,1697803110276
0.03791302442550659,-0.5753467679023743,-0.43380481004714966,2023-10-20T11:58:30.286400Z,1697803110286
0.07156914472579956,-0.5849247574806213,-0.4439149498939514,2023-10-20T11:58:30.298724Z,1697803110298
0.1053582951426506,-0.581865131855011,-0.4400571286678314,2023-10-20T11:58:30.306854Z,1697803110306
0.13701899349689484,-0.566832959651947,-0.42449283599853516,2023-10-20T11:58:30.318017Z,1697803110317
0.16615216434001923,-0.5394291281700134,-0.39921748638153076,2023-10-20T11:58:30.326684Z,1697803110326
0.19275778532028198,-0.5001858472824097,-0.36516228318214417,2023-10-20T11:58:30.337831Z,1697803110337
0.21710194647312164,-0.4512314796447754,-0.32192811369895935,2023-10-20T11:58:30.348726Z,1697803110348
0.24051490426063538,-0.39376333355903625,-0.2684507966041565,2023-10-20T11:58:30.358024Z,1697803110358
0.26366180181503296,-0.3288455903530121,-0.20606060326099396,2023-10-20T11:58:30.367218Z,1697803110367
0.28627657890319824,-0.2580746114253998,-0.1383492797613144,2023-10-20T11:58:30.382325Z,1697803110382
0.30649685859680176,-0.18477609753608704,-0.07143611460924149,2023-10-20T11:58:30.388121Z,1697803110388
0.32232722640037537,-0.11240878701210022,-0.010775280185043812,2023-10-20T11:58:30.399070Z,1697803110399
0.3327034115791321,-0.04416534677147865,0.0395093597471714,2023-10-20T11:58:30.408178Z,1697803110408
0.33722636103630066,0.016495490446686745,0.07715632766485214,2023-10-20T11:58:30.419255Z,1697803110419
0.33616214990615845,0.06611499190330505,0.10163351148366928,2023-10-20T11:58:30.427909Z,1697803110427
0.33057495951652527,0.10256470739841461,0.11333998292684555,2023-10-20T11:58:30.438967Z,1697803110438
0.322061151266098,0.12597766518592834,0.11373907327651978,2023-10-20T11:58:30.448702Z,1697803110448
0.2942582666873932,0.12478040903806686,0.10322984308004379,2023-10-20T11:58:30.459379Z,1697803110459
0.28561145067214966,0.12930336594581604,0.08899583667516708,2023-10-20T11:58:30.468708Z,1697803110468
0.2782948911190033,0.13316118717193604,0.07675724476575851,2023-10-20T11:58:30.482784Z,1697803110482
0.2695150375366211,0.12983547151088715,0.05693604797124863,2023-10-20T11:58:30.489499Z,1697803110489
0.2776297628879547,0.13422539830207825,0.03205978497862816,2023-10-20T11:58:30.499782Z,1697803110499
0.2660562992095947,0.1257116049528122,0.006917464081197977,2023-10-20T11:58:30.509448Z,1697803110509
0.2512901723384857,0.11001428216695786,-0.023679010570049286,2023-10-20T11:58:30.520139Z,1697803110520
0.2326662391424179,0.08686738461256027,-0.06079386547207832,2023-10-20T11:58:30.531916Z,1697803110531
0.2091202586889267,0.05986266955733299,-0.10456012934446335,2023-10-20T11:58:30.540612Z,1697803110540
0.1805192083120346,0.03325703740119934,-0.15338145196437836,2023-10-20T11:58:30.549089Z,1697803110549
0.14752821624279022,0.00864682998508215,-0.20286792516708374,2023-10-20T11:58:30.560822Z,1697803110560
0.11240878701210022,-0.012637674808502197,-0.24783144891262054,2023-10-20T11:58:30.569540Z,1697803110569
0.07728935778141022,-0.02860105223953724,-0.28507933020591736,2023-10-20T11:58:30.582432Z,1697803110582
0.043500207364559174,-0.03698182478547096,-0.3134143352508545,2023-10-20T11:58:30.590468Z,1697803110590
0.012105561792850494,-0.037513937801122665,-0.3315061628818512,2023-10-20T11:58:30.601091Z,1697803110601
-0.0025275349617004395,-0.033124011009931564,-0.31314826011657715,2023-10-20T11:58:30.610530Z,1697803110610
-0.029000137001276016,-0.017958801239728928,-0.3090243935585022,2023-10-20T11:58:30.621715Z,1697803110621
-0.05148189514875412,-0.004922041669487953,-0.30556565523147583,2023-10-20T11:58:30.632161Z,1697803110632
-0.06877555698156357,0.019555138424038887,-0.2761664390563965,2023-10-20T11:58:30.641743Z,1697803110641
-0.08354167640209198,0.04057358577847481,-0.25115716457366943,2023-10-20T11:58:30.650654Z,1697803110650
-0.09405090659856796,0.05906450003385544,-0.2151065170764923,2023-10-20T11:58:30.661867Z,1697803110661
-0.10296379029750824,0.07502787560224533,-0.18424399197101593,2023-10-20T11:58:30.671584Z,1697803110671
-0.10828491300344467,0.07276640087366104,-0.16216132044792175,2023-10-20T11:58:30.682181Z,1697803110682
-0.11280786991119385,0.07103703171014786,-0.1432713270187378,2023-10-20T11:58:30.691624Z,1697803110691
-0.11866111308336258,0.03990844637155533,-0.15085391700267792,2023-10-20T11:58:30.702201Z,1697803110702
-0.137285053730011,-0.0034587320405989885,-0.17799167335033417,2023-10-20T11:58:30.715300Z,1697803110715
-0.14500068128108978,-0.037247881293296814,-0.19289082288742065,2023-10-20T11:58:30.723262Z,1697803110723
-0.15205118060112,-0.06345442682504654,-0.20060645043849945,2023-10-20T11:58:30.731892Z,1697803110731
-0.14367040991783142,-0.06850949674844742,-0.18690454959869385,2023-10-20T11:58:30.743235Z,1697803110743
-0.14939060807228088,-0.06837646663188934,-0.17280356585979462,2023-10-20T11:58:30.752143Z,1697803110752
-0.15431265532970428,-0.06824344396591187,-0.16056497395038605,2023-10-20T11:58:30.765746Z,1697803110765
-0.15178512036800385,-0.04177083820104599,-0.1267758309841156,2023-10-20T11:58:30.772903Z,1697803110772
-0.14965666830539703,-0.019289081916213036,-0.09777569025754929,2023-10-20T11:58:30.783552Z,1697803110783
-0.14633096754550934,0.007715632673352957,-0.06757830083370209,2023-10-20T11:58:30.793107Z,1697803110793
-0.14340434968471527,0.0307295024394989,-0.041637811809778214,2023-10-20T11:58:30.803535Z,1697803110803
-0.14393645524978638,0.052280064672231674,-0.024876264855265617,2023-10-20T11:58:30.815328Z,1697803110815
-0.14433553814888,0.07063794881105423,-0.010642251931130886,2023-10-20T11:58:30.824087Z,1697803110824
-0.13622082769870758,0.07875266671180725,-0.0029266192577779293,2023-10-20T11:58:30.833216Z,1697803110833
-0.12917032837867737,0.08553709834814072,0.0037247883155941963,2023-10-20T11:58:30.844120Z,1697803110844
-0.11028033494949341,0.0730324536561966,0.003059647511690855,2023-10-20T11:58:30.853232Z,1697803110853
-0.09418392926454544,0.06239020451903343,0.0026605629827827215,2023-10-20T11:58:30.865954Z,1697803110865
-0.07822055369615555,0.036582741886377335,0.01982119493186474,2023-10-20T11:58:30.873974Z,1697803110873
-0.06451865285634995,0.014500068500638008,0.0345873199403286,2023-10-20T11:58:30.885014Z,1697803110884
-0.04922041669487953,0.0172936599701643,0.06079386547207832,2023-10-20T11:58:30.893757Z,1697803110893
-0.03578457236289978,0.031527671962976456,0.0999041423201561,2023-10-20T11:58:30.904979Z,1697803110904
-0.030064363032579422,0.038711193948984146,0.10189956426620483,2023-10-20T11:58:30.915268Z,1697803110915
-0.037513937801122665,0.05400943011045456,0.09298668056726456,2023-10-20T11:58:30.925190Z,1697803110925
-0.043766263872385025,0.06704618781805038,0.08540407568216324,2023-10-20T11:58:30.934533Z,1697803110934
-0.06771133095026016,0.04296809434890747,0.023146897554397583,2023-10-20T11:58:30.949017Z,1697803110948
-0.10349590331315994,-0.00611929502338171,-0.07130309194326401,2023-10-20T11:58:30.955041Z,1697803110955
-0.11812900006771088,-0.07449576258659363,-0.15178512036800385,2023-10-20T11:58:30.966260Z,1697803110966
-0.12717491388320923,-0.14939060807228088,-0.22973962128162384,2023-10-20T11:58:30.975322Z,1697803110975
-0.1289042830467224,-0.2145744115114212,-0.2902674376964569,2023-10-20T11:58:30.985985Z,1697803110985
-0.1223858967423439,-0.259537935256958,-0.3237905204296112,2023-10-20T11:58:30.998375Z,1697803110998
-0.11174365133047104,-0.28348299860954285,-0.33403369784355164,2023-10-20T11:58:31.006445Z,1697803111006
-0.10189956426620483,-0.29159772396087646,-0.3313731253147125,2023-10-20T11:58:31.016087Z,1697803111016
-0.09511512517929077,-0.28787291049957275,-0.32299235463142395,2023-10-20T11:58:31.026700Z,1697803111026
-0.09032611548900604,-0.274570107460022,-0.31155192852020264,2023-10-20T11:58:31.036101Z,1697803111036
-0.08646830171346664,-0.2547489106655121,-0.2990472912788391,2023-10-20T11:58:31.048937Z,1697803111048
-0.08460590243339539,-0.2354598343372345,-0.2904004454612732,2023-10-20T11:58:31.056559Z,1697803111056
-0.08646830171346664,-0.22521665692329407,-0.2898683547973633,2023-10-20T11:58:31.067422Z,1697803111067
-0.09298668056726456,-0.22814327478408813,-0.30037757754325867,2023-10-20T11:58:31.077026Z,1697803111076
-0.1037619560956955,-0.2437075674533844,-0.322061151266098,2023-10-20T11:58:31.087348Z,1697803111087
-0.11866111308336258,-0.2693819999694824,-0.3535888195037842,2023-10-20T11:58:31.097971Z,1697803111097
-0.1378171592950821,-0.30410236120224,-0.3936302959918976,2023-10-20T11:58:31.107733Z,1697803111107
-0.1608310341835022,-0.3458732068538666,-0.43992409110069275,2023-10-20T11:58:31.117395Z,1697803111117
-0.18623940646648407,-0.3903045952320099,-0.4883463382720947,2023-10-20T11:58:31.127969Z,1697803111127
-0.21257898211479187,-0.4302130341529846,-0.532777726650238,2023-10-20T11:58:31.137241Z,1697803111137
-0.23918461799621582,-0.4582819938659668,-0.5676311254501343,2023-10-20T11:58:31.148727Z,1697803111148
-0.26579025387763977,-0.4697223901748657,-0.5889156460762024,2023-10-20T11:58:31.157508Z,1697803111157
-0.29252889752388,-0.46360310912132263,-0.5946358442306519,2023-10-20T11:58:31.168936Z,1697803111168
-0.31966665387153625,-0.4419195353984833,-0.5857229828834534,2023-10-20T11:58:31.181377Z,1697803111181
-0.34826770424842834,-0.40746521949768066,-0.566832959651947,2023-10-20T11:58:31.188808Z,1697803111188
-0.3792632520198822,-0.3648962080478668,-0.5451493859291077,2023-10-20T11:58:31.198147Z,1697803111198
-0.4126533269882202,-0.3205978572368622,-0.5282548069953918,2023-10-20T11:58:31.209054Z,1697803111209
-0.44843789935112,-0.2820196747779846,-0.5230666995048523,2023-10-20T11:58:31.218290Z,1697803111218
-0.48821333050727844,-0.2563452422618866,-0.5349062085151672,2023-10-20T11:58:31.232308Z,1697803111232
-0.5322456359863281,-0.24769842624664307,-0.5657687187194824,2023-10-20T11:58:31.238969Z,1697803111238
-0.5792045593261719,-0.25647827982902527,-0.6135258078575134,2023-10-20T11:58:31.249409Z,1697803111249
-0.6252323389053345,-0.2772306799888611,-0.6725903153419495,2023-10-20T11:58:31.258560Z,1697803111258
-0.6676682829856873,-0.30277207493782043,-0.7361778020858765,2023-10-20T11:58:31.269427Z,1697803111269
-0.7061134576797485,-0.32911163568496704,-0.7984349727630615,2023-10-20T11:58:31.279684Z,1697803111279
-0.7420310378074646,-0.35704755783081055,-0.8561691641807556,2023-10-20T11:58:31.289834Z,1697803111289
-0.7759532332420349,-0.3873779773712158,-0.9075180292129517,2023-10-20T11:58:31.299530Z,1697803111299
-0.8078799843788147,-0.41744235157966614,-0.9510182738304138,2023-10-20T11:58:31.310635Z,1697803111310
-0.8375452160835266,-0.44431403279304504,-0.9862707257270813,2023-10-20T11:58:31.319631Z,1697803111319
-0.8644169569015503,-0.46666276454925537,-1.0134084224700928,2023-10-20T11:58:31.332200Z,1697803111332
-0.8874307870864868,-0.48541972041130066,-1.0322984457015991,2023-10-20T11:58:31.340063Z,1697803111340
-0.9055226445198059,-0.5016491413116455,-1.0422755479812622,2023-10-20T11:58:31.351219Z,1697803111351
-0.9176281690597534,-0.5161492228507996,-1.0426746606826782,2023-10-20T11:58:31.360446Z,1697803111360
-0.9236144423484802,-0.529984176158905,-1.0338947772979736,2023-10-20T11:58:31.371074Z,1697803111371
-0.9233484268188477,-0.5438190698623657,-1.0176653861999512,2023-10-20T11:58:31.381427Z,1697803111381
-0.9173621535301208,-0.559516429901123,-0.9963808655738831,2023-10-20T11:58:31.391903Z,1697803111391
-0.9071189761161804,-0.5796036720275879,-0.9723027348518372,2023-10-20T11:58:31.400848Z,1697803111400
-0.8942152261734009,-0.6055441498756409,-0.9470273852348328,2023-10-20T11:58:31.411415Z,1697803111411
-0.8815775513648987,-0.6378700137138367,-0.9214860200881958,2023-10-20T11:58:31.421137Z,1697803111421
-0.8712013959884644,-0.674984872341156,-0.8958115577697754,2023-10-20T11:58:31.431996Z,1697803111431
-0.8638848066329956,-0.7140951156616211,-0.8684077858924866,2023-10-20T11:58:31.441380Z,1697803111441
-0.8593618869781494,-0.752274215221405,-0.836880087852478,2023-10-20T11:58:31.451938Z,1697803111451
-0.8565682768821716,-0.7869945764541626,-0.7981688976287842,2023-10-20T11:58:31.465358Z,1697803111465
-0.8552379608154297,-0.815462589263916,-0.7516090869903564,2023-10-20T11:58:31.472454Z,1697803111472
-0.855903148651123,-0.8387424945831299,-0.6991959810256958,2023-10-20T11:58:31.481353Z,1697803111481
-0.8598939776420593,-0.8608251810073853,-0.644122302532196,2023-10-20T11:58:31.492913Z,1697803111492
-0.8674765825271606,-0.8849032521247864,-0.5893146991729736,2023-10-20T11:58:31.501710Z,1697803111501
-0.8777197599411011,-0.9120410084724426,-0.5367686152458191,2023-10-20T11:58:31.515092Z,1697803111515
-0.889559268951416,-0.9410411715507507,-0.48608487844467163,2023-10-20T11:58:31.522627Z,1697803111522
-0.9025959968566895,-0.9707064032554626,-0.4351350963115692,2023-10-20T11:58:31.534196Z,1697803111534
-0.9161648750305176,-0.9978441596031189,-0.38112565875053406,2023-10-20T11:58:31.542905Z,1697803111542
-0.9288025498390198,-1.019527792930603,-0.3221941888332367,2023-10-20T11:58:31.553580Z,1697803111553
-0.9394447803497314,-1.0374865531921387,-0.25873976945877075,2023-10-20T11:58:31.564962Z,1697803111564
-0.948623776435852,-1.0537159442901611,-0.19169357419013977,2023-10-20T11:58:31.573788Z,1697803111573
-0.9576696753501892,-1.070610523223877,-0.12371618300676346,2023-10-20T11:58:31.582970Z,1697803111582
-0.9684449434280396,-1.0921611785888672,-0.05933055654168129,2023-10-20T11:58:31.593773Z,1697803111593
-0.982279896736145,-1.1202300786972046,-0.003325703786686063,2023-10-20T11:58:31.603562Z,1697803111603
-0.9994404911994934,-1.1524229049682617,0.04323415085673332,2023-10-20T11:58:31.615145Z,1697803111615
-1.0196608304977417,-1.1846157312393188,0.08207836747169495,2023-10-20T11:58:31.624433Z,1697803111624
-1.0440049171447754,-1.2162764072418213,0.11493632197380066,2023-10-20T11:58:31.634774Z,1697803111634
-1.0726059675216675,-1.2479370832443237,0.14287222921848297,2023-10-20T11:58:31.648173Z,1697803111648
-1.1041336059570312,-1.277868390083313,0.1673494130373001,2023-10-20T11:58:31.654644Z,1697803111654
-1.1369916200637817,-1.305538296699524,0.19116145372390747,2023-10-20T11:58:31.664748Z,1697803111664
-1.1706477403640747,-1.3321439027786255,0.21670286357402802,2023-10-20T11:58:31.675395Z,1697803111675
-1.204569935798645,-1.3576853275299072,0.2463681399822235,2023-10-20T11:58:31.684720Z,1697803111684
-1.2375608682632446,-1.3801671266555786,0.2821527123451233,2023-10-20T11:58:31.698319Z,1697803111698
-1.269088625907898,-1.3989239931106567,0.3243226408958435,2023-10-20T11:58:31.705005Z,1697803111704
-1.2999510765075684,-1.4147543907165527,0.3732770085334778,2023-10-20T11:58:31.715570Z,1697803111715
-1.3316117525100708,-1.4279241561889648,0.42781853675842285,2023-10-20T11:58:31.725267Z,1697803111725
-1.3664652109146118,-1.4388325214385986,0.48595184087753296,2023-10-20T11:58:31.736142Z,1697803111736
-1.405043363571167,-1.4473463296890259,0.545016348361969,2023-10-20T11:58:31.748060Z,1697803111748
-1.4472132921218872,-1.4545297622680664,0.6023514866828918,2023-10-20T11:58:31.756343Z,1697803111756
-1.4927089214324951,-1.4621124267578125,0.6567599773406982,2023-10-20T11:58:31.765332Z,1697803111765
-1.5423283576965332,-1.4711583852767944,0.7101042866706848,2023-10-20T11:58:31.776464Z,1697803111776
-1.5963377952575684,-1.4800711870193481,0.7662421464920044,2023-10-20T11:58:31.785892Z,1697803111785
-1.6532738208770752,-1.487387776374817,0.8294305205345154,2023-10-20T11:58:31.798062Z,1697803111798
-1.7112741470336914,-1.4929749965667725,0.903261125087738,2023-10-20T11:58:31.806572Z,1697803111806
-1.7695404291152954,-1.496566653251648,0.989596426486969,2023-10-20T11:58:31.817488Z,1697803111817
-1.8275407552719116,-1.496965765953064,1.0893675088882446,2023-10-20T11:58:31.825939Z,1697803111825
-1.8850089311599731,-1.494571328163147,1.20097815990448,2023-10-20T11:58:31.837471Z,1697803111837
-1.9410138130187988,-1.4908465147018433,1.3216346502304077,2023-10-20T11:58:31.847881Z,1697803111847
-1.994225025177002,-1.4876538515090942,1.4468141794204712,2023-10-20T11:58:31.857069Z,1697803111857
-2.0447757244110107,-1.486323595046997,1.5715945959091187,2023-10-20T11:58:31.866464Z,1697803111866
-2.0934641361236572,-1.487387776374817,1.691985011100769,2023-10-20T11:58:31.877263Z,1697803111877
-2.1409549713134766,-1.4907134771347046,1.8081187009811401,2023-10-20T11:58:31.886806Z,1697803111886
-2.18485426902771,-1.4943052530288696,1.923720121383667,2023-10-20T11:58:31.897970Z,1697803111897
-2.2227673530578613,-1.497763991355896,2.0417160987854004,2023-10-20T11:58:31.907534Z,1697803111907
-2.2530977725982666,-1.5016217231750488,2.161973476409912,2023-10-20T11:58:31.918353Z,1697803111918
-2.275845527648926,-1.507341980934143,2.2819650173187256,2023-10-20T11:58:31.930983Z,1697803111930
-2.292208194732666,-1.5167869329452515,2.398763656616211,2023-10-20T11:58:31.938390Z,1697803111938
-2.302983283996582,-1.530222773551941,2.510108232498169,2023-10-20T11:58:31.947903Z,1697803111947
-2.307905435562134,-1.5463192462921143,2.614668369293213,2023-10-20T11:58:31.959006Z,1697803111958
-2.3084375858306885,-1.561883568763733,2.7129762172698975,2023-10-20T11:58:31.968324Z,1697803111968
-2.308171510696411,-1.5741220712661743,2.807293176651001,2023-10-20T11:58:31.981142Z,1697803111981
-2.3095016479492188,-1.581438660621643,2.90107798576355,2023-10-20T11:58:31.988573Z,1697803111988
-2.311763286590576,-1.5839662551879883,2.9968581199645996,2023-10-20T11:58:31.999293Z,1697803111999
-2.311896324157715,-1.5807734727859497,3.0938358306884766,2023-10-20T11:58:32.008898Z,1697803112008
-2.308969736099243,-1.5702643394470215,3.1874876022338867,2023-10-20T11:58:32.019300Z,1697803112019
-2.305111885070801,-1.5497779846191406,3.270231008529663,2023-10-20T11:58:32.030514Z,1697803112030
-2.3016531467437744,-1.5170530080795288,3.3352818489074707,2023-10-20T11:58:32.039662Z,1697803112039
-2.2999236583709717,-1.4682316780090332,3.378782033920288,2023-10-20T11:58:32.049481Z,1697803112049
-2.3000566959381104,-1.3993231058120728,3.4013967514038086,2023-10-20T11:58:32.060427Z,1697803112060
-2.3027172088623047,-1.3088639974594116,3.407649040222168,2023-10-20T11:58:32.070216Z,1697803112070
-2.3071072101593018,-1.2003129720687866,3.4027271270751953,2023-10-20T11:58:32.082136Z,1697803112082
-2.311098098754883,-1.080055594444275,3.390089511871338,2023-10-20T11:58:32.089824Z,1697803112089
-2.312162399291992,-0.9547430276870728,3.369603157043457,2023-10-20T11:58:32.101431Z,1697803112101
-2.30830454826355,-0.8294305205345154,3.3368780612945557,2023-10-20T11:58:32.109787Z,1697803112109
-2.298194408416748,-0.7070446014404297,3.2852632999420166,2023-10-20T11:58:32.120888Z,1697803112120
-2.2805016040802,-0.589580774307251,3.2079739570617676,2023-10-20T11:58:32.131041Z,1697803112131
-2.254561185836792,-0.477970153093338,3.1014182567596436,2023-10-20T11:58:32.141350Z,1697803112141
-2.2219691276550293,-0.37247881293296814,2.965463638305664,2023-10-20T11:58:32.150353Z,1697803112150
-2.1845881938934326,-0.27257469296455383,2.804100513458252,2023-10-20T11:58:32.165095Z,1697803112165
-2.14361572265625,-0.1789228618144989,2.625842809677124,2023-10-20T11:58:32.171594Z,1697803112171
-2.098785161972046,-0.09431695938110352,2.4414656162261963,2023-10-20T11:58:32.182277Z,1697803112182
-2.049830913543701,-0.021284503862261772,2.2616117000579834,2023-10-20T11:58:32.191198Z,1697803112191
-1.9962204694747925,0.040307529270648956,2.0933310985565186,2023-10-20T11:58:32.201986Z,1697803112201
-1.937954068183899,0.0921885073184967,1.9394174814224243,2023-10-20T11:58:32.214336Z,1697803112214
-1.876894235610962,0.1367529332637787,1.8000038862228394,2023-10-20T11:58:32.222560Z,1697803112222
-1.815967321395874,0.17533110082149506,1.6734941005706787,2023-10-20T11:58:32.231633Z,1697803112231
-1.7566367387771606,0.2063266634941101,1.5577596426010132,2023-10-20T11:58:32.242678Z,1697803112242
-1.697838306427002,0.2266799658536911,1.4516031742095947,2023-10-20T11:58:32.251793Z,1697803112251
-1.6385077238082886,0.23306532204151154,1.3547587394714355,2023-10-20T11:58:32.265083Z,1697803112265
-1.5797092914581299,0.22628088295459747,1.2674921751022339,2023-10-20T11:58:32.272267Z,1697803112272
-1.5235713720321655,0.21031750738620758,1.189537763595581,2023-10-20T11:58:32.283012Z,1697803112282
-1.4712913036346436,0.18983116745948792,1.121427297592163,2023-10-20T11:58:32.292644Z,1697803112292
-1.4230021238327026,0.16828061640262604,1.0630279779434204,2023-10-20T11:58:32.302922Z,1697803112302
-1.3795019388198853,0.14939060807228088,1.0135414600372314,2023-10-20T11:58:32.314436Z,1697803112314
-1.3402585983276367,0.1355556845664978,0.9728348851203918,2023-10-20T11:58:32.323583Z,1697803112323
-1.3042080402374268,0.12637674808502197,0.941839337348938,2023-10-20T11:58:32.332996Z,1697803112332
-1.270019769668579,0.11932624876499176,0.9210869073867798,2023-10-20T11:58:32.343681Z,1697803112343
-1.2392902374267578,0.11161062121391296,0.9099125862121582,2023-10-20T11:58:32.352832Z,1697803112352
-1.213748812675476,0.10163351148366928,0.907784104347229,2023-10-20T11:58:32.364778Z,1697803112364
-1.1932625770568848,0.0877985805273056,0.9140364527702332,2023-10-20T11:58:32.373049Z,1697803112373
-1.1753036975860596,0.06957372277975082,0.9270731806755066,2023-10-20T11:58:32.384885Z,1697803112384
-1.156280755996704,0.045362599194049835,0.9437016844749451,2023-10-20T11:58:32.397253Z,1697803112397
-1.1343311071395874,0.012504646554589272,0.9603302478790283,2023-10-20T11:58:32.404666Z,1697803112404
-1.1099869012832642,-0.030330419540405273,0.974564254283905,2023-10-20T11:58:32.414030Z,1697803112413
-1.0853767395019531,-0.08074808865785599,0.985073447227478,2023-10-20T11:58:32.425200Z,1697803112425
-1.0622297525405884,-0.1350235790014267,0.9926560521125793,2023-10-20T11:58:32.434265Z,1697803112434
-1.0424085855484009,-0.19102843105793,1.0017019510269165,2023-10-20T11:58:32.447815Z,1697803112447
-1.0280416011810303,-0.25115716457366943,1.0211241245269775,2023-10-20T11:58:32.454801Z,1697803112454
-1.019128680229187,-0.322726309299469,1.063161015510559,2023-10-20T11:58:32.465099Z,1697803112465
-1.0135414600372314,-0.4191717207431793,1.1405833959579468,2023-10-20T11:58:32.474621Z,1697803112474
-1.00955069065094,-0.5607136487960815,1.2623041868209839,2023-10-20T11:58:32.486398Z,1697803112486
-1.005958914756775,-0.7755541205406189,1.4284563064575195,2023-10-20T11:58:32.497314Z,1697803112497
-0.9999726414680481,-1.0977482795715332,1.6298608779907227,2023-10-20T11:58:32.505904Z,1697803112505
-0.9873349666595459,-1.568668007850647,1.846829891204834,2023-10-20T11:58:32.515322Z,1697803112515
-0.9657843708992004,-2.235671043395996,2.049830913543701,2023-10-20T11:58:32.530374Z,1697803112530
-0.9386466145515442,-3.139730453491211,2.2010838985443115,2023-10-20T11:58:32.535233Z,1697803112535
-0.9209538698196411,-4.299070835113525,2.2608134746551514,2023-10-20T11:58:32.547541Z,1697803112547
-0.9409081339836121,-5.381520748138428,2.178468942642212,2023-10-20T11:58:32.556117Z,1697803112556
-1.0412113666534424,-6.647416591644287,1.9940919876098633,2023-10-20T11:58:32.566458Z,1697803112566
-1.24421226978302,-7.773766040802002,1.716462254524231,2023-10-20T11:58:32.576043Z,1697803112576
-1.5316861867904663,-8.576990127563477,1.417414903640747,2023-10-20T11:58:32.587078Z,1697803112587
-1.842839002609253,-8.947473526000977,1.1753036975860596,2023-10-20T11:58:32.597206Z,1697803112597
-2.1076979637145996,-8.888808250427246,1.0342938899993896,2023-10-20T11:58:32.607025Z,1697803112606
-2.280634641647339,-8.485466957092285,0.9987753629684448,2023-10-20T11:58:32.616435Z,1697803112616
-2.347547769546509,-7.848527908325195,1.0537159442901611,2023-10-20T11:58:32.627196Z,1697803112627
-2.316153049468994,-7.084680080413818,1.1775652170181274,2023-10-20T11:58:32.636883Z,1697803112636
-2.2064049243927,-6.277332305908203,1.3466439247131348,2023-10-20T11:58:32.647670Z,1697803112647
-2.045440912246704,-5.477434158325195,1.5392687320709229,2023-10-20T11:58:32.657613Z,1697803112657
-1.8733024597167969,-4.918982028961182,1.749054193496704,2023-10-20T11:58:32.668925Z,1697803112668
-1.6804115772247314,-4.114959716796875,1.94194495677948,2023-10-20T11:58:32.680113Z,1697803112680
-1.4978970289230347,-3.4009976387023926,2.1096935272216797,2023-10-20T11:58:32.688554Z,1697803112688
-1.3374650478363037,-2.776031494140625,2.240992307662964,2023-10-20T11:58:32.697501Z,1697803112697
-1.2129507064819336,-2.2326114177703857,2.326263189315796,2023-10-20T11:58:32.708840Z,1697803112708
-1.1407164335250854,-1.7554395198822021,2.349543333053589,2023-10-20T11:58:32.717609Z,1697803112717
-1.1345970630645752,-1.327354907989502,2.2903456687927246,2023-10-20T11:58:32.730363Z,1697803112730
-1.2015103101730347,-0.9298667907714844,2.1323082447052,2023-10-20T11:58:32.738482Z,1697803112738
-1.3434512615203857,-0.5466126799583435,1.8766281604766846,2023-10-20T11:58:32.749211Z,1697803112749
-1.5527045726776123,-0.17253752052783966,1.567470669746399,2023-10-20T11:58:32.758464Z,1697803112758
-1.8125085830688477,0.19289082288742065,1.3121896982192993,2023-10-20T11:58:32.770036Z,1697803112770
-2.0912024974823,0.5577870607376099,1.1384549140930176,2023-10-20T11:58:32.780283Z,1697803112780
-2.349942207336426,0.9401099681854248,0.6243011355400085,2023-10-20T11:58:32.789154Z,1697803112789
-2.480043888092041,1.3516989946365356,-0.2591388523578644,2023-10-20T11:58:32.798590Z,1697803112798
-2.3740203380584717,1.7853708267211914,-1.1534870862960815,2023-10-20T11:58:32.809403Z,1697803112809
-2.246446371078491,2.196959972381592,-2.010986566543579,2023-10-20T11:58:32.818679Z,1697803112818
-2.173680067062378,2.5242092609405518,-2.765123128890991,2023-10-20T11:58:32.830646Z,1697803112830
-2.0120508670806885,2.721889019012451,-3.362020492553711,2023-10-20T11:58:32.840011Z,1697803112839
-1.7805818319320679,2.76525616645813,-3.7724123001098633,2023-10-20T11:58:32.850356Z,1697803112850
-1.5218420028686523,2.6058883666992188,-3.992440938949585,2023-10-20T11:58:32.864011Z,1697803112863
-1.3294833898544312,2.165166139602661,-4.052436828613281,2023-10-20T11:58:32.870907Z,1697803112870
-1.3181759119033813,1.4614472389221191,-4.038335800170898,2023-10-20T11:58:32.879995Z,1697803112879
-1.5362091064453125,0.671393096446991,-4.051239490509033,2023-10-20T11:58:32.890795Z,1697803112890
-1.9092199802398682,0.0172936599701643,-4.138772010803223,2023-10-20T11:58:32.900379Z,1697803112900
-1.7654166221618652,-0.42289650440216064,-4.263419151306152,2023-10-20T11:58:32.914313Z,1697803112914
-1.6436958312988281,-0.7361778020858765,-4.344566345214844,2023-10-20T11:58:32.921100Z,1697803112921
-2.083087921142578,-0.6566269397735596,-4.337382793426514,2023-10-20T11:58:32.931143Z,1697803112931
-2.483635663986206,-0.6139249205589294,-4.26049280166626,2023-10-20T11:58:32.940913Z,1697803112940
-2.818866491317749,-0.9160318374633789,-4.175088405609131,2023-10-20T11:58:32.951622Z,1697803112951
-3.064835548400879,-1.0949547290802002,-4.172162055969238,2023-10-20T11:58:32.964176Z,1697803112964
-3.239501476287842,-1.115441083908081,-4.3823466300964355,2023-10-20T11:58:32.972506Z,1697803112972
-3.3068137168884277,-0.8179901242256165,-5.108281135559082,2023-10-20T11:58:32.980863Z,1697803112980
-2.984619617462158,0.2403818666934967,-6.585824489593506,2023-10-20T11:58:32.992325Z,1697803112992
-2.057413339614868,2.652980327606201,-10.032052040100098,2023-10-20T11:58:33.001753Z,1697803113001
-0.6015533208847046,6.029101848602295,-14.121603012084961,2023-10-20T11:58:33.014100Z,1697803113014
0.53410804271698,8.789036750793457,-16.387073516845703,2023-10-20T11:58:33.021963Z,1697803113021
0.9202887415885925,10.18623161315918,-16.303930282592773,2023-10-20T11:58:33.033079Z,1697803113033
0.8136001825332642,10.66885757446289,-15.02193832397461,2023-10-20T11:58:33.041737Z,1697803113041
0.48648396134376526,10.686017990112305,-13.335673332214355,2023-10-20T11:58:33.053318Z,1697803113053
0.0905921682715416,10.466388702392578,-11.585821151733398,2023-10-20T11:58:33.063906Z,1697803113063
-0.29066652059555054,10.123442649841309,-9.918445587158203,2023-10-20T11:58:33.073077Z,1697803113073
-0.6104661822319031,9.719569206237793,-8.401925086975098,2023-10-20T11:58:33.082508Z,1697803113082
-0.8447287678718567,9.28962230682373,-7.068184852600098,2023-10-20T11:58:33.097500Z,1697803113097
-0.9848074316978455,8.85142707824707,-5.932390213012695,2023-10-20T11:58:33.102598Z,1697803113102
-1.0366884469985962,8.411370277404785,-5.00039529800415,2023-10-20T11:58:33.114163Z,1697803113114
-1.0207250118255615,7.965193748474121,-4.265547752380371,2023-10-20T11:58:33.123755Z,1697803113123
-0.9617935419082642,7.504916191101074,-3.7086918354034424,2023-10-20T11:58:33.134424Z,1697803113134
-0.8777197599411011,7.029473781585693,-3.299896240234375,2023-10-20T11:58:33.146623Z,1697803113146
-0.7788798213005066,6.544985294342041,-3.0041747093200684,2023-10-20T11:58:33.154527Z,1697803113154
-0.6685994863510132,6.067546844482422,-2.782017707824707,2023-10-20T11:58:33.163729Z,1697803113163
-0.5419566631317139,5.622035980224609,-2.5939159393310547,2023-10-20T11:58:33.174889Z,1697803113174
-0.38325411081314087,5.239047527313232,-2.4082086086273193,2023-10-20T11:58:33.184384Z,1697803113184
-0.17413385212421417,5.186501502990723,-2.228886604309082,2023-10-20T11:58:33.197530Z,1697803113197
0.09591329842805862,4.963945388793945,-2.00779390335083,2023-10-20T11:58:33.204568Z,1697803113204
0.42888274788856506,4.8593854904174805,-1.7868341207504272,2023-10-20T11:58:33.215530Z,1697803113215
0.8218479156494141,4.870426654815674,-1.5791771411895752,2023-10-20T11:58:33.224608Z,1697803113224
1.2768042087554932,5.0023908615112305,-1.3886809349060059,2023-10-20T11:58:33.235480Z,1697803113235
1.7968112230300903,5.0227437019348145,-1.2064323425292969,2023-10-20T11:58:33.246433Z,1697803113246
2.4114012718200684,5.407594203948975,-1.034559965133667,2023-10-20T11:58:33.255905Z,1697803113255
3.1250972747802734,5.9435648918151855,-0.8622884750366211,2023-10-20T11:58:33.265286Z,1697803113265
3.9268579483032227,6.611499309539795,-0.6866913437843323,2023-10-20T11:58:33.275804Z,1697803113275
4.777706146240234,7.359649658203125,-0.5086996555328369,2023-10-20T11:58:33.285469Z,1697803113285
5.605407238006592,8.099418640136719,-0.3337676227092743,2023-10-20T11:58:33.297294Z,1697803113297
6.320433616638184,8.724651336669922,-0.1717393398284912,2023-10-20T11:58:33.305584Z,1697803113305
6.850550651550293,9.151139259338379,-0.032192811369895935,2023-10-20T11:58:33.316158Z,1697803113316
7.164231300354004,9.343498229980469,0.07782147079706192,2023-10-20T11:58:33.325333Z,1697803113325
7.267194747924805,9.310640335083008,0.15617504715919495,2023-10-20T11:58:33.336248Z,1697803113336
7.185914516448975,9.082364082336426,0.2052624374628067,2023-10-20T11:58:33.345982Z,1697803113345
6.957239151000977,8.696183204650879,0.22960658371448517,2023-10-20T11:58:33.357091Z,1697803113357
6.6204118728637695,8.190011024475098,0.23585891723632812,2023-10-20T11:58:33.366265Z,1697803113366
6.212015628814697,7.5989670753479,0.23080384731292725,2023-10-20T11:58:33.381013Z,1697803113380
5.761582374572754,6.952051162719727,0.2194964438676834,2023-10-20T11:58:33.386539Z,1697803113386
5.2915940284729,6.2728095054626465,0.20606060326099396,2023-10-20T11:58:33.397744Z,1697803113397
4.820673942565918,5.582526206970215,0.19249173998832703,2023-10-20T11:58:33.407186Z,1697803113407
4.528810501098633,5.133556365966797,0.17905589938163757,2023-10-20T11:58:33.417975Z,1697803113417
4.044588088989258,4.3867363929748535,0.1636246293783188,2023-10-20T11:58:33.430299Z,1697803113430
3.5969481468200684,3.6973843574523926,0.14340434968471527,2023-10-20T11:58:33.438513Z,1697803113438
3.1861572265625,3.0689594745635986,0.11653266102075577,2023-10-20T11:58:33.446855Z,1697803113446
2.809687614440918,2.500131130218506,0.08487196266651154,2023-10-20T11:58:33.458588Z,1697803113458
2.4639475345611572,1.9867753982543945,0.05334429070353508,2023-10-20T11:58:33.467760Z,1697803113467
2.1465423107147217,1.5237044095993042,0.026605630293488503,2023-10-20T11:58:33.480681Z,1697803113480
1.8534812927246094,1.1030694246292114,0.006651407573372126,2023-10-20T11:58:33.488275Z,1697803113488
1.5817047357559204,0.7172877788543701,-0.007449576631188393,2023-10-20T11:58:33.498566Z,1697803113498
1.3272218704223633,0.3579787611961365,-0.01888999715447426,2023-10-20T11:58:33.508506Z,1697803113508
1.0869730710983276,0.019954223185777664,-0.03166069835424423,2023-10-20T11:58:33.519193Z,1697803113519
0.8620223999023438,-0.2947903871536255,-0.04922041669487953,2023-10-20T11:58:33.529955Z,1697803113529
0.6568930149078369,-0.5774751901626587,-0.07529393583536148,2023-10-20T11:58:33.540445Z,1697803113540
0.47344720363616943,-0.8222470283508301,-0.10948216915130615,2023-10-20T11:58:33.549080Z,1697803113549
0.30556565523147583,-1.0346930027008057,-0.14619794487953186,2023-10-20T11:58:33.559577Z,1697803113559
0.14566582441329956,-1.225588321685791,-0.1767944097518921,2023-10-20T11:58:33.569570Z,1697803113569
-0.00944499857723713,-1.4013185501098633,-0.19408807158470154,2023-10-20T11:58:33.580598Z,1697803113580
-0.15604202449321747,-1.5617505311965942,-0.19728074967861176,2023-10-20T11:58:33.589097Z,1697803113589
-0.2918637692928314,-1.7079484462738037,-0.18903300166130066,2023-10-20T11:58:33.600825Z,1697803113600
-0.4214331805706024,-1.849623441696167,-0.17306962609291077,2023-10-20T11:58:33.609515Z,1697803113609
-0.5480759739875793,-1.9939589500427246,-0.1541796326637268,2023-10-20T11:58:33.620440Z,1697803113620
-0.6697967648506165,-2.1386935710906982,-0.13848230242729187,2023-10-20T11:58:33.629670Z,1697803113629
-0.7807422280311584,-2.273717164993286,-0.13236300647258759,2023-10-20T11:58:33.640594Z,1697803113640
-0.8798481822013855,-2.3937084674835205,-0.13622082769870758,2023-10-20T11:58:33.649681Z,1697803113649
-0.9707064032554626,-2.501328229904175,-0.14513371884822845,2023-10-20T11:58:33.663359Z,1697803113663
-1.0541150569915771,-2.5948472023010254,-0.15324842929840088,2023-10-20T11:58:33.670845Z,1697803113670
-1.1294089555740356,-2.6716043949127197,-0.15723927319049835,2023-10-20T11:58:33.681605Z,1697803113681
-1.1964552402496338,-2.7297377586364746,-0.15564294159412384,2023-10-20T11:58:33.690594Z,1697803113690
-1.2543224096298218,-2.7685818672180176,-0.14806033670902252,2023-10-20T11:58:33.701798Z,1697803113701
-1.3024786710739136,-2.788403034210205,-0.13435843586921692,2023-10-20T11:58:33.712974Z,1697803113712
-1.3379971981048584,-2.788003921508789,-0.11560146510601044,2023-10-20T11:58:33.721751Z,1697803113721
-1.361410140991211,-2.7693800926208496,-0.091656394302845,2023-10-20T11:58:33.731173Z,1697803113731
-1.3735157251358032,-2.733994483947754,-0.06225717440247536,2023-10-20T11:58:33.741943Z,1697803113741
-1.3728505373001099,-2.6801180839538574,-0.026871686801314354,2023-10-20T11:58:33.751432Z,1697803113751
-1.358749508857727,-2.608549118041992,0.015431265346705914,2023-10-20T11:58:33.763972Z,1697803113763
-1.3317447900772095,-2.522479772567749,0.06385350972414017,2023-10-20T11:58:33.772117Z,1697803113772
-1.2954281568527222,-2.4269657135009766,0.11613357812166214,2023-10-20T11:58:33.782993Z,1697803113782
-1.254189372062683,-2.3291900157928467,0.1690787822008133,2023-10-20T11:58:33.791840Z,1697803113791
-1.2108222246170044,-2.237001419067383,0.2200285643339157,2023-10-20T11:58:33.802884Z,1697803113802
-1.1678541898727417,-2.1585147380828857,0.2672535479068756,2023-10-20T11:58:33.813014Z,1697803113812
-1.126482367515564,-2.097587823867798,0.3094234764575958,2023-10-20T11:58:33.822913Z,1697803113822
-1.086041808128357,-2.049165725708008,0.3450750410556793,2023-10-20T11:58:33.832275Z,1697803113832
-1.044936180114746,-2.004601240158081,0.37394213676452637,2023-10-20T11:58:33.843062Z,1697803113843
-1.0018349885940552,-1.955114722251892,0.39655691385269165,2023-10-20T11:58:33.852603Z,1697803113852
-0.9578027129173279,-1.897912621498108,0.41464874148368835,2023-10-20T11:58:33.863578Z,1697803113863
-0.9148346185684204,-1.8344582319259644,0.43047910928726196,2023-10-20T11:58:33.873220Z,1697803113873
-0.8726646900177002,-1.7642194032669067,0.44471311569213867,2023-10-20T11:58:33.883878Z,1697803113883
-0.8292974829673767,-1.6862648725509644,0.4576168358325958,2023-10-20T11:58:33.896365Z,1697803113896
-0.7842009663581848,-1.6039204597473145,0.4693233072757721,2023-10-20T11:58:33.904124Z,1697803113904
-0.7381731867790222,-1.5238374471664429,0.4814288914203644,2023-10-20T11:58:33.913291Z,1697803113913
-0.6920124292373657,-1.4513370990753174,0.4960619807243347,2023-10-20T11:58:33.924791Z,1697803113924
-0.645053505897522,-1.383758783340454,0.5152180194854736,2023-10-20T11:58:33.933805Z,1697803113933
-0.5958331227302551,-1.3125888109207153,0.5395621657371521,2023-10-20T11:58:33.946344Z,1697803113946
-0.5434200167655945,-1.2289140224456787,0.5688284039497375,2023-10-20T11:58:33.954064Z,1697803113954
-0.4883463382720947,-1.1270145177841187,0.6019523739814758,2023-10-20T11:58:33.965634Z,1697803113965
-0.43274056911468506,-1.0070230960845947,0.6380029916763306,2023-10-20T11:58:33.974532Z,1697803113974
-0.3792632520198822,-0.8718665242195129,0.6765812039375305,2023-10-20T11:58:33.985584Z,1697803113985
-0.33004283905029297,-0.725934624671936,0.7160905599594116,2023-10-20T11:58:33.996574Z,1697803113996
-0.28561145067214966,-0.5740164518356323,0.7537375092506409,2023-10-20T11:58:34.005886Z,1697803114005
-0.2463681399822235,-0.42356163263320923,0.7873936295509338,2023-10-20T11:58:34.014403Z,1697803114014
-0.21337716281414032,-0.2830839157104492,0.8159946799278259,2023-10-20T11:58:34.026024Z,1697803114025
-0.1877027153968811,-0.15870258212089539,0.8386094570159912,2023-10-20T11:58:34.034805Z,1697803114034
-0.16867969930171967,-0.051348865032196045,0.8543068170547485,2023-10-20T11:58:34.046965Z,1697803114046
-0.15577596426010132,0.04057358577847481,0.8625545501708984,2023-10-20T11:58:34.055867Z,1697803114055
-0.14952364563941956,0.1179959699511528,0.8637517690658569,2023-10-20T11:58:34.066174Z,1697803114066
-0.15018878877162933,0.1817164570093155,0.8582976460456848,2023-10-20T11:58:34.075136Z,1697803114075
-0.15657413005828857,0.2338634878396988,0.8468571901321411,2023-10-20T11:58:34.086350Z,1697803114086
-0.16482187807559967,0.27749672532081604,0.8310268521308899,2023-10-20T11:58:34.096411Z,1697803114096
-0.17094117403030396,0.31474462151527405,0.8138662576675415,2023-10-20T11:58:34.106550Z,1697803114106
-0.17386779189109802,0.3446759283542633,0.7972376942634583,2023-10-20T11:58:34.115936Z,1697803114115
-0.17386779189109802,0.36463016271591187,0.7806091904640198,2023-10-20T11:58:34.131070Z,1697803114131
-0.17160631716251373,0.3731439709663391,0.7613201141357422,2023-10-20T11:58:34.136419Z,1697803114136
-0.16841363906860352,0.3695521950721741,0.737375020980835,2023-10-20T11:58:34.146896Z,1697803114146
-0.1680145561695099,0.35372185707092285,0.7071776390075684,2023-10-20T11:58:34.156698Z,1697803114156
-0.17306962609291077,0.32685017585754395,0.6691315770149231,2023-10-20T11:58:34.167502Z,1697803114167
-0.18357884883880615,0.29332706332206726,0.6224387288093567,2023-10-20T11:58:34.179663Z,1697803114179
-0.19741377234458923,0.25767552852630615,0.5669659972190857,2023-10-20T11:58:34.187860Z,1697803114187
-0.21204687654972076,0.22308820486068726,0.5047088265419006,2023-10-20T11:58:34.196796Z,1697803114196
-0.20340004563331604,0.19102843105793,0.4379286766052246,2023-10-20T11:58:34.208419Z,1697803114208
-0.2222900390625,0.15950074791908264,0.37247881293296814,2023-10-20T11:58:34.217437Z,1697803114217
-0.2382534146308899,0.13249604403972626,0.3166069984436035,2023-10-20T11:58:34.230164Z,1697803114230
-0.25607919692993164,0.10602343827486038,0.25554707646369934,2023-10-20T11:58:34.237995Z,1697803114237
-0.27137744426727295,0.0834086537361145,0.20326702296733856,2023-10-20T11:58:34.249459Z,1697803114249
-0.28667566180229187,0.06465168297290802,0.14965666830539703,2023-10-20T11:58:34.257943Z,1697803114257
-0.2997124195098877,0.04868830367922783,0.1037619560956955,2023-10-20T11:58:34.269466Z,1697803114269
-0.31301525235176086,0.03644971549510956,0.06225717440247536,2023-10-20T11:58:34.279470Z,1697803114279
-0.3244556486606598,0.0260735172778368,0.026738658547401428,2023-10-20T11:58:34.289238Z,1697803114289
-0.3288455903530121,0.026871686801314354,1.3302815204951912E-4,2023-10-20T11:58:34.298399Z,1697803114298
-0.3327034115791321,0.027536828070878983,-0.02261478640139103,2023-10-20T11:58:34.309343Z,1697803114309
-0.32844650745391846,0.03884422034025192,-0.033789150416851044,2023-10-20T11:58:34.318167Z,1697803114318
-0.32472172379493713,0.04842224717140198,-0.0433671772480011,2023-10-20T11:58:34.329885Z,1697803114329
-0.32232722640037537,0.055339712649583817,-0.0482892207801342,2023-10-20T11:58:34.339344Z,1697803114339
-0.32033178210258484,0.06119294837117195,-0.05241309106349945,2023-10-20T11:58:34.350349Z,1697803114350
-0.3204648196697235,0.05906450003385544,-0.061325978487730026,2023-10-20T11:58:34.362574Z,1697803114362
-0.3204648196697235,0.05720210447907448,-0.06904160976409912,2023-10-20T11:58:34.370516Z,1697803114370
-0.32019877433776855,0.04150478169322014,-0.08553709834814072,2023-10-20T11:58:34.379432Z,1697803114379
-0.3434786796569824,0.015298237092792988,-0.11733082681894302,2023-10-20T11:58:34.390916Z,1697803114390
-0.34174931049346924,-0.018756968900561333,-0.13914744555950165,2023-10-20T11:58:34.400341Z,1697803114400
-0.3436117172241211,-0.05893146991729736,-0.16455581784248352,2023-10-20T11:58:34.413692Z,1697803114413
-0.3490658700466156,-0.1015004813671112,-0.1915605366230011,2023-10-20T11:58:34.420556Z,1697803114420
-0.35651543736457825,-0.1422071009874344,-0.21803313493728638,2023-10-20T11:58:34.431166Z,1697803114431
-0.36582741141319275,-0.17479899525642395,-0.2421112358570099,2023-10-20T11:58:34.440891Z,1697803114440
-0.37779995799064636,-0.19342292845249176,-0.26366180181503296,2023-10-20T11:58:34.451589Z,1697803114451
-0.3930981755256653,-0.1964825838804245,-0.2814875841140747,2023-10-20T11:58:34.462839Z,1697803114462
-0.4101257920265198,-0.18650546669960022,-0.2919968068599701,2023-10-20T11:58:34.472336Z,1697803114472
-0.4248919188976288,-0.16641822457313538,-0.2914646863937378,2023-10-20T11:58:34.480888Z,1697803114480
-0.43393781781196594,-0.137285053730011,-0.2786939740180969,2023-10-20T11:58:34.491766Z,1697803114491
-0.43500205874443054,-0.1015004813671112,-0.25448286533355713,2023-10-20T11:58:34.501223Z,1697803114501
-0.4264882504940033,-0.06544984877109528,-0.22082673013210297,2023-10-20T11:58:34.513589Z,1697803114513
-0.389107346534729,-0.04483048617839813,-0.18717060983181,2023-10-20T11:58:34.521465Z,1697803114521
-0.3695521950721741,-0.029266193509101868,-0.15138603746891022,2023-10-20T11:58:34.532506Z,1697803114532
-0.3529236912727356,-0.015963377431035042,-0.12078956514596939,2023-10-20T11:58:34.541815Z,1697803114541
-0.33775848150253296,-0.03232584148645401,-0.12052350491285324,2023-10-20T11:58:34.552174Z,1697803114552
-0.34879982471466064,-0.06717921793460846,-0.15018878877162933,2023-10-20T11:58:34.562971Z,1697803114562
-0.3529236912727356,-0.10628949105739594,-0.20552849769592285,2023-10-20T11:58:34.573050Z,1697803114573
-0.3710155189037323,-0.15165209770202637,-0.28574445843696594,2023-10-20T11:58:34.581825Z,1697803114581
-0.39988261461257935,-0.19634954631328583,-0.38205686211586,2023-10-20T11:58:34.597161Z,1697803114597
-0.43327268958091736,-0.2343956083059311,-0.4823600649833679,2023-10-20T11:58:34.602100Z,1697803114602
-0.4644012749195099,-0.2619324326515198,-0.5754798054695129,2023-10-20T11:58:34.613347Z,1697803114613
-0.48874542117118835,-0.2804233431816101,-0.6546315550804138,2023-10-20T11:58:34.622543Z,1697803114622
-0.504176676273346,-0.29439130425453186,-0.7172877788543701,2023-10-20T11:58:34.634164Z,1697803114634
-0.5101629495620728,-0.30875834822654724,-0.76411372423172,2023-10-20T11:58:34.646116Z,1697803114646
-0.5071033239364624,-0.32804742455482483,-0.7972376942634583,2023-10-20T11:58:34.654189Z,1697803114654
-0.496594101190567,-0.35425397753715515,-0.819187343120575,2023-10-20T11:58:34.663290Z,1697803114663
-0.48169493675231934,-0.38657981157302856,-0.8318250179290771,2023-10-20T11:58:34.674531Z,1697803114674
-0.4648003578186035,-0.42010289430618286,-0.8363479971885681,2023-10-20T11:58:34.682921Z,1697803114682
-0.4467085301876068,-0.4473736882209778,-0.8319580554962158,2023-10-20T11:58:34.696300Z,1697803114696
-0.4276854991912842,-0.46080952882766724,-0.8178570866584778,2023-10-20T11:58:34.704243Z,1697803114704
-0.40919458866119385,-0.45681867003440857,-0.7944441437721252,2023-10-20T11:58:34.714646Z,1697803114714
-0.3936302959918976,-0.43713051080703735,-0.7642467617988586,2023-10-20T11:58:34.724254Z,1697803114724
-0.38232290744781494,-0.40586888790130615,-0.7305905818939209,2023-10-20T11:58:34.735217Z,1697803114735
-0.3747403025627136,-0.36902010440826416,-0.6965354084968567,2023-10-20T11:58:34.745776Z,1697803114745
-0.37021735310554504,-0.3316391706466675,-0.663677453994751,2023-10-20T11:58:34.755233Z,1697803114755
-0.3664925694465637,-0.2986482083797455,-0.6325488686561584,2023-10-20T11:58:34.764598Z,1697803114764
-0.3610384166240692,-0.2737719416618347,-0.603681743144989,2023-10-20T11:58:34.775397Z,1697803114775
-0.3517264425754547,-0.25873976945877075,-0.5768100619316101,2023-10-20T11:58:34.785530Z,1697803114785
-0.3381575644016266,-0.2546158730983734,-0.5516677498817444,2023-10-20T11:58:34.796076Z,1697803114796
-0.3225932717323303,-0.2600700259208679,-0.5286538600921631,2023-10-20T11:58:34.805571Z,1697803114805
-0.3068959414958954,-0.2716434895992279,-0.5088326930999756,2023-10-20T11:58:34.816524Z,1697803114816
-0.29346010088920593,-0.28468024730682373,-0.49260324239730835,2023-10-20T11:58:34.829375Z,1697803114829
-0.28348299860954285,-0.29452434182167053,-0.47890135645866394,2023-10-20T11:58:34.836391Z,1697803114836
-0.27736368775367737,-0.2978500425815582,-0.46573156118392944,2023-10-20T11:58:34.845767Z,1697803114845
-0.27470314502716064,-0.2919968068599701,-0.45096543431282043,2023-10-20T11:58:34.856915Z,1697803114856
-0.2735058665275574,-0.27629947662353516,-0.43220847845077515,2023-10-20T11:58:34.866014Z,1697803114865
-0.2530195415019989,-0.246501162648201,-0.3907036781311035,2023-10-20T11:58:34.879608Z,1697803114879
-0.25275349617004395,-0.2194964438676834,-0.36569440364837646,2023-10-20T11:58:34.886445Z,1697803114886
-0.2524874210357666,-0.1964825838804245,-0.3442768454551697,2023-10-20T11:58:34.897203Z,1697803114897
-0.24570299685001373,-0.1822485625743866,-0.322061151266098,2023-10-20T11:58:34.906394Z,1697803114906
-0.2530195415019989,-0.18637244403362274,-0.3211299479007721,2023-10-20T11:58:34.918025Z,1697803114917
-0.2442396879196167,-0.20060645043849945,-0.3162079155445099,2023-10-20T11:58:34.928992Z,1697803114928
-0.2421112358570099,-0.2293405383825302,-0.32418960332870483,2023-10-20T11:58:34.938084Z,1697803114938
-0.2470332831144333,-0.2660562992095947,-0.340951144695282,2023-10-20T11:58:34.946517Z,1697803114946
-0.2567443251609802,-0.2990472912788391,-0.3589099645614624,2023-10-20T11:58:34.957811Z,1697803114957
-0.2684507966041565,-0.31793728470802307,-0.37021735310554504,2023-10-20T11:58:34.967564Z,1697803114967
-0.28029030561447144,-0.318868488073349,-0.3698182702064514,2023-10-20T11:58:34.979274Z,1697803114979
-0.29053348302841187,-0.30370327830314636,-0.35585030913352966,2023-10-20T11:58:34.987753Z,1697803114987
-0.2733728587627411,-0.27084532380104065,-0.3200657367706299,2023-10-20T11:58:34.998847Z,1697803114998
-0.28135454654693604,-0.23226715624332428,-0.28734081983566284,2023-10-20T11:58:35.007943Z,1697803115007
-0.3099555969238281,-0.1942211091518402,-0.2612673044204712,2023-10-20T11:58:35.018983Z,1697803115018
-0.2865426540374756,-0.16069801151752472,-0.2250836342573166,2023-10-20T11:58:35.029043Z,1697803115029
-0.2885380685329437,-0.13475751876831055,-0.2036661058664322,2023-10-20T11:58:35.039416Z,1697803115039
-0.2904004454612732,-0.11280786991119385,-0.18530821800231934,2023-10-20T11:58:35.048720Z,1697803115048
-0.2876068651676178,-0.12345012277364731,-0.18464307487010956,2023-10-20T11:58:35.058985Z,1697803115058
-0.30157482624053955,-0.15989984571933746,-0.20073948800563812,2023-10-20T11:58:35.068612Z,1697803115068
-0.28840503096580505,-0.19834497570991516,-0.2063266634941101,2023-10-20T11:58:35.079550Z,1697803115079
-0.2732398211956024,-0.24157913029193878,-0.21217989921569824,2023-10-20T11:58:35.088988Z,1697803115088
-0.2552810311317444,-0.2826848328113556,-0.21484047174453735,2023-10-20T11:58:35.100113Z,1697803115100
-0.23612496256828308,-0.31687304377555847,-0.21164779365062714,2023-10-20T11:58:35.112395Z,1697803115112
-0.2189643383026123,-0.3418823480606079,-0.2008725106716156,2023-10-20T11:58:35.120778Z,1697803115120
-0.20606060326099396,-0.3562493920326233,-0.18291370570659637,2023-10-20T11:58:35.129329Z,1697803115129
-0.19674864411354065,-0.35864388942718506,-0.16016589105129242,2023-10-20T11:58:35.140682Z,1697803115140
-0.19009722769260406,-0.3495979905128479,-0.13648688793182373,2023-10-20T11:58:35.149345Z,1697803115149
-0.17373476922512054,-0.31753820180892944,-0.11573449522256851,2023-10-20T11:58:35.162643Z,1697803115162
-0.17745955288410187,-0.30024453997612,-0.10336287319660187,2023-10-20T11:58:35.170312Z,1697803115170
-0.1998082846403122,-0.3047674894332886,-0.10269773006439209,2023-10-20T11:58:35.181325Z,1697803115181
-0.21324412524700165,-0.3074280619621277,-0.11506935209035873,2023-10-20T11:58:35.190323Z,1697803115190
-0.2337304651737213,-0.32578593492507935,-0.14061075448989868,2023-10-20T11:58:35.201252Z,1697803115201
-0.25873976945877075,-0.35478606820106506,-0.17519807815551758,2023-10-20T11:58:35.212134Z,1697803115212
-0.28521236777305603,-0.38830918073654175,-0.21390926837921143,2023-10-20T11:58:35.221324Z,1697803115221
-0.3112858831882477,-0.42010289430618286,-0.25102412700653076,2023-10-20T11:58:35.230901Z,1697803115230
-0.3353639841079712,-0.44271770119667053,-0.2805563807487488,2023-10-20T11:58:35.241492Z,1697803115241
-0.3551851511001587,-0.44843789935112,-0.2953225076198578,2023-10-20T11:58:35.250317Z,1697803115250
-0.36702466011047363,-0.4331396520137787,-0.2907995283603668,2023-10-20T11:58:35.262296Z,1697803115262
-0.34334567189216614,-0.38950642943382263,-0.26273059844970703,2023-10-20T11:58:35.271469Z,1697803115271
-0.34041905403137207,-0.3457401692867279,-0.2288084179162979,2023-10-20T11:58:35.282058Z,1697803115282
-0.33775848150253296,-0.3083592653274536,-0.1998082846403122,2023-10-20T11:58:35.291882Z,1697803115291
-0.32179510593414307,-0.266588419675827,-0.1559089869260788,2023-10-20T11:58:35.302188Z,1697803115302
-0.30822622776031494,-0.23093686997890472,-0.11839505285024643,2023-10-20T11:58:35.312223Z,1697803115312
-0.2858774960041046,-0.20792299509048462,-0.08154625445604324,2023-10-20T11:58:35.322410Z,1697803115322
-0.27523523569107056,-0.19767983257770538,-0.041637811809778214,2023-10-20T11:58:35.332204Z,1697803115332
-0.24357454478740692,-0.17825771868228912,-0.027137743309140205,2023-10-20T11:58:35.345757Z,1697803115345
-0.2200285643339157,-0.17413385212421417,-0.008513801731169224,2023-10-20T11:58:35.352486Z,1697803115352
-0.1998082846403122,-0.1706751137971878,0.007316548377275467,2023-10-20T11:58:35.363356Z,1697803115363
-0.1761292666196823,-0.1745329350233078,0.016096405684947968,2023-10-20T11:58:35.372600Z,1697803115372
-0.15777139365673065,-0.2003403902053833,0.02327992580831051,2023-10-20T11:58:35.383920Z,1697803115383
-0.13914744555950165,-0.2228221595287323,0.013568871654570103,2023-10-20T11:58:35.395716Z,1697803115395
-0.12438131868839264,-0.2552810311317444,-0.005986266769468784,2023-10-20T11:58:35.403792Z,1697803115403
-0.11400512605905533,-0.2958545982837677,-0.034055206924676895,2023-10-20T11:58:35.412604Z,1697803115412
-0.1081518903374672,-0.34228143095970154,-0.06850949674844742,2023-10-20T11:58:35.423964Z,1697803115423
-0.10562435537576675,-0.3908367156982422,-0.10615646839141846,2023-10-20T11:58:35.432662Z,1697803115432
-0.10562435537576675,-0.43885987997055054,-0.14367040991783142,2023-10-20T11:58:35.446376Z,1697803115446
-0.1081518903374672,-0.48555275797843933,-0.17852377891540527,2023-10-20T11:58:35.453638Z,1697803115453
-0.1141381561756134,-0.529585063457489,-0.20951934158802032,2023-10-20T11:58:35.464632Z,1697803115464
-0.12345012277364731,-0.5678972005844116,-0.23665708303451538,2023-10-20T11:58:35.473622Z,1697803115473
-0.13528962433338165,-0.5986266732215881,-0.26033610105514526,2023-10-20T11:58:35.485528Z,1697803115485
-0.15005575120449066,-0.6225717663764954,-0.2814875841140747,2023-10-20T11:58:35.495999Z,1697803115495
-0.16841363906860352,-0.6398653984069824,-0.3007766604423523,2023-10-20T11:58:35.504863Z,1697803115504
-0.19089539349079132,-0.6479801535606384,-0.3187354505062103,2023-10-20T11:58:35.514332Z,1697803115514
-0.21803313493728638,-0.6435902118682861,-0.33563002943992615,2023-10-20T11:58:35.525433Z,1697803115525
-0.2507580518722534,-0.6272277235984802,-0.3535888195037842,2023-10-20T11:58:35.534224Z,1697803115534
-0.2909325659275055,-0.6051450371742249,-0.37567150592803955,2023-10-20T11:58:35.545664Z,1697803115545
-0.33948785066604614,-0.585456907749176,-0.4044055938720703,2023-10-20T11:58:35.554923Z,1697803115554
-0.39589178562164307,-0.5749476552009583,-0.44098833203315735,2023-10-20T11:58:35.565750Z,1697803115565
-0.4576168358325958,-0.5765439867973328,-0.48502063751220703,2023-10-20T11:58:35.578497Z,1697803115578
-0.5212042927742004,-0.589181661605835,-0.5361034274101257,2023-10-20T11:58:35.586187Z,1697803115586
-0.5833284258842468,-0.6105992197990417,-0.5919752717018127,2023-10-20T11:58:35.594948Z,1697803115594
-0.640530526638031,-0.6376039385795593,-0.6481131315231323,2023-10-20T11:58:35.606147Z,1697803115606
-0.6905491352081299,-0.6650077104568481,-0.6985308527946472,2023-10-20T11:58:35.615620Z,1697803115615
-0.7323199510574341,-0.6888197660446167,-0.7384392619132996,2023-10-20T11:58:35.629215Z,1697803115629
-0.7658430933952332,-0.7079758048057556,-0.7662421464920044,2023-10-20T11:58:35.636429Z,1697803115636
-0.7913844585418701,-0.7236731648445129,-0.7826046347618103,2023-10-20T11:58:35.647008Z,1697803115646
-0.807746946811676,-0.7369759678840637,-0.789522111415863,2023-10-20T11:58:35.656381Z,1697803115656
-0.8128020167350769,-0.7480173110961914,-0.7888569235801697,2023-10-20T11:58:35.667296Z,1697803115667
-0.8058845400810242,-0.7586595416069031,-0.7830036878585815,2023-10-20T11:58:35.678245Z,1697803115678
-0.7881917953491211,-0.7722284197807312,-0.7743569016456604,2023-10-20T11:58:35.687376Z,1697803115687
-0.7629164457321167,-0.7912514209747314,-0.7653109431266785,2023-10-20T11:58:35.696887Z,1697803115696
-0.733650267124176,-0.8173249959945679,-0.7574623227119446,2023-10-20T11:58:35.707398Z,1697803115707
-0.7039849758148193,-0.8508480787277222,-0.7508108615875244,2023-10-20T11:58:35.717137Z,1697803115717
-0.6757830381393433,-0.88916015625,-0.7434943318367004,2023-10-20T11:58:35.729157Z,1697803115729
-0.6503746509552002,-0.9272062182426453,-0.7323199510574341,2023-10-20T11:58:35.737521Z,1697803115737
-0.6282919645309448,-0.9607293009757996,-0.7152923941612244,2023-10-20T11:58:35.747887Z,1697803115747
-0.6099340915679932,-0.9877340197563171,-0.6913473010063171,2023-10-20T11:58:35.757556Z,1697803115757
-0.5950348973274231,-1.0074222087860107,-0.6611499190330505,2023-10-20T11:58:35.768836Z,1697803115768
-0.5829293727874756,-1.0205919742584229,-0.6258974671363831,2023-10-20T11:58:35.778534Z,1697803115778
-0.5732182860374451,-1.0293718576431274,-0.5869202017784119,2023-10-20T11:58:35.789108Z,1697803115789
-0.5656356811523438,-1.0366884469985962,-0.5456814765930176,2023-10-20T11:58:35.798240Z,1697803115798
-0.5612457990646362,-1.0471975803375244,-0.5040436387062073,2023-10-20T11:58:35.812294Z,1697803115812
-0.5609797239303589,-1.0652894973754883,-0.46360310912132263,2023-10-20T11:58:35.818814Z,1697803115818
-0.5644384622573853,-1.0913629531860352,-0.42502495646476746,2023-10-20T11:58:35.829386Z,1697803115829
-0.570025622844696,-1.123289704322815,-0.38711193203926086,2023-10-20T11:58:35.838612Z,1697803115838
-0.5772091746330261,-1.1578770875930786,-0.3473365008831024,2023-10-20T11:58:35.849562Z,1697803115849
-0.585456907749176,-1.1911340951919556,-0.30330419540405273,2023-10-20T11:58:35.861839Z,1697803115861
-0.5942367315292358,-1.2190699577331543,-0.2546158730983734,2023-10-20T11:58:35.869708Z,1697803115869
-0.6032826900482178,-1.241817831993103,-0.201936736702919,2023-10-20T11:58:35.878439Z,1697803115878
-0.6135258078575134,-1.2645655870437622,-0.14646399021148682,2023-10-20T11:58:35.889709Z,1697803115889
-0.6256313920021057,-1.2891758680343628,-0.08819766342639923,2023-10-20T11:58:35.899231Z,1697803115899
-0.6407966017723083,-1.314717173576355,-0.027802884578704834,2023-10-20T11:58:35.912443Z,1697803115912
-0.6598196625709534,-1.3402585983276367,0.03205978497862816,2023-10-20T11:58:35.920306Z,1697803115920
