ACC_X,ACC_Y,ACC_Z,DATE,UNIX_TIMESTAMP
0.03708815574645996,0.19655323028564453,0.11355018615722656,2023-10-20T11:56:59.008033Z,1697803019008
0.04346787929534912,0.22196674346923828,0.1305065155029297,2023-10-20T11:56:59.028194Z,1697803019028
0.04711341857910156,0.23520755767822266,0.13881683349609375,2023-10-20T11:56:59.048980Z,1697803019048
0.029700160026550293,0.15030574798583984,0.08849191665649414,2023-10-20T11:56:59.069066Z,1697803019069
0.022623300552368164,0.11319637298583984,0.06536579132080078,2023-10-20T11:56:59.089291Z,1697803019089
0.011727690696716309,0.05725288391113281,0.03235960006713867,2023-10-20T11:56:59.110964Z,1697803019110
0.003784775733947754,0.01955699920654297,0.010921001434326172,2023-10-20T11:56:59.129389Z,1697803019129
-0.006670355796813965,-0.036360740661621094,-0.020441532135009766,2023-10-20T11:56:59.149869Z,1697803019149
-0.01223599910736084,-0.06654834747314453,-0.03719472885131836,2023-10-20T11:56:59.170369Z,1697803019170
-0.015146374702453613,-0.08155250549316406,-0.04473543167114258,2023-10-20T11:56:59.190356Z,1697803019190
0.010499238967895508,0.05449676513671875,0.03087139129638672,2023-10-20T11:56:59.210929Z,1697803019210
0.005072832107543945,0.026704788208007812,0.01493978500366211,2023-10-20T11:56:59.230438Z,1697803019230
5.865097045898438E-4,0.003147125244140625,0.0017414093017578125,2023-10-20T11:56:59.251319Z,1697803019251
-0.001147627830505371,-0.006298065185546875,-0.0034422874450683594,2023-10-20T11:56:59.271493Z,1697803019271
-0.00264739990234375,-0.014969825744628906,-0.008081436157226562,2023-10-20T11:56:59.294949Z,1697803019294
-0.0040274858474731445,-0.023714065551757812,-0.012625694274902344,2023-10-20T11:56:59.315248Z,1697803019315
-0.005320310592651367,-0.032482147216796875,-0.017059803009033203,2023-10-20T11:56:59.332652Z,1697803019332
-0.005892515182495117,-0.03658294677734375,-0.018935203552246094,2023-10-20T11:56:59.352744Z,1697803019352
-0.005461692810058594,-0.03377819061279297,-0.017241477966308594,2023-10-20T11:56:59.372990Z,1697803019372
-0.0038487911224365234,-0.023248672485351562,-0.011700153350830078,2023-10-20T11:56:59.394995Z,1697803019394
-0.001492619514465332,-0.008722305297851562,-0.0043277740478515625,2023-10-20T11:56:59.416001Z,1697803019415
0.0014785528182983398,0.008336067199707031,0.0040607452392578125,2023-10-20T11:56:59.433410Z,1697803019433
0.004070639610290527,0.022241592407226562,0.010583877563476562,2023-10-20T11:56:59.454051Z,1697803019454
0.006468653678894043,0.0340728759765625,0.015845775604248047,2023-10-20T11:56:59.474345Z,1697803019474
0.009755969047546387,0.0490570068359375,0.02233099937438965,2023-10-20T11:56:59.494995Z,1697803019494
0.014011263847351074,0.06708812713623047,0.029848575592041016,2023-10-20T11:56:59.515944Z,1697803019515
0.018488764762878418,0.08439350128173828,0.03650546073913574,2023-10-20T11:56:59.535190Z,1697803019535
0.023258209228515625,0.1017160415649414,0.04253554344177246,2023-10-20T11:56:59.555217Z,1697803019555
0.028934001922607422,0.12134075164794922,0.04883408546447754,2023-10-20T11:56:59.578473Z,1697803019578
0.0341949462890625,0.13854122161865234,0.05338764190673828,2023-10-20T11:56:59.598817Z,1697803019598
0.039215087890625,0.15417098999023438,0.05686020851135254,2023-10-20T11:56:59.616426Z,1697803019616
0.042107343673706055,0.16120147705078125,0.05714583396911621,2023-10-20T11:56:59.636191Z,1697803019636
0.04345893859863281,0.1621112823486328,0.05525684356689453,2023-10-20T11:56:59.656716Z,1697803019656
0.04364466667175293,0.15975379943847656,0.05207371711730957,2023-10-20T11:56:59.678233Z,1697803019678
0.005761265754699707,0.02785015106201172,0.01277017593383789,2023-10-20T11:56:59.697213Z,1697803019697
0.006197094917297363,0.029397964477539062,0.013159036636352539,2023-10-20T11:56:59.717317Z,1697803019717
0.007044672966003418,0.03271961212158203,0.014281034469604492,2023-10-20T11:56:59.737802Z,1697803019737
0.008329272270202637,0.03777885437011719,0.01605510711669922,2023-10-20T11:56:59.757581Z,1697803019757
0.009878158569335938,0.0436248779296875,0.018027782440185547,2023-10-20T11:56:59.778491Z,1697803019778
0.011620521545410156,0.0498046875,0.019987106323242188,2023-10-20T11:56:59.798553Z,1697803019798
0.013490915298461914,0.0558929443359375,0.02175426483154297,2023-10-20T11:56:59.818870Z,1697803019818
0.015541791915893555,0.06201457977294922,0.023382186889648438,2023-10-20T11:56:59.838988Z,1697803019838
0.017871379852294922,0.06844806671142578,0.024967193603515625,2023-10-20T11:56:59.861993Z,1697803019861
0.0206146240234375,0.07555580139160156,0.02662801742553711,2023-10-20T11:56:59.879700Z,1697803019879
0.02383279800415039,0.08339309692382812,0.02836298942565918,2023-10-20T11:56:59.899691Z,1697803019899
0.027428388595581055,0.09151458740234375,0.030009031295776367,2023-10-20T11:56:59.919999Z,1697803019919
0.03118276596069336,0.09917068481445312,0.03135323524475098,2023-10-20T11:56:59.940226Z,1697803019940
0.034871578216552734,0.10573005676269531,0.03226161003112793,2023-10-20T11:56:59.961464Z,1697803019961
0.03837013244628906,0.11098289489746094,0.032743215560913086,2023-10-20T11:56:59.981146Z,1697803019981
0.041767120361328125,0.11535835266113281,0.03299236297607422,2023-10-20T11:57:00.000975Z,1697803020000
0.04532909393310547,0.1196737289428711,0.0332646369934082,2023-10-20T11:57:00.021140Z,1697803020021
0.04938936233520508,0.12477779388427734,0.03381156921386719,2023-10-20T11:57:00.043431Z,1697803020043
0.0540006160736084,0.13072776794433594,0.03464961051940918,2023-10-20T11:57:00.062179Z,1697803020062
0.059042930603027344,0.13720130920410156,0.03570127487182617,2023-10-20T11:57:00.082163Z,1697803020082
0.06467533111572266,0.14452266693115234,0.03705739974975586,2023-10-20T11:57:00.102671Z,1697803020102
0.07138824462890625,0.1536884307861328,0.03894925117492676,2023-10-20T11:57:00.122333Z,1697803020122
0.08008384704589844,0.16641807556152344,0.041769981384277344,2023-10-20T11:57:00.145031Z,1697803020144
0.09142017364501953,0.18375587463378906,0.045729875564575195,2023-10-20T11:57:00.163420Z,1697803020163
0.10553979873657227,0.20563411712646484,0.05077862739562988,2023-10-20T11:57:00.183418Z,1697803020183
0.12169599533081055,0.23038673400878906,0.05648517608642578,2023-10-20T11:57:00.203751Z,1697803020203
0.138458251953125,0.2553596496582031,0.06221151351928711,2023-10-20T11:57:00.223687Z,1697803020223
0.1544651985168457,0.27826499938964844,0.06742739677429199,2023-10-20T11:57:00.244520Z,1697803020244
0.16898441314697266,0.2980480194091797,0.07190942764282227,2023-10-20T11:57:00.264650Z,1697803020264
0.1816234588623047,0.31429576873779297,0.07558560371398926,2023-10-20T11:57:00.284479Z,1697803020284
0.19207477569580078,0.3267507553100586,0.07840800285339355,2023-10-20T11:57:00.305197Z,1697803020305
0.19991779327392578,0.3349790573120117,0.08029818534851074,2023-10-20T11:57:00.328399Z,1697803020328
0.20441913604736328,0.3379936218261719,0.08102917671203613,2023-10-20T11:57:00.345217Z,1697803020345
0.20491981506347656,0.33495521545410156,0.08038544654846191,2023-10-20T11:57:00.365355Z,1697803020365
0.2008066177368164,0.325164794921875,0.07814621925354004,2023-10-20T11:57:00.386074Z,1697803020386
0.19242334365844727,0.3093605041503906,0.07443356513977051,2023-10-20T11:57:00.406284Z,1697803020406
0.18108034133911133,0.2896270751953125,0.06969451904296875,2023-10-20T11:57:00.427886Z,1697803020427
0.1683945655822754,0.2683744430541992,0.06446433067321777,2023-10-20T11:57:00.446337Z,1697803020446
0.15561819076538086,0.24742698669433594,0.05914044380187988,2023-10-20T11:57:00.467061Z,1697803020467
0.14360284805297852,0.22800064086914062,0.05396616458892822,2023-10-20T11:57:00.487565Z,1697803020487
0.132476806640625,0.21022891998291016,0.04895210266113281,2023-10-20T11:57:00.511041Z,1697803020511
0.12197256088256836,0.19365882873535156,0.04403257369995117,2023-10-20T11:57:00.528229Z,1697803020528
0.11159753799438477,0.1774883270263672,0.03911566734313965,2023-10-20T11:57:00.548336Z,1697803020548
0.1009368896484375,0.16100311279296875,0.03416156768798828,2023-10-20T11:57:00.568803Z,1697803020568
0.08973932266235352,0.1437549591064453,0.02918243408203125,2023-10-20T11:57:00.588208Z,1697803020588
0.07746696472167969,0.12477684020996094,0.024091601371765137,2023-10-20T11:57:00.611149Z,1697803020611
0.06345033645629883,0.1028585433959961,0.01878070831298828,2023-10-20T11:57:00.629469Z,1697803020629
0.0469207763671875,0.07659912109375,0.013159751892089844,2023-10-20T11:57:00.649866Z,1697803020649
0.027482032775878906,0.04518604278564453,0.007279872894287109,2023-10-20T11:57:00.669907Z,1697803020669
0.005404472351074219,0.008947372436523438,0.001349329948425293,2023-10-20T11:57:00.689990Z,1697803020689
-0.017987728118896484,-0.029939651489257812,-0.0042226314544677734,2023-10-20T11:57:00.711173Z,1697803020711
-0.040897369384765625,-0.06832599639892578,-0.008998513221740723,2023-10-20T11:57:00.730691Z,1697803020730
-0.06133747100830078,-0.10261154174804688,-0.012579798698425293,2023-10-20T11:57:00.751699Z,1697803020751
-0.07807207107543945,-0.1303997039794922,-0.014797210693359375,2023-10-20T11:57:00.771689Z,1697803020771
-0.08971548080444336,-0.14908695220947266,-0.015530109405517578,2023-10-20T11:57:00.791052Z,1697803020791
-0.09478378295898438,-0.15614032745361328,-0.014722704887390137,2023-10-20T11:57:00.811382Z,1697803020811
-0.09195852279663086,-0.149688720703125,-0.012506842613220215,2023-10-20T11:57:00.831936Z,1697803020831
-0.08019685745239258,-0.1286754608154297,-0.009249210357666016,2023-10-20T11:57:00.852517Z,1697803020852
-0.0590062141418457,-0.0931844711303711,-0.005527377128601074,2023-10-20T11:57:00.873210Z,1697803020873
-0.028470516204833984,-0.04422283172607422,-0.0020406246185302734,2023-10-20T11:57:00.894540Z,1697803020894
0.010096549987792969,0.015419960021972656,5.045831203460693E-4,2023-10-20T11:57:00.913600Z,1697803020913
0.054205894470214844,0.08140277862548828,0.0015772879123687744,2023-10-20T11:57:00.933131Z,1697803020933
0.10092830657958984,0.14911556243896484,9.507499635219574E-4,2023-10-20T11:57:00.953945Z,1697803020953
0.1479964256286621,0.21532154083251953,-0.0013372190296649933,2023-10-20T11:57:00.978168Z,1697803020978
0.19306421279907227,0.2769355773925781,-0.00501936674118042,2023-10-20T11:57:00.994698Z,1697803020994
0.233917236328125,0.33117103576660156,-0.009605273604393005,2023-10-20T11:57:01.013957Z,1697803021013
0.2686891555786133,0.3757352828979492,-0.014513254165649414,2023-10-20T11:57:01.034928Z,1697803021034
0.2963724136352539,0.4095444679260254,-0.019274652004241943,2023-10-20T11:57:01.055571Z,1697803021055
0.31719255447387695,0.43320798873901367,-0.02368059754371643,2023-10-20T11:57:01.077945Z,1697803021077
0.33188629150390625,0.44794178009033203,-0.02769923210144043,2023-10-20T11:57:01.095429Z,1697803021095
0.34158849716186523,0.45551586151123047,-0.03135305643081665,2023-10-20T11:57:01.115778Z,1697803021115
0.3477940559387207,0.4581160545349121,-0.03475707769393921,2023-10-20T11:57:01.136388Z,1697803021136
0.3521881103515625,0.45812129974365234,-0.038068950176239014,2023-10-20T11:57:01.156502Z,1697803021156
0.3565101623535156,0.4579181671142578,-0.04153168201446533,2023-10-20T11:57:01.177885Z,1697803021177
0.3620944023132324,0.4593181610107422,-0.045385539531707764,2023-10-20T11:57:01.196935Z,1697803021196
0.36908388137817383,0.46262454986572266,-0.04969942569732666,2023-10-20T11:57:01.217303Z,1697803021217
0.376739501953125,0.4670586585998535,-0.05435115098953247,2023-10-20T11:57:01.237300Z,1697803021237
0.38344383239746094,0.47084665298461914,-0.05903351306915283,2023-10-20T11:57:01.260943Z,1697803021260
0.387359619140625,0.4720301628112793,-0.0633077621459961,2023-10-20T11:57:01.277959Z,1697803021277
0.38608789443969727,0.4680647850036621,-0.06658434867858887,2023-10-20T11:57:01.298086Z,1697803021298
0.37709617614746094,0.4561185836791992,-0.06815218925476074,2023-10-20T11:57:01.318177Z,1697803021318
0.35881662368774414,0.4342536926269531,-0.06744933128356934,2023-10-20T11:57:01.338535Z,1697803021338
0.3313407897949219,0.4021921157836914,-0.06425368785858154,2023-10-20T11:57:01.359810Z,1697803021359
0.29622745513916016,0.3612213134765625,-0.05877399444580078,2023-10-20T11:57:01.378794Z,1697803021378
0.25589561462402344,0.3137335777282715,-0.051527976989746094,2023-10-20T11:57:01.399252Z,1697803021399
0.21253633499145508,0.2620377540588379,-0.04309487342834473,2023-10-20T11:57:01.419945Z,1697803021419
0.16846084594726562,0.20882654190063477,-0.03412926197052002,2023-10-20T11:57:01.439708Z,1697803021439
0.12650632858276367,0.15758991241455078,-0.025401711463928223,2023-10-20T11:57:01.459693Z,1697803021459
0.09018945693969727,0.11280059814453125,-0.017804503440856934,2023-10-20T11:57:01.480478Z,1697803021480
0.06332921981811523,0.07943868637084961,-0.012200355529785156,2023-10-20T11:57:01.501024Z,1697803021500
0.04797983169555664,0.06030130386352539,-0.008968114852905273,2023-10-20T11:57:01.520752Z,1697803021520
0.044147491455078125,0.05556344985961914,-0.007962822914123535,2023-10-20T11:57:01.542680Z,1697803021542
0.05028724670410156,0.06338644027709961,-0.008709192276000977,2023-10-20T11:57:01.561107Z,1697803021561
0.06392049789428711,0.08073568344116211,-0.010564446449279785,2023-10-20T11:57:01.581772Z,1697803021581
0.08262395858764648,0.10464286804199219,-0.012938618659973145,2023-10-20T11:57:01.602543Z,1697803021602
0.1046452522277832,0.13297557830810547,-0.015408813953399658,2023-10-20T11:57:01.622503Z,1697803021622
0.12827110290527344,0.1636219024658203,-0.01761496067047119,2023-10-20T11:57:01.643996Z,1697803021643
0.15182018280029297,0.19445228576660156,-0.01926487684249878,2023-10-20T11:57:01.662605Z,1697803021662
0.17263460159301758,0.22201108932495117,-0.020015597343444824,2023-10-20T11:57:01.683022Z,1697803021682
0.1882009506225586,0.2429342269897461,-0.019647538661956787,2023-10-20T11:57:01.703777Z,1697803021703
0.19792604446411133,0.2562751770019531,-0.0182684063911438,2023-10-20T11:57:01.727054Z,1697803021727
0.2030014991760254,0.26339244842529297,-0.01621323823928833,2023-10-20T11:57:01.744450Z,1697803021744
0.20508527755737305,0.2663393020629883,-0.013815969228744507,2023-10-20T11:57:01.764031Z,1697803021763
0.20602703094482422,0.2675161361694336,-0.011336743831634521,2023-10-20T11:57:01.784235Z,1697803021784
0.20693254470825195,0.26842689514160156,-0.008900731801986694,2023-10-20T11:57:01.804869Z,1697803021804
0.20884084701538086,0.27054691314697266,-0.00657905638217926,2023-10-20T11:57:01.827162Z,1697803021827
0.2125225067138672,0.2749958038330078,-0.004390627145767212,2023-10-20T11:57:01.845192Z,1697803021845
0.2174224853515625,0.2812366485595703,-0.0023160576820373535,2023-10-20T11:57:01.865282Z,1697803021865
0.22192668914794922,0.2874002456665039,-3.4452229738235474E-4,2023-10-20T11:57:01.885800Z,1697803021885
0.2236795425415039,0.2906150817871094,0.0014915987849235535,2023-10-20T11:57:01.905612Z,1697803021905
0.2214207649230957,0.2892751693725586,0.0030751898884773254,2023-10-20T11:57:01.926976Z,1697803021926
0.21472454071044922,0.2826652526855469,0.004289671778678894,2023-10-20T11:57:01.946074Z,1697803021946
0.20320892333984375,0.2700047492980957,0.005048513412475586,2023-10-20T11:57:01.966596Z,1697803021966
0.18558120727539062,0.24924135208129883,0.005289778113365173,2023-10-20T11:57:01.987262Z,1697803021987
0.16070270538330078,0.2184133529663086,0.004992693662643433,2023-10-20T11:57:02.010390Z,1697803022010
0.12929534912109375,0.17794418334960938,0.004188820719718933,2023-10-20T11:57:02.027325Z,1697803022027
0.0935359001159668,0.130340576171875,0.0030098706483840942,2023-10-20T11:57:02.048111Z,1697803022048
0.056253910064697266,0.07928752899169922,0.0016915500164031982,2023-10-20T11:57:02.068161Z,1697803022068
0.020658016204833984,0.029389381408691406,5.300194025039673E-4,2023-10-20T11:57:02.088159Z,1697803022088
-0.009937286376953125,-0.01422882080078125,-1.84573233127594E-4,2023-10-20T11:57:02.109873Z,1697803022109
-0.032563209533691406,-0.0467686653137207,-2.9046833515167236E-4,2023-10-20T11:57:02.128885Z,1697803022128
-0.04493570327758789,-0.0645136833190918,1.5976466238498688E-4,2023-10-20T11:57:02.149491Z,1697803022149
-0.0456233024597168,-0.06527853012084961,8.517801761627197E-4,2023-10-20T11:57:02.169721Z,1697803022169
-0.03383445739746094,-0.0481257438659668,0.0012102872133255005,2023-10-20T11:57:02.189642Z,1697803022189
-0.00978994369506836,-0.013816356658935547,5.32001256942749E-4,2023-10-20T11:57:02.209990Z,1697803022209
0.02423572540283203,0.0339055061340332,-0.0017828643321990967,2023-10-20T11:57:02.230012Z,1697803022229
0.06469488143920898,0.08966255187988281,-0.005989670753479004,2023-10-20T11:57:02.250239Z,1697803022250
0.10770845413208008,0.1478891372680664,-0.011953949928283691,2023-10-20T11:57:02.270623Z,1697803022270
0.14937543869018555,0.20326900482177734,-0.019168555736541748,2023-10-20T11:57:02.293618Z,1697803022293
0.18640995025634766,0.25150632858276367,-0.02692246437072754,2023-10-20T11:57:02.310613Z,1697803022310
0.21584033966064453,0.2888164520263672,-0.03434115648269653,2023-10-20T11:57:02.331602Z,1697803022331
0.23572921752929688,0.31282854080200195,-0.04061734676361084,2023-10-20T11:57:02.351729Z,1697803022351
0.24587345123291016,0.3234868049621582,-0.045267581939697266,2023-10-20T11:57:02.372308Z,1697803022372
0.24809741973876953,0.3233766555786133,-0.04831421375274658,2023-10-20T11:57:02.393564Z,1697803022393
0.24548768997192383,0.31673383712768555,-0.05022728443145752,2023-10-20T11:57:02.412114Z,1697803022412
0.2413015365600586,0.3079514503479004,-0.051633358001708984,2023-10-20T11:57:02.432902Z,1697803022432
0.2382969856262207,0.30069494247436523,-0.05316579341888428,2023-10-20T11:57:02.452942Z,1697803022452
0.2389535903930664,0.29812002182006836,-0.055478453636169434,2023-10-20T11:57:02.472986Z,1697803022472
0.2449803352355957,0.30228757858276367,-0.05905771255493164,2023-10-20T11:57:02.493469Z,1697803022493
0.25685977935791016,0.31364870071411133,-0.06411612033843994,2023-10-20T11:57:02.514204Z,1697803022514
0.2734718322753906,0.3307456970214844,-0.07040297985076904,2023-10-20T11:57:02.534207Z,1697803022534
0.29305315017700195,0.35143375396728516,-0.07744324207305908,2023-10-20T11:57:02.553768Z,1697803022553
0.3137388229370117,0.37354373931884766,-0.08468329906463623,2023-10-20T11:57:02.576763Z,1697803022576
0.33321285247802734,0.3944993019104004,-0.09140801429748535,2023-10-20T11:57:02.594694Z,1697803022594
0.3486804962158203,0.4112420082092285,-0.09673047065734863,2023-10-20T11:57:02.614819Z,1697803022614
0.357086181640625,0.4204216003417969,-0.09967911243438721,2023-10-20T11:57:02.636202Z,1697803022636
0.35559701919555664,0.4188370704650879,-0.09933793544769287,2023-10-20T11:57:02.655495Z,1697803022655
0.34202003479003906,0.4038734436035156,-0.09505248069763184,2023-10-20T11:57:02.676366Z,1697803022676
0.31615352630615234,0.37504100799560547,-0.08691585063934326,2023-10-20T11:57:02.696451Z,1697803022696
0.2796931266784668,0.33394861221313477,-0.07568395137786865,2023-10-20T11:57:02.716630Z,1697803022716
0.2364048957824707,0.2846078872680664,-0.06273221969604492,2023-10-20T11:57:02.736802Z,1697803022736
0.18999099731445312,0.23102998733520508,-0.04929924011230469,2023-10-20T11:57:02.759717Z,1697803022759
0.14405107498168945,0.17724323272705078,-0.03647780418395996,2023-10-20T11:57:02.777103Z,1697803022777
0.10200834274291992,0.12721920013427734,-0.025164484977722168,2023-10-20T11:57:02.797822Z,1697803022797
0.06741619110107422,0.08534669876098633,-0.016185998916625977,2023-10-20T11:57:02.817950Z,1697803022817
0.04281330108642578,0.05507946014404297,-0.009990930557250977,2023-10-20T11:57:02.837920Z,1697803022837
0.029476165771484375,0.038571834564208984,-0.0066765546798706055,2023-10-20T11:57:02.860132Z,1697803022860
0.027108192443847656,0.03610372543334961,-0.005951046943664551,2023-10-20T11:57:02.878647Z,1697803022878
0.03409290313720703,0.046228885650634766,-0.007232785224914551,2023-10-20T11:57:02.898570Z,1697803022898
0.04842042922973633,0.06685304641723633,-0.009881138801574707,2023-10-20T11:57:02.919041Z,1697803022918
0.06730222702026367,0.09459543228149414,-0.01313638687133789,2023-10-20T11:57:02.939219Z,1697803022939
0.08801937103271484,0.1258854866027832,-0.016312003135681152,2023-10-20T11:57:02.959791Z,1697803022959
0.10793495178222656,0.15697765350341797,-0.018814384937286377,2023-10-20T11:57:02.979812Z,1697803022979
0.12479162216186523,0.18439960479736328,-0.0202367901802063,2023-10-20T11:57:03.000668Z,1697803023000
0.1368117332458496,0.2051982879638672,-0.02037137746810913,2023-10-20T11:57:03.020724Z,1697803023020
0.1436295509338379,0.21845531463623047,-0.019372284412384033,2023-10-20T11:57:03.042999Z,1697803023042
0.1459822654724121,0.22493457794189453,-0.01757979393005371,2023-10-20T11:57:03.060951Z,1697803023060
0.14551973342895508,0.22691822052001953,-0.015408813953399658,2023-10-20T11:57:03.081296Z,1697803023081
0.1438126564025879,0.22678375244140625,-0.013180464506149292,2023-10-20T11:57:03.101794Z,1697803023101
0.14150094985961914,0.2256450653076172,-0.011024445295333862,2023-10-20T11:57:03.121967Z,1697803023121
0.13855981826782227,0.22358226776123047,-0.00897243618965149,2023-10-20T11:57:03.142800Z,1697803023142
0.13489532470703125,0.2205028533935547,-0.007053375244140625,2023-10-20T11:57:03.162777Z,1697803023162
0.1305828094482422,0.21647930145263672,-0.005293413996696472,2023-10-20T11:57:03.182451Z,1697803023182
0.12595462799072266,0.21199703216552734,-0.0037328749895095825,2023-10-20T11:57:03.202929Z,1697803023202
0.1213846206665039,0.2076129913330078,-0.0023962408304214478,2023-10-20T11:57:03.225910Z,1697803023225
0.11667203903198242,0.20291900634765625,-0.0012614578008651733,2023-10-20T11:57:03.243105Z,1697803023243
0.11142492294311523,0.19711875915527344,-3.252662718296051E-4,2023-10-20T11:57:03.263940Z,1697803023263
0.10527372360229492,0.18939971923828125,4.0411390364170074E-4,2023-10-20T11:57:03.283964Z,1697803023283
0.09803342819213867,0.17923641204833984,9.16358083486557E-4,2023-10-20T11:57:03.304435Z,1697803023304
0.08971214294433594,0.16643619537353516,0.0012285932898521423,2023-10-20T11:57:03.326090Z,1697803023326
0.08065032958984375,0.15151309967041016,0.0013473927974700928,2023-10-20T11:57:03.345120Z,1697803023345
0.07124805450439453,0.13521289825439453,0.001301892101764679,2023-10-20T11:57:03.365048Z,1697803023364
0.061756134033203125,0.11812210083007812,0.0011223703622817993,2023-10-20T11:57:03.385022Z,1697803023384
0.05198526382446289,0.10001564025878906,8.482709527015686E-4,2023-10-20T11:57:03.405456Z,1697803023405
0.0414280891418457,0.08002471923828125,5.316063761711121E-4,2023-10-20T11:57:03.425961Z,1697803023425
0.029964447021484375,0.05801200866699219,2.3153796792030334E-4,2023-10-20T11:57:03.445482Z,1697803023445
0.018100261688232422,0.03505992889404297,1.4316989108920097E-5,2023-10-20T11:57:03.466593Z,1697803023466
0.006430149078369141,0.012440681457519531,-5.129724740982056E-5,2023-10-20T11:57:03.486880Z,1697803023486
-0.004055976867675781,-0.007824897766113281,7.808953523635864E-5,2023-10-20T11:57:03.509286Z,1697803023509
-0.01181650161743164,-0.022696495056152344,3.906339406967163E-4,2023-10-20T11:57:03.526924Z,1697803023526
-0.015285968780517578,-0.02917194366455078,7.551908493041992E-4,2023-10-20T11:57:03.547634Z,1697803023547
-0.01349020004272461,-0.02552032470703125,9.191632270812988E-4,2023-10-20T11:57:03.567728Z,1697803023567
-0.0062770843505859375,-0.011746406555175781,5.539655685424805E-4,2023-10-20T11:57:03.588280Z,1697803023588
0.005882740020751953,0.010866165161132812,-6.423592567443848E-4,2023-10-20T11:57:03.609596Z,1697803023609
0.022575855255126953,0.04105567932128906,-0.0029329657554626465,2023-10-20T11:57:03.628746Z,1697803023628
0.04318571090698242,0.07718753814697266,-0.006475329399108887,2023-10-20T11:57:03.648814Z,1697803023648
0.06664514541625977,0.11685752868652344,-0.011241137981414795,2023-10-20T11:57:03.668927Z,1697803023668
0.09213113784790039,0.15823841094970703,-0.01712256669998169,2023-10-20T11:57:03.692681Z,1697803023692
0.11898660659790039,0.19990253448486328,-0.02396833896636963,2023-10-20T11:57:03.709873Z,1697803023709
0.1461796760559082,0.23999881744384766,-0.03149592876434326,2023-10-20T11:57:03.729458Z,1697803023729
0.17251062393188477,0.2766866683959961,-0.03934752941131592,2023-10-20T11:57:03.750010Z,1697803023749
0.19704723358154297,0.30877113342285156,-0.04721546173095703,2023-10-20T11:57:03.770276Z,1697803023770
0.21927881240844727,0.3358783721923828,-0.05489623546600342,2023-10-20T11:57:03.792746Z,1697803023792
0.23928499221801758,0.35858631134033203,-0.06237053871154785,2023-10-20T11:57:03.810329Z,1697803023810
0.2571988105773926,0.3775339126586914,-0.06966102123260498,2023-10-20T11:57:03.830412Z,1697803023830
0.27362966537475586,0.3939228057861328,-0.07690310478210449,2023-10-20T11:57:03.851115Z,1697803023851
0.28952550888061523,0.4092850685119629,-0.0843203067779541,2023-10-20T11:57:03.871349Z,1697803023871
0.30571699142456055,0.42485523223876953,-0.09208321571350098,2023-10-20T11:57:03.892144Z,1697803023892
0.32233715057373047,0.44087886810302734,-0.1001349687576294,2023-10-20T11:57:03.912380Z,1697803023912
0.3389301300048828,0.45685386657714844,-0.10826492309570312,2023-10-20T11:57:03.932394Z,1697803023932
0.3546872138977051,0.4718136787414551,-0.11613345146179199,2023-10-20T11:57:03.952659Z,1697803023952
0.36867761611938477,0.48459815979003906,-0.12333464622497559,2023-10-20T11:57:03.975742Z,1697803023975
0.380096435546875,0.4942760467529297,-0.12948369979858398,2023-10-20T11:57:03.992649Z,1697803023992
0.38819074630737305,0.5000371932983398,-0.13420844078063965,2023-10-20T11:57:04.013188Z,1697803024013
0.39144372940063477,0.5002317428588867,-0.13692736625671387,2023-10-20T11:57:04.033692Z,1697803024033
0.38796234130859375,0.4928417205810547,-0.13697123527526855,2023-10-20T11:57:04.053719Z,1697803024053
0.37617063522338867,0.4762263298034668,-0.13382601737976074,2023-10-20T11:57:04.075860Z,1697803024075
0.35558366775512695,0.44991302490234375,-0.12735652923583984,2023-10-20T11:57:04.094471Z,1697803024094
0.3271050453186035,0.4148416519165039,-0.11791586875915527,2023-10-20T11:57:04.114549Z,1697803024114
0.2924203872680664,0.3726844787597656,-0.1060781478881836,2023-10-20T11:57:04.135013Z,1697803024134
0.25390100479125977,0.32588911056518555,-0.09264373779296875,2023-10-20T11:57:04.154961Z,1697803024154
0.21410226821899414,0.2773323059082031,-0.0785222053527832,2023-10-20T11:57:04.175670Z,1697803024175
0.1754302978515625,0.22980546951293945,-0.06461095809936523,2023-10-20T11:57:04.195461Z,1697803024195
0.13982582092285156,0.18562650680541992,-0.05166363716125488,2023-10-20T11:57:04.215607Z,1697803024215
0.10943078994750977,0.1475067138671875,-0.04050850868225098,2023-10-20T11:57:04.236732Z,1697803024236
0.0859222412109375,0.11776924133300781,-0.03180718421936035,2023-10-20T11:57:04.258439Z,1697803024258
0.06998538970947266,0.09764289855957031,-0.025841474533081055,2023-10-20T11:57:04.276810Z,1697803024276
0.0612640380859375,0.0870671272277832,-0.022481441497802734,2023-10-20T11:57:04.297559Z,1697803024297
0.058685302734375,0.08499860763549805,-0.021311283111572266,2023-10-20T11:57:04.317420Z,1697803024317
0.061598777770996094,0.09095191955566406,-0.02202463150024414,2023-10-20T11:57:04.337804Z,1697803024337
0.06897306442260742,0.1038370132446289,-0.024158477783203125,2023-10-20T11:57:04.358399Z,1697803024358
0.07959413528442383,0.12215232849121094,-0.027149558067321777,2023-10-20T11:57:04.377956Z,1697803024377
0.09229850769042969,0.14427661895751953,-0.030454158782958984,2023-10-20T11:57:04.398904Z,1697803024398
0.10649442672729492,0.1692800521850586,-0.03374147415161133,2023-10-20T11:57:04.418313Z,1697803024418
0.12203836441040039,0.1968555450439453,-0.03684186935424805,2023-10-20T11:57:04.442114Z,1697803024442
0.1389012336730957,0.2268829345703125,-0.03965187072753906,2023-10-20T11:57:04.459151Z,1697803024459
0.1568312644958496,0.25893211364746094,-0.04204285144805908,2023-10-20T11:57:04.479969Z,1697803024479
0.17534208297729492,0.2922401428222656,-0.043874382972717285,2023-10-20T11:57:04.499807Z,1697803024499
0.1934208869934082,0.3251981735229492,-0.04494905471801758,2023-10-20T11:57:04.519972Z,1697803024519
0.20975637435913086,0.3556489944458008,-0.045072078704833984,2023-10-20T11:57:04.541586Z,1697803024541
0.22306203842163086,0.3813772201538086,-0.044149160385131836,2023-10-20T11:57:04.560688Z,1697803024560
0.2324657440185547,0.4007587432861328,-0.042239367961883545,2023-10-20T11:57:04.581086Z,1697803024581
0.23754167556762695,0.4128913879394531,-0.03952443599700928,2023-10-20T11:57:04.601095Z,1697803024601
0.23816490173339844,0.41737937927246094,-0.03621721267700195,2023-10-20T11:57:04.624986Z,1697803024624
0.23455142974853516,0.41432952880859375,-0.03256344795227051,2023-10-20T11:57:04.642538Z,1697803024642
0.2272357940673828,0.4043264389038086,-0.028829574584960938,2023-10-20T11:57:04.662129Z,1697803024662
0.21701431274414062,0.38837432861328125,-0.025258302688598633,2023-10-20T11:57:04.682565Z,1697803024682
0.2044668197631836,0.3672475814819336,-0.022000372409820557,2023-10-20T11:57:04.702639Z,1697803024702
0.19007110595703125,0.3417634963989258,-0.019143342971801758,2023-10-20T11:57:04.725276Z,1697803024725
0.17435550689697266,0.31304454803466797,-0.016742795705795288,2023-10-20T11:57:04.742468Z,1697803024742
0.15822505950927734,0.2829904556274414,-0.014853566884994507,2023-10-20T11:57:04.763206Z,1697803024763
0.1430196762084961,0.25423336029052734,-0.0135364830493927,2023-10-20T11:57:04.783882Z,1697803024783
0.13000059127807617,0.22920989990234375,-0.012825816869735718,2023-10-20T11:57:04.803954Z,1697803024803
0.12001180648803711,0.2095327377319336,-0.012740731239318848,2023-10-20T11:57:04.825655Z,1697803024825
0.1133275032043457,0.1957550048828125,-0.013290822505950928,2023-10-20T11:57:04.844600Z,1697803024844
0.11003541946411133,0.18801307678222656,-0.014524102210998535,2023-10-20T11:57:04.864917Z,1697803024864
0.1102137565612793,0.18634319305419922,-0.016551494598388672,2023-10-20T11:57:04.884790Z,1697803024884
0.1140127182006836,0.19089889526367188,-0.01956552267074585,2023-10-20T11:57:04.909090Z,1697803024909
0.12136316299438477,0.2014331817626953,-0.023757100105285645,2023-10-20T11:57:04.925855Z,1697803024925
0.13166475296020508,0.21687984466552734,-0.029231548309326172,2023-10-20T11:57:04.945581Z,1697803024945
0.14399147033691406,0.23564529418945312,-0.035949110984802246,2023-10-20T11:57:04.965829Z,1697803024965
0.1569805145263672,0.2554893493652344,-0.043633341789245605,2023-10-20T11:57:04.985862Z,1697803024985
0.16922903060913086,0.2740898132324219,-0.05182778835296631,2023-10-20T11:57:05.008648Z,1697803025008
0.17963743209838867,0.28957080841064453,-0.059972286224365234,2023-10-20T11:57:05.026542Z,1697803025026
0.18764543533325195,0.30091285705566406,-0.06758010387420654,2023-10-20T11:57:05.046505Z,1697803025046
0.19307422637939453,0.3077201843261719,-0.07425379753112793,2023-10-20T11:57:05.067179Z,1697803025067
0.19605684280395508,0.3102073669433594,-0.07976651191711426,2023-10-20T11:57:05.087150Z,1697803025087
0.19689607620239258,0.30892181396484375,-0.08405303955078125,2023-10-20T11:57:05.107814Z,1697803025107
0.1967167854309082,0.30571746826171875,-0.08751678466796875,2023-10-20T11:57:05.127762Z,1697803025127
0.19690942764282227,0.30282115936279297,-0.09077858924865723,2023-10-20T11:57:05.148245Z,1697803025148
0.19865846633911133,0.3021574020385742,-0.09447050094604492,2023-10-20T11:57:05.168256Z,1697803025168
0.2027449607849121,0.30500221252441406,-0.09905672073364258,2023-10-20T11:57:05.191365Z,1697803025191
0.20957422256469727,0.3120546340942383,-0.10480570793151855,2023-10-20T11:57:05.208941Z,1697803025208
0.21952390670776367,0.3238868713378906,-0.11193203926086426,2023-10-20T11:57:05.229023Z,1697803025228
0.23233795166015625,0.3400764465332031,-0.12024545669555664,2023-10-20T11:57:05.249770Z,1697803025249
0.24715852737426758,0.35932254791259766,-0.1291651725769043,2023-10-20T11:57:05.269565Z,1697803025269
0.2621450424194336,0.37897682189941406,-0.13753056526184082,2023-10-20T11:57:05.291129Z,1697803025291
0.27533531188964844,0.39621925354003906,-0.14406466484069824,2023-10-20T11:57:05.310457Z,1697803025310
0.28499269485473633,0.4084930419921875,-0.14763641357421875,2023-10-20T11:57:05.330435Z,1697803025330
0.28952836990356445,0.41344356536865234,-0.1473093032836914,2023-10-20T11:57:05.350873Z,1697803025350
0.287813663482666,0.40943479537963867,-0.14261841773986816,2023-10-20T11:57:05.370624Z,1697803025370
0.2790193557739258,0.3953981399536133,-0.13352489471435547,2023-10-20T11:57:05.391315Z,1697803025391
0.2630734443664551,0.3713874816894531,-0.12059497833251953,2023-10-20T11:57:05.411634Z,1697803025411
0.24060678482055664,0.33846473693847656,-0.10485959053039551,2023-10-20T11:57:05.432268Z,1697803025432
0.21315240859985352,0.2988772392272949,-0.08770346641540527,2023-10-20T11:57:05.452621Z,1697803025452
0.18285655975341797,0.2556753158569336,-0.07057619094848633,2023-10-20T11:57:05.474718Z,1697803025474
0.15273427963256836,0.2130274772644043,-0.05495142936706543,2023-10-20T11:57:05.492183Z,1697803025492
0.1257634162902832,0.17504262924194336,-0.04192161560058594,2023-10-20T11:57:05.513181Z,1697803025513
0.10423994064331055,0.14488458633422852,-0.031999945640563965,2023-10-20T11:57:05.533416Z,1697803025533
0.08991765975952148,0.1249532699584961,-0.025275230407714844,2023-10-20T11:57:05.553221Z,1697803025553
0.08395671844482422,0.11681127548217773,-0.02148735523223877,2023-10-20T11:57:05.574463Z,1697803025574
0.08705759048461914,0.1214456558227539,-0.020178794860839844,2023-10-20T11:57:05.593499Z,1697803025593
0.09912681579589844,0.13881301879882812,-0.020691394805908203,2023-10-20T11:57:05.614051Z,1697803025614
0.1188054084777832,0.16718101501464844,-0.022191762924194336,2023-10-20T11:57:05.634775Z,1697803025634
0.14408540725708008,0.20395851135253906,-0.02391737699508667,2023-10-20T11:57:05.657469Z,1697803025657
0.17259979248046875,0.24600505828857422,-0.02524656057357788,2023-10-20T11:57:05.674817Z,1697803025674
0.2019968032836914,0.2901287078857422,-0.02581191062927246,2023-10-20T11:57:05.695091Z,1697803025695
0.2302532196044922,0.3334474563598633,-0.025502264499664307,2023-10-20T11:57:05.715593Z,1697803025715
0.2552804946899414,0.3728666305541992,-0.024353444576263428,2023-10-20T11:57:05.736107Z,1697803025736
0.2755002975463867,0.40587615966796875,-0.022585749626159668,2023-10-20T11:57:05.757406Z,1697803025757
0.28978919982910156,0.4305534362792969,-0.02048701047897339,2023-10-20T11:57:05.776589Z,1697803025776
0.29796695709228516,0.44623565673828125,-0.01838633418083191,2023-10-20T11:57:05.796856Z,1697803025796
0.3002324104309082,0.4528980255126953,-0.016568362712860107,2023-10-20T11:57:05.816895Z,1697803025816
0.29695749282836914,0.45082664489746094,-0.01521262526512146,2023-10-20T11:57:05.837040Z,1697803025836
0.2883124351501465,0.4400320053100586,-0.014361292123794556,2023-10-20T11:57:05.857472Z,1697803025857
0.27454423904418945,0.4207172393798828,-0.013946712017059326,2023-10-20T11:57:05.877725Z,1697803025877
0.2562556266784668,0.3936920166015625,-0.01384994387626648,2023-10-20T11:57:05.898109Z,1697803025898
0.23460006713867188,0.36073780059814453,-0.013926684856414795,2023-10-20T11:57:05.918012Z,1697803025917
0.21133899688720703,0.3246431350708008,-0.014064818620681763,2023-10-20T11:57:05.941019Z,1697803025940
0.18811321258544922,0.28812217712402344,-0.014184117317199707,2023-10-20T11:57:05.958276Z,1697803025958
0.16623830795288086,0.25339603424072266,-0.01424899697303772,2023-10-20T11:57:05.978792Z,1697803025978
0.1460285186767578,0.22119140625,-0.014195024967193604,2023-10-20T11:57:05.999463Z,1697803025999
0.1273822784423828,0.19153308868408203,-0.013960003852844238,2023-10-20T11:57:06.019777Z,1697803026019
0.11044979095458984,0.16472625732421875,-0.013557255268096924,2023-10-20T11:57:06.040982Z,1697803026040
0.09595012664794922,0.1418628692626953,-0.013105154037475586,2023-10-20T11:57:06.060017Z,1697803026059
0.08492088317871094,0.1244211196899414,-0.012828290462493896,2023-10-20T11:57:06.080553Z,1697803026080
0.07800102233886719,0.11321353912353516,-0.01294928789138794,2023-10-20T11:57:06.100623Z,1697803026100
0.07493782043457031,0.10773468017578125,-0.013571023941040039,2023-10-20T11:57:06.120549Z,1697803026120
0.07478523254394531,0.10648918151855469,-0.014655232429504395,2023-10-20T11:57:06.140664Z,1697803026140
0.07635068893432617,0.1076517105102539,-0.01605391502380371,2023-10-20T11:57:06.161177Z,1697803026161
0.07854461669921875,0.10961532592773438,-0.017559051513671875,2023-10-20T11:57:06.181480Z,1697803026181
0.08073568344116211,0.11144876480102539,-0.01902008056640625,2023-10-20T11:57:06.201902Z,1697803026201
0.08281373977661133,0.1129922866821289,-0.02038276195526123,2023-10-20T11:57:06.223974Z,1697803026223
0.0849452018737793,0.11447000503540039,-0.021673917770385742,2023-10-20T11:57:06.241977Z,1697803026241
0.08745145797729492,0.11631393432617188,-0.02297341823577881,2023-10-20T11:57:06.262560Z,1697803026262
0.09068155288696289,0.11899423599243164,-0.024387478828430176,2023-10-20T11:57:06.283277Z,1697803026283
0.09474325180053711,0.12267303466796875,-0.025966405868530273,2023-10-20T11:57:06.303283Z,1697803026303
0.09977102279663086,0.12754535675048828,-0.027767658233642578,2023-10-20T11:57:06.324108Z,1697803026324
0.10597705841064453,0.1339244842529297,-0.02987504005432129,2023-10-20T11:57:06.343112Z,1697803026343
0.11410665512084961,0.14278936386108398,-0.03251981735229492,2023-10-20T11:57:06.363893Z,1697803026363
0.12513065338134766,0.15537452697753906,-0.03600656986236572,2023-10-20T11:57:06.384318Z,1697803026384
0.1396946907043457,0.1725025177001953,-0.04054057598114014,2023-10-20T11:57:06.407356Z,1697803026407
0.1574869155883789,0.19383478164672852,-0.04603266716003418,2023-10-20T11:57:06.424809Z,1697803026424
0.17738628387451172,0.21811723709106445,-0.05213630199432373,2023-10-20T11:57:06.444861Z,1697803026444
0.19729995727539062,0.2429370880126953,-0.05819368362426758,2023-10-20T11:57:06.465351Z,1697803026465
0.2149491310119629,0.26564693450927734,-0.06347239017486572,2023-10-20T11:57:06.485590Z,1697803026485
0.22890949249267578,0.2844963073730469,-0.06751036643981934,2023-10-20T11:57:06.507391Z,1697803026507
0.23891687393188477,0.29903554916381836,-0.07021152973175049,2023-10-20T11:57:06.525910Z,1697803026525
0.24553203582763672,0.3097386360168457,-0.07174849510192871,2023-10-20T11:57:06.546627Z,1697803026546
0.24891090393066406,0.31658172607421875,-0.0721735954284668,2023-10-20T11:57:06.566648Z,1697803026566
0.2487030029296875,0.31894826889038086,-0.07140588760375977,2023-10-20T11:57:06.586459Z,1697803026586
0.24473905563354492,0.3165159225463867,-0.06943750381469727,2023-10-20T11:57:06.606788Z,1697803026606
0.2374558448791504,0.30973052978515625,-0.06644272804260254,2023-10-20T11:57:06.627701Z,1697803026627
0.22783613204956055,0.29976940155029297,-0.0627753734588623,2023-10-20T11:57:06.648336Z,1697803026648
0.21741437911987305,0.2886056900024414,-0.058925747871398926,2023-10-20T11:57:06.668220Z,1697803026668
0.2078409194946289,0.2784099578857422,-0.05539286136627197,2023-10-20T11:57:06.690299Z,1697803026690
0.20034265518188477,0.2709050178527832,-0.05251204967498779,2023-10-20T11:57:06.707874Z,1697803026707
0.1951742172241211,0.2665576934814453,-0.050319552421569824,2023-10-20T11:57:06.729253Z,1697803026729
0.1919107437133789,0.26492786407470703,-0.04867279529571533,2023-10-20T11:57:06.749526Z,1697803026749
0.1898970603942871,0.26521778106689453,-0.04737412929534912,2023-10-20T11:57:06.769282Z,1697803026769
0.18859338760375977,0.26671314239501953,-0.046264052391052246,2023-10-20T11:57:06.790150Z,1697803026790
0.18751287460327148,0.26867198944091797,-0.0452122688293457,2023-10-20T11:57:06.810230Z,1697803026810
0.18629789352416992,0.27050065994262695,-0.044129252433776855,2023-10-20T11:57:06.830624Z,1697803026830
0.18476009368896484,0.2718009948730469,-0.04297351837158203,2023-10-20T11:57:06.850880Z,1697803026850
0.18282222747802734,0.27234840393066406,-0.04173135757446289,2023-10-20T11:57:06.870028Z,1697803026869
0.1801748275756836,0.2716054916381836,-0.04034900665283203,2023-10-20T11:57:06.890167Z,1697803026890
0.17648696899414062,0.26903438568115234,-0.038767099380493164,2023-10-20T11:57:06.911192Z,1697803026911
0.171478271484375,0.2641773223876953,-0.036956787109375,2023-10-20T11:57:06.931020Z,1697803026930
0.16506671905517578,0.25684452056884766,-0.03492939472198486,2023-10-20T11:57:06.951657Z,1697803026951
0.15801572799682617,0.24814224243164062,-0.03287696838378906,2023-10-20T11:57:06.973239Z,1697803026973
0.15134000778198242,0.23963356018066406,-0.031036376953125,2023-10-20T11:57:06.992137Z,1697803026992
0.14598321914672852,0.2328481674194336,-0.02959418296813965,2023-10-20T11:57:07.012266Z,1697803027012
0.14240598678588867,0.22861671447753906,-0.028617024421691895,2023-10-20T11:57:07.032771Z,1697803027032
0.1404895782470703,0.22686386108398438,-0.02805352210998535,2023-10-20T11:57:07.052474Z,1697803027052
0.13984298706054688,0.22703933715820312,-0.027800440788269043,2023-10-20T11:57:07.073303Z,1697803027073
0.14017105102539062,0.22868919372558594,-0.027778983116149902,2023-10-20T11:57:07.093456Z,1697803027093
0.14107179641723633,0.23113441467285156,-0.027897238731384277,2023-10-20T11:57:07.113974Z,1697803027113
0.14249467849731445,0.2342519760131836,-0.028136730194091797,2023-10-20T11:57:07.134254Z,1697803027134
0.1444873809814453,0.23810195922851562,-0.02851080894470215,2023-10-20T11:57:07.156332Z,1697803027156
0.1466689109802246,0.24205875396728516,-0.028936028480529785,2023-10-20T11:57:07.174100Z,1697803027174
0.14852571487426758,0.2452983856201172,-0.02930009365081787,2023-10-20T11:57:07.194839Z,1697803027194
0.14957189559936523,0.24703598022460938,-0.02950131893157959,2023-10-20T11:57:07.214891Z,1697803027214
0.14955997467041016,0.24686336517333984,-0.029494762420654297,2023-10-20T11:57:07.235592Z,1697803027235
0.14866018295288086,0.24503135681152344,-0.029317378997802734,2023-10-20T11:57:07.256673Z,1697803027256
0.14713239669799805,0.2419719696044922,-0.02902674674987793,2023-10-20T11:57:07.276280Z,1697803027276
0.1452336311340332,0.23811912536621094,-0.028678417205810547,2023-10-20T11:57:07.296418Z,1697803027296
0.1433420181274414,0.2341442108154297,-0.028337478637695312,2023-10-20T11:57:07.316040Z,1697803027315
0.14165878295898438,0.23042583465576172,-0.028040647506713867,2023-10-20T11:57:07.336695Z,1697803027336
0.14030885696411133,0.22721004486083984,-0.027799010276794434,2023-10-20T11:57:07.356533Z,1697803027356
0.1391129493713379,0.2242259979248047,-0.027576923370361328,2023-10-20T11:57:07.376947Z,1697803027376
0.13791465759277344,0.22124099731445312,-0.027336716651916504,2023-10-20T11:57:07.397706Z,1697803027397
0.13657760620117188,0.21804046630859375,-0.027058959007263184,2023-10-20T11:57:07.417333Z,1697803027417
0.135223388671875,0.21480941772460938,-0.02677595615386963,2023-10-20T11:57:07.439893Z,1697803027439
0.13402748107910156,0.21184253692626953,-0.026535391807556152,2023-10-20T11:57:07.458450Z,1697803027458
0.1330547332763672,0.2092571258544922,-0.02636086940765381,2023-10-20T11:57:07.478327Z,1697803027478
0.13238096237182617,0.20718955993652344,-0.026264667510986328,2023-10-20T11:57:07.498569Z,1697803027498
0.1320481300354004,0.20572566986083984,-0.026254653930664062,2023-10-20T11:57:07.518709Z,1697803027518
0.1319561004638672,0.20471668243408203,-0.026298046112060547,2023-10-20T11:57:07.539637Z,1697803027539
0.13187694549560547,0.2037944793701172,-0.026348471641540527,2023-10-20T11:57:07.559173Z,1697803027559
0.13184118270874023,0.20297718048095703,-0.02639949321746826,2023-10-20T11:57:07.579481Z,1697803027579
0.13192272186279297,0.2023611068725586,-0.026467442512512207,2023-10-20T11:57:07.600105Z,1697803027600
0.1322474479675293,0.20212268829345703,-0.026572823524475098,2023-10-20T11:57:07.622591Z,1697803027622
0.13278770446777344,0.20223522186279297,-0.026715397834777832,2023-10-20T11:57:07.640358Z,1697803027640
0.1334385871887207,0.20252704620361328,-0.02686774730682373,2023-10-20T11:57:07.660709Z,1697803027660
0.1341409683227539,0.20291519165039062,-0.027018070220947266,2023-10-20T11:57:07.681184Z,1697803027681
0.13477373123168945,0.20320987701416016,-0.027142643928527832,2023-10-20T11:57:07.701393Z,1697803027701
0.1350398063659668,0.20295143127441406,-0.02718973159790039,2023-10-20T11:57:07.722840Z,1697803027722
0.13491392135620117,0.20209026336669922,-0.027153730392456055,2023-10-20T11:57:07.741943Z,1697803027741
0.13460254669189453,0.20093631744384766,-0.02709341049194336,2023-10-20T11:57:07.762040Z,1697803027761
0.1342639923095703,0.1997365951538086,-0.027039647102355957,2023-10-20T11:57:07.782493Z,1697803027782
0.13388776779174805,0.19849777221679688,-0.026993274688720703,2023-10-20T11:57:07.802250Z,1697803027802
0.13332796096801758,0.1970062255859375,-0.026919126510620117,2023-10-20T11:57:07.822815Z,1697803027822
0.13237571716308594,0.19495391845703125,-0.0267714262008667,2023-10-20T11:57:07.843008Z,1697803027842
0.13093805313110352,0.19219398498535156,-0.026531219482421875,2023-10-20T11:57:07.863584Z,1697803027863
0.1290874481201172,0.1888132095336914,-0.02620995044708252,2023-10-20T11:57:07.883872Z,1697803027883
0.12707233428955078,0.18518638610839844,-0.02585768699645996,2023-10-20T11:57:07.906423Z,1697803027906
0.12530088424682617,0.18192386627197266,-0.0255662202835083,2023-10-20T11:57:07.924295Z,1697803027924
0.12385272979736328,0.17918777465820312,-0.02536022663116455,2023-10-20T11:57:07.944791Z,1697803027944
0.1227259635925293,0.17699432373046875,-0.02524244785308838,2023-10-20T11:57:07.965147Z,1697803027965
0.12193775177001953,0.17534875869750977,-0.02521049976348877,2023-10-20T11:57:07.984871Z,1697803027984
0.12143325805664062,0.17417240142822266,-0.025263547897338867,2023-10-20T11:57:08.005969Z,1697803028005
0.1210627555847168,0.17325639724731445,-0.025371074676513672,2023-10-20T11:57:08.025647Z,1697803028025
0.12058687210083008,0.17226934432983398,-0.025481224060058594,2023-10-20T11:57:08.046118Z,1697803028046
0.11997270584106445,0.17116403579711914,-0.025594711303710938,2023-10-20T11:57:08.065961Z,1697803028065
0.11954355239868164,0.17038869857788086,-0.02579033374786377,2023-10-20T11:57:08.088371Z,1697803028088
0.11963462829589844,0.1703958511352539,-0.026139140129089355,2023-10-20T11:57:08.106259Z,1697803028106
0.1204376220703125,0.17142152786254883,-0.026691436767578125,2023-10-20T11:57:08.126713Z,1697803028126
0.12185096740722656,0.17328310012817383,-0.0274200439453125,2023-10-20T11:57:08.147450Z,1697803028147
0.12361335754394531,0.17560291290283203,-0.028255939483642578,2023-10-20T11:57:08.167549Z,1697803028167
0.12562179565429688,0.17824220657348633,-0.02918541431427002,2023-10-20T11:57:08.189162Z,1697803028189
0.12798643112182617,0.18137073516845703,-0.030236005783081055,2023-10-20T11:57:08.208476Z,1697803028208
0.1311330795288086,0.1855916976928711,-0.03152060508728027,2023-10-20T11:57:08.228330Z,1697803028228
0.1353597640991211,0.19134235382080078,-0.033125877380371094,2023-10-20T11:57:08.248545Z,1697803028248
0.14048147201538086,0.1983799934387207,-0.03500974178314209,2023-10-20T11:57:08.268681Z,1697803028268
0.14603567123413086,0.20607948303222656,-0.03705108165740967,2023-10-20T11:57:08.289211Z,1697803028289
0.15160131454467773,0.21385955810546875,-0.039133310317993164,2023-10-20T11:57:08.309341Z,1697803028309
0.1569042205810547,0.22132539749145508,-0.04116499423980713,2023-10-20T11:57:08.329619Z,1697803028329
0.16213560104370117,0.22873497009277344,-0.0431821346282959,2023-10-20T11:57:08.349457Z,1697803028349
0.16724395751953125,0.23600006103515625,-0.04516935348510742,2023-10-20T11:57:08.372237Z,1697803028372
0.17206048965454102,0.24288034439086914,-0.04708218574523926,2023-10-20T11:57:08.389911Z,1697803028389
0.17632102966308594,0.2489933967590332,-0.04884147644042969,2023-10-20T11:57:08.410213Z,1697803028410
0.17974615097045898,0.25388526916503906,-0.05034291744232178,2023-10-20T11:57:08.430930Z,1697803028430
0.18245410919189453,0.25765037536621094,-0.05160188674926758,2023-10-20T11:57:08.451161Z,1697803028451
0.18464040756225586,0.2605247497558594,-0.05266368389129639,2023-10-20T11:57:08.472137Z,1697803028472
0.18642663955688477,0.2627077102661133,-0.0535811185836792,2023-10-20T11:57:08.492185Z,1697803028492
0.18787240982055664,0.26431941986083984,-0.05438828468322754,2023-10-20T11:57:08.512469Z,1697803028512
0.18906402587890625,0.26548290252685547,-0.05512511730194092,2023-10-20T11:57:08.532685Z,1697803028532
0.19008636474609375,0.2663240432739258,-0.05583059787750244,2023-10-20T11:57:08.555407Z,1697803028555
0.1909480094909668,0.26685523986816406,-0.0565180778503418,2023-10-20T11:57:08.572791Z,1697803028572
0.1911630630493164,0.2664632797241211,-0.05704605579376221,2023-10-20T11:57:08.592783Z,1697803028592
0.19013071060180664,0.2643709182739258,-0.0572206974029541,2023-10-20T11:57:08.613298Z,1697803028613
0.18710899353027344,0.25960636138916016,-0.05681288242340088,2023-10-20T11:57:08.633578Z,1697803028633
0.18187904357910156,0.25184059143066406,-0.055750131607055664,2023-10-20T11:57:08.655722Z,1697803028655
0.17460966110229492,0.24125289916992188,-0.054082274436950684,2023-10-20T11:57:08.674201Z,1697803028674
0.16572141647338867,0.22838401794433594,-0.0519413948059082,2023-10-20T11:57:08.694355Z,1697803028694
0.1556391716003418,0.2138347625732422,-0.049437761306762695,2023-10-20T11:57:08.715081Z,1697803028715
0.14471960067749023,0.1981186866760254,-0.046660423278808594,2023-10-20T11:57:08.734547Z,1697803028734
0.1336221694946289,0.18215370178222656,-0.043785810470581055,2023-10-20T11:57:08.755336Z,1697803028755
0.12326192855834961,0.16717863082885742,-0.041092634201049805,2023-10-20T11:57:08.774953Z,1697803028774
0.11453819274902344,0.15444707870483398,-0.038889288902282715,2023-10-20T11:57:08.795271Z,1697803028795
0.10803937911987305,0.14478731155395508,-0.03739523887634277,2023-10-20T11:57:08.815951Z,1697803028815
0.10439825057983398,0.13907527923583984,-0.03688335418701172,2023-10-20T11:57:08.838975Z,1697803028838
0.10386323928833008,0.13765954971313477,-0.03748035430908203,2023-10-20T11:57:08.856314Z,1697803028856
0.10659503936767578,0.14076709747314453,-0.039299964904785156,2023-10-20T11:57:08.876686Z,1697803028876
0.11256265640258789,0.148406982421875,-0.042380332946777344,2023-10-20T11:57:08.897234Z,1697803028897
0.1220088005065918,0.1609477996826172,-0.04687905311584473,2023-10-20T11:57:08.917681Z,1697803028917
0.13515949249267578,0.17882776260375977,-0.05294632911682129,2023-10-20T11:57:08.938856Z,1697803028938
0.15146684646606445,0.2015829086303711,-0.06041717529296875,2023-10-20T11:57:08.957929Z,1697803028957
0.16984224319458008,0.22809648513793945,-0.06882667541503906,2023-10-20T11:57:08.978036Z,1697803028977
0.18945932388305664,0.25745630264282227,-0.07767033576965332,2023-10-20T11:57:08.998775Z,1697803028998
0.21070051193237305,0.29019927978515625,-0.0868678092956543,2023-10-20T11:57:09.018066Z,1697803029018
0.23433351516723633,0.32734060287475586,-0.0964348316192627,2023-10-20T11:57:09.038565Z,1697803029038
0.2610774040222168,0.3698716163635254,-0.10639214515686035,2023-10-20T11:57:09.058870Z,1697803029058
0.2911801338195801,0.4181547164916992,-0.11654472351074219,2023-10-20T11:57:09.079203Z,1697803029079
0.3241457939147949,0.4713153839111328,-0.1262955665588379,2023-10-20T11:57:09.100017Z,1697803029099
0.3590264320373535,0.5277032852172852,-0.13481521606445312,2023-10-20T11:57:09.122406Z,1697803029122
0.39525794982910156,0.5860409736633301,-0.14142131805419922,2023-10-20T11:57:09.140145Z,1697803029140
0.4327054023742676,0.6456756591796875,-0.14569151401519775,2023-10-20T11:57:09.160181Z,1697803029160
0.4715108871459961,0.7064571380615234,-0.14750909805297852,2023-10-20T11:57:09.180907Z,1697803029180
0.5113363265991211,0.76763916015625,-0.1467270851135254,2023-10-20T11:57:09.201144Z,1697803029201
0.5509157180786133,0.8270301818847656,-0.14302396774291992,2023-10-20T11:57:09.222192Z,1697803029222
0.5888142585754395,0.8819847106933594,-0.1360408067703247,2023-10-20T11:57:09.241408Z,1697803029241
0.6235165596008301,0.9296102523803711,-0.1254640817642212,2023-10-20T11:57:09.261711Z,1697803029261
0.6541752815246582,0.9680004119873047,-0.11124110221862793,2023-10-20T11:57:09.282196Z,1697803029282
0.6807670593261719,0.9966115951538086,-0.09366077184677124,2023-10-20T11:57:09.305101Z,1697803029305
0.7027907371520996,1.0147294998168945,-0.07315582036972046,2023-10-20T11:57:09.321867Z,1697803029321
0.7183942794799805,1.0202198028564453,-0.05009862780570984,2023-10-20T11:57:09.342577Z,1697803029342
0.7253861427307129,1.0101566314697266,-0.02512238919734955,2023-10-20T11:57:09.362362Z,1697803029362
0.7230720520019531,0.9833688735961914,9.296797215938568E-4,2023-10-20T11:57:09.383596Z,1697803029383
0.712435245513916,0.9410467147827148,0.027172505855560303,2023-10-20T11:57:09.405029Z,1697803029404
0.6940140724182129,0.885225772857666,0.05259835720062256,2023-10-20T11:57:09.423765Z,1697803029423
0.6668596267700195,0.8171348571777344,0.07590025663375854,2023-10-20T11:57:09.444285Z,1697803029444
0.6294231414794922,0.7372007369995117,0.09543716907501221,2023-10-20T11:57:09.464601Z,1697803029464
0.5804009437561035,0.6463065147399902,0.10943293571472168,2023-10-20T11:57:09.488428Z,1697803029488
0.5185360908508301,0.5460081100463867,0.11622583866119385,2023-10-20T11:57:09.505400Z,1697803029505
0.44295597076416016,0.43863821029663086,0.11434793472290039,2023-10-20T11:57:09.525606Z,1697803029525
0.3528275489807129,0.3268165588378906,0.10243535041809082,2023-10-20T11:57:09.546150Z,1697803029546
0.24766159057617188,0.21332836151123047,0.07940816879272461,2023-10-20T11:57:09.565895Z,1697803029565
0.12668323516845703,0.10081863403320312,0.044243574142456055,2023-10-20T11:57:09.588283Z,1697803029588
-0.010332107543945312,-0.0075435638427734375,-0.003889799118041992,2023-10-20T11:57:09.605705Z,1697803029605
-0.1610879898071289,-0.10698938369750977,-0.06476449966430664,2023-10-20T11:57:09.626656Z,1697803029626
-0.32024145126342773,-0.19140625,-0.1363532543182373,2023-10-20T11:57:09.646721Z,1697803029646
-0.48096656799316406,-0.25536012649536133,-0.21519231796264648,2023-10-20T11:57:09.666910Z,1697803029666
-0.6374788284301758,-0.29597020149230957,-0.2978057861328125,2023-10-20T11:57:09.688572Z,1697803029688
-0.7847738265991211,-0.31221437454223633,-0.3809840679168701,2023-10-20T11:57:09.707022Z,1697803029706
-0.9176359176635742,-0.3041818141937256,-0.46146512031555176,2023-10-20T11:57:09.728455Z,1697803029728
-1.029921054840088,-0.2730213403701782,-0.534996509552002,2023-10-20T11:57:09.748481Z,1697803029748
-1.118924617767334,-0.22321105003356934,-0.5987272262573242,2023-10-20T11:57:09.767806Z,1697803029767
-1.188157558441162,-0.16122972965240479,-0.6529121398925781,2023-10-20T11:57:09.788535Z,1697803029788
-1.2450666427612305,-0.09252381324768066,-0.7002577781677246,2023-10-20T11:57:09.808621Z,1697803029808
-1.2962136268615723,-0.02002616971731186,-0.7434325218200684,2023-10-20T11:57:09.829346Z,1697803029829
-1.3457207679748535,0.055322229862213135,-0.7839255332946777,2023-10-20T11:57:09.849353Z,1697803029849
-1.399418830871582,0.13370156288146973,-0.8245506286621094,2023-10-20T11:57:09.871342Z,1697803029871
-1.4663777351379395,0.21733033657073975,-0.8702573776245117,2023-10-20T11:57:09.889873Z,1697803029889
-1.556877613067627,0.3112783432006836,-0.9267425537109375,2023-10-20T11:57:09.910189Z,1697803029910
-1.674015998840332,0.42274153232574463,-0.9950854778289795,2023-10-20T11:57:09.930601Z,1697803029930
-1.8100929260253906,0.5585687160491943,-1.0684173107147217,2023-10-20T11:57:09.950401Z,1697803029950
-1.953073501586914,0.7239468097686768,-1.1351585388183594,2023-10-20T11:57:09.971368Z,1697803029971
-2.090698719024658,0.9216103553771973,-1.1811602115631104,2023-10-20T11:57:09.990769Z,1697803029990
-2.2100729942321777,1.1515583992004395,-1.1908702850341797,2023-10-20T11:57:10.011271Z,1697803030011
-2.2940430641174316,1.409454107284546,-1.1492133140563965,2023-10-20T11:57:10.031743Z,1697803030031
-2.3183836936950684,1.6799402236938477,-1.042707920074463,2023-10-20T11:57:10.054663Z,1697803030054
-2.2590889930725098,1.9314556121826172,-0.86712646484375,2023-10-20T11:57:10.072235Z,1697803030072
-2.1018314361572266,2.116196632385254,-0.6343353986740112,2023-10-20T11:57:10.091951Z,1697803030091
-1.8518896102905273,2.1841301918029785,-0.3739628791809082,2023-10-20T11:57:10.112786Z,1697803030112
-1.5373072624206543,2.106419086456299,-0.12605732679367065,2023-10-20T11:57:10.133029Z,1697803030132
-1.1950640678405762,1.8874006271362305,0.07232773303985596,2023-10-20T11:57:10.154859Z,1697803030154
-0.8557999134063721,1.5494050979614258,0.19553357362747192,2023-10-20T11:57:10.173305Z,1697803030173
-0.5403108596801758,1.1185574531555176,0.22948622703552246,2023-10-20T11:57:10.193419Z,1697803030193
-0.2634701728820801,0.6241216659545898,0.17246389389038086,2023-10-20T11:57:10.214588Z,1697803030214
-0.034722089767456055,0.09442710876464844,0.03228139877319336,2023-10-20T11:57:10.234219Z,1697803030234
0.14120984077453613,-0.44406700134277344,-0.17954039573669434,2023-10-20T11:57:10.254671Z,1697803030254
0.26572561264038086,-0.9765357971191406,-0.45480918884277344,2023-10-20T11:57:10.274762Z,1697803030274
0.34381258487701416,-1.494985580444336,-0.7896833419799805,2023-10-20T11:57:10.294760Z,1697803030294
0.3822469711303711,-1.9880046844482422,-1.1794853210449219,2023-10-20T11:57:10.315639Z,1697803030315
0.3943990468978882,-2.438211441040039,-1.610525131225586,2023-10-20T11:57:10.337733Z,1697803030337
0.39827728271484375,-2.8182239532470703,-2.050204277038574,2023-10-20T11:57:10.355698Z,1697803030355
0.4041706323623657,-3.098748207092285,-2.4578537940979004,2023-10-20T11:57:10.376492Z,1697803030376
0.4126042127609253,-3.2570409774780273,-2.793215751647949,2023-10-20T11:57:10.396684Z,1697803030396
0.4152429699897766,-3.288271427154541,-3.0244927406311035,2023-10-20T11:57:10.416716Z,1697803030416
0.4121450185775757,-3.2202587127685547,-3.153378963470459,2023-10-20T11:57:10.437512Z,1697803030437
0.4050450921058655,-3.065277099609375,-3.1754088401794434,2023-10-20T11:57:10.457218Z,1697803030457
0.4011942744255066,-2.839056968688965,-3.0985536575317383,2023-10-20T11:57:10.477532Z,1697803030477
0.3972799777984619,-2.5362749099731445,-2.90248966217041,2023-10-20T11:57:10.498291Z,1697803030498
0.38954055309295654,-2.1556520462036133,-2.566962718963623,2023-10-20T11:57:10.520988Z,1697803030520
0.36130666732788086,-1.7180323600769043,-2.108598232269287,2023-10-20T11:57:10.538630Z,1697803030538
0.2985581159591675,-1.2387442588806152,-1.561319351196289,2023-10-20T11:57:10.558693Z,1697803030558
0.2048109769821167,-0.7441821098327637,-0.9613380432128906,2023-10-20T11:57:10.578635Z,1697803030578
0.08219659328460693,-0.2601146697998047,-0.34419727325439453,2023-10-20T11:57:10.599112Z,1697803030599
-0.0719149112701416,0.19272565841674805,0.2624363899230957,2023-10-20T11:57:10.621343Z,1697803030621
-0.2808535099029541,0.6120223999023438,0.8648853302001953,2023-10-20T11:57:10.639207Z,1697803030639
-0.5751571655273438,0.9798421859741211,1.4491848945617676,2023-10-20T11:57:10.659731Z,1697803030659
-0.9910299777984619,1.283111810684204,1.9974431991577148,2023-10-20T11:57:10.680053Z,1697803030680
-1.5437085628509521,1.4810888767242432,2.4443187713623047,2023-10-20T11:57:10.700384Z,1697803030700
-2.2117230892181396,1.5315537452697754,2.7248430252075195,2023-10-20T11:57:10.720820Z,1697803030720
-2.9555766582489014,1.3978991508483887,2.777482748031616,2023-10-20T11:57:10.740958Z,1697803030740
-3.677776336669922,1.087646245956421,2.5231740474700928,2023-10-20T11:57:10.761503Z,1697803030761
-4.231801986694336,0.6592977643013,1.9640259742736816,2023-10-20T11:57:10.782671Z,1697803030782
-4.470522403717041,0.20881712436676025,1.1900362968444824,2023-10-20T11:57:10.804463Z,1697803030804
-4.3340277671813965,-0.15354643762111664,0.38445156812667847,2023-10-20T11:57:10.821884Z,1697803030821
-3.9097890853881836,-0.3739688992500305,-0.2674543857574463,2023-10-20T11:57:10.841742Z,1697803030841
-3.3540096282958984,-0.46595799922943115,-0.6857465505599976,2023-10-20T11:57:10.862364Z,1697803030862
-2.779542922973633,-0.46446502208709717,-0.889801025390625,2023-10-20T11:57:10.882631Z,1697803030882
-2.24519681930542,-0.4048628807067871,-0.9301714897155762,2023-10-20T11:57:10.904149Z,1697803030904
-1.7635736465454102,-0.31880784034729004,-0.8518550395965576,2023-10-20T11:57:10.923205Z,1697803030923
-1.3326854705810547,-0.23403894901275635,-0.7032680511474609,2023-10-20T11:57:10.943506Z,1697803030943
-0.9551758766174316,-0.1617070436477661,-0.5263071060180664,2023-10-20T11:57:10.963531Z,1697803030963
-0.6383633613586426,-0.10537445545196533,-0.35701990127563477,2023-10-20T11:57:10.987825Z,1697803030987
-0.3927955627441406,-0.0639268159866333,-0.21710586547851562,2023-10-20T11:57:11.004991Z,1697803031004
-0.2353839874267578,-0.03851473331451416,-0.12482166290283203,2023-10-20T11:57:11.024456Z,1697803031024
-0.12084293365478516,-0.020685791969299316,-0.05950450897216797,2023-10-20T11:57:11.044544Z,1697803031044
0.0201416015625,0.003720998764038086,0.0089569091796875,2023-10-20T11:57:11.065200Z,1697803031065
0.2056112289428711,0.04246222972869873,0.08113408088684082,2023-10-20T11:57:11.086343Z,1697803031086
0.44356632232666016,0.10530781745910645,0.15437841415405273,2023-10-20T11:57:11.105276Z,1697803031105
0.7020645141601562,0.1937236785888672,0.21769118309020996,2023-10-20T11:57:11.125764Z,1697803031125
0.9429111480712891,0.30060577392578125,0.26393938064575195,2023-10-20T11:57:11.146320Z,1697803031146
1.1520633697509766,0.4206526279449463,0.29460668563842773,2023-10-20T11:57:11.166249Z,1697803031166
1.3428411483764648,0.5548217296600342,0.31371378898620605,2023-10-20T11:57:11.186032Z,1697803031185
1.5295276641845703,0.7074871063232422,0.3270578384399414,2023-10-20T11:57:11.206346Z,1697803031206
1.7332992553710938,0.8852386474609375,0.34338951110839844,2023-10-20T11:57:11.227540Z,1697803031227
1.9323463439941406,1.0720057487487793,0.36104416847229004,2023-10-20T11:57:11.247626Z,1697803031247
2.1049957275390625,1.2559995651245117,0.3754633665084839,2023-10-20T11:57:11.268842Z,1697803031268
2.247321128845215,1.430086612701416,0.38408827781677246,2023-10-20T11:57:11.288332Z,1697803031288
2.3458471298217773,1.5826263427734375,0.38322532176971436,2023-10-20T11:57:11.308646Z,1697803031308
2.402374744415283,1.7100744247436523,0.37232398986816406,2023-10-20T11:57:11.328778Z,1697803031328
2.4268317222595215,1.8124194145202637,0.3531132936477661,2023-10-20T11:57:11.348893Z,1697803031348
2.4228954315185547,1.8883934020996094,0.32703697681427,2023-10-20T11:57:11.369153Z,1697803031369
2.3917765617370605,1.9379568099975586,0.2947148084640503,2023-10-20T11:57:11.388925Z,1697803031388
2.3354578018188477,1.9625639915466309,0.256885290145874,2023-10-20T11:57:11.409728Z,1697803031409
2.2559895515441895,1.9627389907836914,0.21502357721328735,2023-10-20T11:57:11.429777Z,1697803031429
2.158468246459961,1.9395570755004883,0.17143464088439941,2023-10-20T11:57:11.449857Z,1697803031449
2.04835844039917,1.8945527076721191,0.12725365161895752,2023-10-20T11:57:11.469753Z,1697803031469
1.9318275451660156,1.8324270248413086,0.08394458889961243,2023-10-20T11:57:11.490130Z,1697803031490
1.8152470588684082,1.7602453231811523,0.042947918176651,2023-10-20T11:57:11.510940Z,1697803031510
1.7017197608947754,1.682286262512207,0.005899878218770027,2023-10-20T11:57:11.531596Z,1697803031531
1.5903148651123047,1.5978426933288574,-0.02599555253982544,2023-10-20T11:57:11.554115Z,1697803031554
1.476541519165039,1.5024452209472656,-0.05229055881500244,2023-10-20T11:57:11.571599Z,1697803031571
1.3560271263122559,1.3924522399902344,-0.07342976331710815,2023-10-20T11:57:11.591798Z,1697803031591
1.2250118255615234,1.2654218673706055,-0.08979552984237671,2023-10-20T11:57:11.612593Z,1697803031612
1.0853395462036133,1.1248726844787598,-0.10141128301620483,2023-10-20T11:57:11.632736Z,1697803031632
0.9401679039001465,0.9753365516662598,-0.10795968770980835,2023-10-20T11:57:11.653515Z,1697803031653
0.7926864624023438,0.8209376335144043,-0.10832417011260986,2023-10-20T11:57:11.672720Z,1697803031672
0.6437535285949707,0.6638388633728027,-0.10181534290313721,2023-10-20T11:57:11.692762Z,1697803031692
0.49297666549682617,0.5053720474243164,-0.08837270736694336,2023-10-20T11:57:11.713645Z,1697803031713
0.3435397148132324,0.3501410484313965,-0.0690302848815918,2023-10-20T11:57:11.737046Z,1697803031737
0.20272064208984375,0.2057051658630371,-0.045482754707336426,2023-10-20T11:57:11.753660Z,1697803031753
0.07927799224853516,0.08017158508300781,-0.01980447769165039,2023-10-20T11:57:11.774360Z,1697803031774
-0.020438671112060547,-0.02059459686279297,0.005646347999572754,2023-10-20T11:57:11.794753Z,1697803031794
-0.09313774108886719,-0.09343481063842773,0.028133869171142578,2023-10-20T11:57:11.814757Z,1697803031814
-0.13927268981933594,-0.13907289505004883,0.04541635513305664,2023-10-20T11:57:11.835917Z,1697803031835
-0.1600475311279297,-0.15929031372070312,0.05565333366394043,2023-10-20T11:57:11.854986Z,1697803031854
-0.1567521095275879,-0.15586423873901367,0.05751371383666992,2023-10-20T11:57:11.875085Z,1697803031875
-0.13075637817382812,-0.13017034530639648,0.05009174346923828,2023-10-20T11:57:11.896450Z,1697803031896
-0.08418846130371094,-0.08399200439453125,0.03329610824584961,2023-10-20T11:57:11.915754Z,1697803031915
-0.021313190460205078,-0.021312236785888672,0.008600711822509766,2023-10-20T11:57:11.936682Z,1697803031936
0.0500941276550293,0.050234317779541016,-0.020387887954711914,2023-10-20T11:57:11.956604Z,1697803031956
0.12250995635986328,0.12331819534301758,-0.04976487159729004,2023-10-20T11:57:11.976682Z,1697803031976
0.18929815292358398,0.19153833389282227,-0.07599687576293945,2023-10-20T11:57:11.997680Z,1697803031997
0.2470541000366211,0.25164365768432617,-0.09722137451171875,2023-10-20T11:57:12.020041Z,1697803032019
0.2950568199157715,0.30293846130371094,-0.1129763126373291,2023-10-20T11:57:12.037358Z,1697803032037
0.3341026306152344,0.34604835510253906,-0.12353324890136719,2023-10-20T11:57:12.057926Z,1697803032057
0.36772823333740234,0.38412952423095703,-0.1301724910736084,2023-10-20T11:57:12.080217Z,1697803032080
0.3994107246398926,0.42032814025878906,-0.13410210609436035,2023-10-20T11:57:12.098995Z,1697803032098
0.43207550048828125,0.4574098587036133,-0.13631391525268555,2023-10-20T11:57:12.118716Z,1697803032118
0.4668569564819336,0.49636268615722656,-0.1371445655822754,2023-10-20T11:57:12.138410Z,1697803032138
0.5057716369628906,0.538905143737793,-0.13704919815063477,2023-10-20T11:57:12.159298Z,1697803032159
0.5518856048583984,0.5876541137695312,-0.13645923137664795,2023-10-20T11:57:12.179718Z,1697803032179
0.6097784042358398,0.6465926170349121,-0.1359996795654297,2023-10-20T11:57:12.202097Z,1697803032202
0.6827192306518555,0.7180228233337402,-0.13561487197875977,2023-10-20T11:57:12.220746Z,1697803032220
0.7705812454223633,0.800471305847168,-0.134513258934021,2023-10-20T11:57:12.240264Z,1697803032240
0.8694601058959961,0.8887324333190918,-0.13163185119628906,2023-10-20T11:57:12.260732Z,1697803032260
0.9702682495117188,0.9732990264892578,-0.1258147954940796,2023-10-20T11:57:12.281193Z,1697803032281
1.0611238479614258,1.0429167747497559,-0.11637747287750244,2023-10-20T11:57:12.303738Z,1697803032303
1.1311979293823242,1.0878252983093262,-0.10348290205001831,2023-10-20T11:57:12.321671Z,1697803032321
1.1725058555603027,1.101280689239502,-0.0880233645439148,2023-10-20T11:57:12.341662Z,1697803032341
1.1780405044555664,1.0778899192810059,-0.07143092155456543,2023-10-20T11:57:12.362551Z,1697803032362
1.1393423080444336,1.0121855735778809,-0.05530562996864319,2023-10-20T11:57:12.382248Z,1697803032382
1.0461845397949219,0.8990960121154785,-0.04086947441101074,2023-10-20T11:57:12.402587Z,1697803032402
0.8922715187072754,0.7386136054992676,-0.02888008952140808,2023-10-20T11:57:12.422935Z,1697803032422
0.6789083480834961,0.5383358001708984,-0.019268840551376343,2023-10-20T11:57:12.442889Z,1697803032442
0.41384220123291016,0.3119378089904785,-0.011117637157440186,2023-10-20T11:57:12.463460Z,1697803032463
0.10741424560546875,0.07613945007324219,-0.0029264986515045166,2023-10-20T11:57:12.486508Z,1697803032486
-0.22716188430786133,-0.1492595672607422,0.00655779242515564,2023-10-20T11:57:12.504183Z,1697803032504
-0.5745949745178223,-0.34359216690063477,0.017704561352729797,2023-10-20T11:57:12.524241Z,1697803032524
-0.917813777923584,-0.48789167404174805,0.02923007309436798,2023-10-20T11:57:12.544231Z,1697803032544
-1.2397375106811523,-0.5686683654785156,0.03824728727340698,2023-10-20T11:57:12.564434Z,1697803032564
-1.5235533714294434,-0.5799534320831299,0.04096528887748718,2023-10-20T11:57:12.586161Z,1697803032586
-1.7448301315307617,-0.5218358039855957,0.03403879702091217,2023-10-20T11:57:12.605649Z,1697803032605
-1.8751120567321777,-0.4053279161453247,0.01580999046564102,2023-10-20T11:57:12.625080Z,1697803032625
-1.8934454917907715,-0.25463414192199707,-0.01160058006644249,2023-10-20T11:57:12.645735Z,1697803032645
-1.7982215881347656,-0.1017257571220398,-0.041971296072006226,2023-10-20T11:57:12.669446Z,1697803032669
-1.6102991104125977,0.025054946541786194,-0.06741401553153992,2023-10-20T11:57:12.686790Z,1697803032686
-1.3621339797973633,0.11066186428070068,-0.08260339498519897,2023-10-20T11:57:12.706291Z,1697803032706
-1.0853290557861328,0.15310406684875488,-0.08553987741470337,2023-10-20T11:57:12.726613Z,1697803032726
-0.8044710159301758,0.15761852264404297,-0.07718706130981445,2023-10-20T11:57:12.747079Z,1697803032747
-0.5339231491088867,0.13150691986083984,-0.05980712175369263,2023-10-20T11:57:12.769257Z,1697803032769
-0.2809762954711914,0.08191108703613281,-0.0356673002243042,2023-10-20T11:57:12.786902Z,1697803032786
-0.05300712585449219,0.01754450798034668,-0.007457137107849121,2023-10-20T11:57:12.807900Z,1697803032807
0.13826847076416016,-0.05051755905151367,0.021180272102355957,2023-10-20T11:57:12.828560Z,1697803032828
0.28449344635009766,-0.1128242015838623,0.04681694507598877,2023-10-20T11:57:12.848120Z,1697803032848
0.3832578659057617,-0.1635456085205078,0.06719553470611572,2023-10-20T11:57:12.869120Z,1697803032869
0.44371891021728516,-0.20261144638061523,0.08240842819213867,2023-10-20T11:57:12.889103Z,1697803032889
0.48043251037597656,-0.23348379135131836,0.09392249584197998,2023-10-20T11:57:12.909197Z,1697803032909
0.5030031204223633,-0.2586383819580078,0.10268640518188477,2023-10-20T11:57:12.929646Z,1697803032929
0.5127944946289062,-0.2775721549987793,0.10808670520782471,2023-10-20T11:57:12.953019Z,1697803032952
0.5017223358154297,-0.2850794792175293,0.10756349563598633,2023-10-20T11:57:12.969873Z,1697803032969
0.4629859924316406,-0.27623796463012695,0.0991353988647461,2023-10-20T11:57:12.990534Z,1697803032990
0.3964815139770508,-0.24932050704956055,0.08306777477264404,2023-10-20T11:57:13.010929Z,1697803033010
0.3077859878540039,-0.2051372528076172,0.061535000801086426,2023-10-20T11:57:13.031189Z,1697803033031
0.19794702529907227,-0.1406421661376953,0.03642463684082031,2023-10-20T11:57:13.052910Z,1697803033052
0.06792497634887695,-0.05169820785522461,0.010852336883544922,2023-10-20T11:57:13.071230Z,1697803033071
-0.07897758483886719,0.06468725204467773,-0.009888291358947754,2023-10-20T11:57:13.091641Z,1697803033091
-0.23718786239624023,0.21036338806152344,-0.01868075132369995,2023-10-20T11:57:13.112417Z,1697803033112
-0.39573144912719727,0.38376712799072266,-0.007142543792724609,2023-10-20T11:57:13.132321Z,1697803033132
-0.5376014709472656,0.5780839920043945,0.03296807408332825,2023-10-20T11:57:13.152449Z,1697803033152
-0.6363534927368164,0.7725868225097656,0.10659337043762207,2023-10-20T11:57:13.172151Z,1697803033172
-0.6644625663757324,0.930546760559082,0.20851421356201172,2023-10-20T11:57:13.192869Z,1697803033192
-0.6098728179931641,1.0088615417480469,0.3175539970397949,2023-10-20T11:57:13.212749Z,1697803033212
-0.48642945289611816,0.9740424156188965,0.3978159427642822,2023-10-20T11:57:13.236015Z,1697803033235
-0.32949233055114746,0.8179359436035156,0.4114353656768799,2023-10-20T11:57:13.253643Z,1697803033253
-0.17809677124023438,0.5605401992797852,0.3346552848815918,2023-10-20T11:57:13.273321Z,1697803033273
-0.0584104061126709,0.23786211013793945,0.16391563415527344,2023-10-20T11:57:13.294915Z,1697803033294
0.018937349319458008,-0.10052633285522461,-0.07831192016601562,2023-10-20T11:57:13.314394Z,1697803033314
0.05955243110656738,-0.4012489318847656,-0.34810876846313477,2023-10-20T11:57:13.336009Z,1697803033335
0.07732093334197998,-0.6235480308532715,-0.5981869697570801,2023-10-20T11:57:13.355209Z,1697803033355
0.08045512437820435,-0.7370929718017578,-0.7827773094177246,2023-10-20T11:57:13.375Z,1697803033374
0.07295715808868408,-0.7402153015136719,-0.8732213973999023,2023-10-20T11:57:13.395974Z,1697803033395
0.05757337808609009,-0.6583123207092285,-0.8678107261657715,2023-10-20T11:57:13.415503Z,1697803033415
0.038573116064071655,-0.5071964263916016,-0.7510128021240234,2023-10-20T11:57:13.436431Z,1697803033436
0.023310691118240356,-0.34508228302001953,-0.5782079696655273,2023-10-20T11:57:13.456338Z,1697803033456
0.012186199426651001,-0.16903305053710938,-0.32537078857421875,2023-10-20T11:57:13.477086Z,1697803033477
0.0012111663818359375,-0.011525154113769531,-0.026119232177734375,2023-10-20T11:57:13.497096Z,1697803033497
-0.02146017551422119,0.11712503433227539,0.3257303237915039,2023-10-20T11:57:13.519905Z,1697803033519
-0.06465333700180054,0.19391298294067383,0.7107744216918945,2023-10-20T11:57:13.536830Z,1697803033536
-0.13503170013427734,0.20283901691436768,1.1152372360229492,2023-10-20T11:57:13.557401Z,1697803033557
-0.24613487720489502,0.13128876686096191,1.5034141540527344,2023-10-20T11:57:13.577647Z,1697803033577
-0.41129958629608154,-0.02554238587617874,1.816408634185791,2023-10-20T11:57:13.597893Z,1697803033597
-0.6290380954742432,-0.2551470398902893,1.9916000366210938,2023-10-20T11:57:13.618927Z,1697803033618
-0.8430531024932861,-0.5068329572677612,1.9438915252685547,2023-10-20T11:57:13.638847Z,1697803033638
-0.9890010356903076,-0.7230753898620605,1.6922388076782227,2023-10-20T11:57:13.658695Z,1697803033658
-0.9944705963134766,-0.8220837116241455,1.292525291442871,2023-10-20T11:57:13.679623Z,1697803033679
-0.8524823188781738,-0.7788481712341309,0.8505187034606934,2023-10-20T11:57:13.702340Z,1697803033702
-0.5780482292175293,-0.5738420486450195,0.44132089614868164,2023-10-20T11:57:13.719928Z,1697803033719
-0.20230484008789062,-0.2144031524658203,0.11576247215270996,2023-10-20T11:57:13.740227Z,1697803033740
0.24219322204589844,0.2697591781616211,-0.10038471221923828,2023-10-20T11:57:13.760710Z,1697803033760
0.7074432373046875,0.8191680908203125,-0.2012937068939209,2023-10-20T11:57:13.780594Z,1697803033780
1.1518878936767578,1.3781652450561523,-0.2036195993423462,2023-10-20T11:57:13.802064Z,1697803033802
1.5454282760620117,1.9010047912597656,-0.13384133577346802,2023-10-20T11:57:13.821242Z,1697803033821
1.8632431030273438,2.3460702896118164,-0.0215165913105011,2023-10-20T11:57:13.841116Z,1697803033841
2.1065335273742676,2.692826271057129,0.10684600472450256,2023-10-20T11:57:13.861853Z,1697803033861
2.2948522567749023,2.9296979904174805,0.23097485303878784,2023-10-20T11:57:13.881436Z,1697803033881
2.4481287002563477,3.0645289421081543,0.3350411653518677,2023-10-20T11:57:13.901822Z,1697803033901
2.585869789123535,3.1207380294799805,0.41601991653442383,2023-10-20T11:57:13.922794Z,1697803033922
2.704451560974121,3.1096925735473633,0.464546799659729,2023-10-20T11:57:13.942437Z,1697803033942
2.807629108428955,3.0683422088623047,0.4986860752105713,2023-10-20T11:57:13.962876Z,1697803033962
2.862748146057129,2.973379611968994,0.5109779834747314,2023-10-20T11:57:13.985362Z,1697803033985
2.8605289459228516,2.8371925354003906,0.5113242864608765,2023-10-20T11:57:14.003615Z,1697803034003
2.808938980102539,2.667003631591797,0.4954615831375122,2023-10-20T11:57:14.023685Z,1697803034023
2.7446484565734863,2.491434097290039,0.46719062328338623,2023-10-20T11:57:14.044190Z,1697803034044
2.6860814094543457,2.332634925842285,0.42505335807800293,2023-10-20T11:57:14.064180Z,1697803034064
2.6085638999938965,2.1866531372070312,0.3678234815597534,2023-10-20T11:57:14.085180Z,1697803034085
2.484160900115967,2.035658836364746,0.29727232456207275,2023-10-20T11:57:14.104935Z,1697803034104
2.297213554382324,1.8622074127197266,0.2134859561920166,2023-10-20T11:57:14.125019Z,1697803034124
2.0644350051879883,1.6690287590026855,0.12957864999771118,2023-10-20T11:57:14.145051Z,1697803034145
1.8081974983215332,1.453658103942871,0.04253380000591278,2023-10-20T11:57:14.168407Z,1697803034168
1.5865178108215332,1.2602300643920898,-0.035084933042526245,2023-10-20T11:57:14.185339Z,1697803034185
1.428360939025879,1.105970859527588,-0.10746258497238159,2023-10-20T11:57:14.205930Z,1697803034205
1.3441200256347656,1.0047049522399902,-0.17490637302398682,2023-10-20T11:57:14.226357Z,1697803034226
1.3091096878051758,0.9424819946289062,-0.23930037021636963,2023-10-20T11:57:14.246337Z,1697803034246
1.2873287200927734,0.8948040008544922,-0.29632568359375,2023-10-20T11:57:14.268696Z,1697803034268
1.2651958465576172,0.8526773452758789,-0.34377527236938477,2023-10-20T11:57:14.286440Z,1697803034286
1.2379050254821777,0.8121252059936523,-0.38096022605895996,2023-10-20T11:57:14.306937Z,1697803034306
1.1972575187683105,0.7680249214172363,-0.40619897842407227,2023-10-20T11:57:14.327643Z,1697803034327
1.143784523010254,0.7203559875488281,-0.4198441505432129,2023-10-20T11:57:14.347603Z,1697803034347
1.073592185974121,0.667020320892334,-0.42049741744995117,2023-10-20T11:57:14.368819Z,1697803034368
0.9895243644714355,0.6100916862487793,-0.40942883491516113,2023-10-20T11:57:14.388429Z,1697803034388
0.8988161087036133,0.5533504486083984,-0.38983726501464844,2023-10-20T11:57:14.408482Z,1697803034408
0.811098575592041,0.5014410018920898,-0.3664257526397705,2023-10-20T11:57:14.428919Z,1697803034428
0.7377748489379883,0.46005678176879883,-0.34485387802124023,2023-10-20T11:57:14.451818Z,1697803034451
0.6899614334106445,0.43498802185058594,-0.33107638359069824,2023-10-20T11:57:14.469444Z,1697803034469
0.6751198768615723,0.43039512634277344,-0.3295562267303467,2023-10-20T11:57:14.489287Z,1697803034489
0.6906700134277344,0.4450960159301758,-0.33983325958251953,2023-10-20T11:57:14.510750Z,1697803034510
0.7313423156738281,0.47652721405029297,-0.3593935966491699,2023-10-20T11:57:14.530471Z,1697803034530
0.7871236801147461,0.5189132690429688,-0.3828444480895996,2023-10-20T11:57:14.551737Z,1697803034551
0.8454551696777344,0.5640325546264648,-0.40349435806274414,2023-10-20T11:57:14.570779Z,1697803034570
0.8937816619873047,0.6032733917236328,-0.41514158248901367,2023-10-20T11:57:14.590630Z,1697803034590
0.9217333793640137,0.6293144226074219,-0.4134092330932617,2023-10-20T11:57:14.611572Z,1697803034611
0.9210433959960938,0.6361136436462402,-0.3956747055053711,2023-10-20T11:57:14.631052Z,1697803034631
0.8837008476257324,0.6175966262817383,-0.3607497215270996,2023-10-20T11:57:14.651649Z,1697803034651
0.8007144927978516,0.5672454833984375,-0.30835604667663574,2023-10-20T11:57:14.672361Z,1697803034672
0.6689257621765137,0.4817233085632324,-0.24139142036437988,2023-10-20T11:57:14.692835Z,1697803034692
0.4944286346435547,0.36294984817504883,-0.16591596603393555,2023-10-20T11:57:14.712898Z,1697803034712
0.28681230545043945,0.21496009826660156,-0.08867311477661133,2023-10-20T11:57:14.734628Z,1697803034734
0.060135841369628906,0.046019554138183594,-0.016935348510742188,2023-10-20T11:57:14.753355Z,1697803034753
-0.16670608520507812,-0.1301403045654297,0.042224884033203125,2023-10-20T11:57:14.773240Z,1697803034773
-0.3728909492492676,-0.29639577865600586,0.08392071723937988,2023-10-20T11:57:14.794143Z,1697803034794
-0.5398087501525879,-0.4358787536621094,0.10711336135864258,2023-10-20T11:57:14.813870Z,1697803034813
-0.6531500816345215,-0.5344209671020508,0.1145399808883667,2023-10-20T11:57:14.834443Z,1697803034834
-0.7074728012084961,-0.5855364799499512,0.11123442649841309,2023-10-20T11:57:14.854541Z,1697803034854
-0.7027740478515625,-0.5875048637390137,0.10168719291687012,2023-10-20T11:57:14.874550Z,1697803034874
-0.644716739654541,-0.5438427925109863,0.08873766660690308,2023-10-20T11:57:14.895289Z,1697803034895
-0.5384707450866699,-0.45769453048706055,0.07312148809432983,2023-10-20T11:57:14.918141Z,1697803034918
-0.3894691467285156,-0.33284473419189453,0.054032325744628906,2023-10-20T11:57:14.935595Z,1697803034935
-0.2072010040283203,-0.17763566970825195,0.030256271362304688,2023-10-20T11:57:14.956123Z,1697803034956
-0.008013725280761719,-0.006884574890136719,0.0012564659118652344,2023-10-20T11:57:14.976103Z,1697803034976
0.1862645149230957,0.16040515899658203,-0.031678080558776855,2023-10-20T11:57:14.996530Z,1697803034996
0.3563089370727539,0.3079042434692383,-0.06579327583312988,2023-10-20T11:57:15.017607Z,1697803035017
0.4850010871887207,0.42072105407714844,-0.09672284126281738,2023-10-20T11:57:15.037336Z,1697803035037
0.5639443397521973,0.49068784713745117,-0.12060892581939697,2023-10-20T11:57:15.056924Z,1697803035056
0.5913224220275879,0.5150861740112305,-0.1347334384918213,2023-10-20T11:57:15.077163Z,1697803035077
0.5710539817810059,0.49672985076904297,-0.13796758651733398,2023-10-20T11:57:15.100942Z,1697803035100
0.5086779594421387,0.44084835052490234,-0.12991762161254883,2023-10-20T11:57:15.117994Z,1697803035117
0.41161441802978516,0.3549470901489258,-0.11096525192260742,2023-10-20T11:57:15.137922Z,1697803035137
0.29288768768310547,0.2511587142944336,-0.0832362174987793,2023-10-20T11:57:15.158235Z,1697803035158
0.1699533462524414,0.14485979080200195,-0.05081534385681152,2023-10-20T11:57:15.178797Z,1697803035178
0.06179523468017578,0.052313804626464844,-0.01936626434326172,2023-10-20T11:57:15.201290Z,1697803035201
-0.016164779663085938,-0.013582229614257812,0.0052814483642578125,2023-10-20T11:57:15.218968Z,1697803035218
-0.05092334747314453,-0.04247426986694336,0.017227649688720703,2023-10-20T11:57:15.239071Z,1697803035239
-0.034192562103271484,-0.028337478637695312,0.011878728866577148,2023-10-20T11:57:15.259579Z,1697803035259
0.035253047943115234,0.02908802032470703,-0.012452840805053711,2023-10-20T11:57:15.280017Z,1697803035279
0.14723491668701172,0.12127113342285156,-0.05225634574890137,2023-10-20T11:57:15.301058Z,1697803035301
0.2849855422973633,0.23498201370239258,-0.10025954246520996,2023-10-20T11:57:15.320967Z,1697803035320
0.43027830123901367,0.35597944259643555,-0.14776372909545898,2023-10-20T11:57:15.341106Z,1697803035341
0.5689949989318848,0.4727296829223633,-0.18753576278686523,2023-10-20T11:57:15.361093Z,1697803035361
0.6927800178527832,0.577329158782959,-0.21509242057800293,2023-10-20T11:57:15.384429Z,1697803035384
0.7960166931152344,0.6639337539672852,-0.2280902862548828,2023-10-20T11:57:15.401352Z,1697803035401
0.8719096183776855,0.7262773513793945,-0.22536230087280273,2023-10-20T11:57:15.421707Z,1697803035421
0.9135165214538574,0.7588596343994141,-0.20734500885009766,2023-10-20T11:57:15.442141Z,1697803035442
0.9185538291931152,0.760284423828125,-0.1771395206451416,2023-10-20T11:57:15.462357Z,1697803035462
0.8944253921508789,0.7366876602172852,-0.1406341791152954,2023-10-20T11:57:15.485118Z,1697803035485
0.8577055931091309,0.7015585899353027,-0.10411345958709717,2023-10-20T11:57:15.502444Z,1697803035502
0.8261985778808594,0.6692719459533691,-0.07152712345123291,2023-10-20T11:57:15.522996Z,1697803035522
0.8142666816711426,0.6513919830322266,-0.04395139217376709,2023-10-20T11:57:15.543660Z,1697803035543
0.8288707733154297,0.6535477638244629,-0.02026219666004181,2023-10-20T11:57:15.563737Z,1697803035563
0.8710293769836426,0.6766419410705566,0.0011685751378536224,2023-10-20T11:57:15.584293Z,1697803035584
0.9373559951782227,0.7177667617797852,0.021674811840057373,2023-10-20T11:57:15.604503Z,1697803035604
1.0242948532104492,0.7734107971191406,0.04190930724143982,2023-10-20T11:57:15.624550Z,1697803035624
1.1275811195373535,0.8389797210693359,0.06199920177459717,2023-10-20T11:57:15.644775Z,1697803035644
1.2396845817565918,0.9073629379272461,0.08187878131866455,2023-10-20T11:57:15.667553Z,1697803035667
1.34840726852417,0.9684858322143555,0.10141116380691528,2023-10-20T11:57:15.685226Z,1697803035685
1.439737319946289,1.0118727684020996,0.1201554536819458,2023-10-20T11:57:15.705291Z,1697803035705
1.5005273818969727,1.0288524627685547,0.13705039024353027,2023-10-20T11:57:15.725843Z,1697803035725
1.5204658508300781,1.0137696266174316,0.15045523643493652,2023-10-20T11:57:15.745838Z,1697803035745
1.4922800064086914,0.9639086723327637,0.15859389305114746,2023-10-20T11:57:15.767451Z,1697803035767
1.4105987548828125,0.8785510063171387,0.15994417667388916,2023-10-20T11:57:15.785914Z,1697803035785
1.275003433227539,0.7612276077270508,0.15343713760375977,2023-10-20T11:57:15.807092Z,1697803035807
1.0878658294677734,0.6181640625,0.1382671594619751,2023-10-20T11:57:15.826781Z,1697803035826
0.8535690307617188,0.457730770111084,0.11407351493835449,2023-10-20T11:57:15.846851Z,1697803035846
0.5796279907226562,0.2904782295227051,0.08098876476287842,2023-10-20T11:57:15.867126Z,1697803035867
0.27306556701660156,0.1264958381652832,0.03961741924285889,2023-10-20T11:57:15.887650Z,1697803035887
-0.06049633026123047,-0.025568723678588867,-0.009029269218444824,2023-10-20T11:57:15.908445Z,1697803035908
-0.4164409637451172,-0.15798497200012207,-0.06317389011383057,2023-10-20T11:57:15.928070Z,1697803035928
-0.7897796630859375,-0.26317882537841797,-0.1201622486114502,2023-10-20T11:57:15.950282Z,1697803035950
-1.1746587753295898,-0.33343958854675293,-0.17707395553588867,2023-10-20T11:57:15.968516Z,1697803035968
-1.566309928894043,-0.361122727394104,-0.2316129207611084,2023-10-20T11:57:15.989038Z,1697803035988
-1.9614028930664062,-0.33748042583465576,-0.2814922332763672,2023-10-20T11:57:16.009533Z,1697803036009
-2.3554954528808594,-0.2516815662384033,-0.32218706607818604,2023-10-20T11:57:16.029314Z,1697803036029
-2.7369651794433594,-0.08980245888233185,-0.34464824199676514,2023-10-20T11:57:16.049829Z,1697803036049
-3.083899974822998,0.16414490342140198,-0.3364638686180115,2023-10-20T11:57:16.069907Z,1697803036069
-3.3569283485412598,0.5214926600456238,-0.28337228298187256,2023-10-20T11:57:16.090169Z,1697803036090
-3.4994254112243652,0.9724537134170532,-0.17351478338241577,2023-10-20T11:57:16.110637Z,1697803036110
-3.452014446258545,1.4668021202087402,-0.006488933227956295,2023-10-20T11:57:16.132597Z,1697803036132
-3.183197021484375,1.9113192558288574,0.19820615649223328,2023-10-20T11:57:16.150714Z,1697803036150
-2.716022491455078,2.1971187591552734,0.4014469385147095,2023-10-20T11:57:16.171493Z,1697803036171
-2.125319480895996,2.242896556854248,0.5542737245559692,2023-10-20T11:57:16.191542Z,1697803036191
-1.5056791305541992,2.0255937576293945,0.6139324903488159,2023-10-20T11:57:16.212052Z,1697803036212
-0.9360713958740234,1.577589988708496,0.5561587810516357,2023-10-20T11:57:16.232264Z,1697803036232
-0.4620382785797119,0.9630179405212402,0.3819723129272461,2023-10-20T11:57:16.252689Z,1697803036252
-0.0981137752532959,0.25063323974609375,0.10969209671020508,2023-10-20T11:57:16.272566Z,1697803036272
0.1613001823425293,-0.5020780563354492,-0.2400517463684082,2023-10-20T11:57:16.293050Z,1697803036293
0.331834077835083,-1.2530517578125,-0.6512908935546875,2023-10-20T11:57:16.315368Z,1697803036315
0.4341773986816406,-1.972874641418457,-1.1098546981811523,2023-10-20T11:57:16.334377Z,1697803036334
0.49311161041259766,-2.6395463943481445,-1.5979194641113281,2023-10-20T11:57:16.353524Z,1697803036353
0.5333032608032227,-3.2236833572387695,-2.085655689239502,2023-10-20T11:57:16.374497Z,1697803036374
0.5702266693115234,-3.6891536712646484,-2.538412094116211,2023-10-20T11:57:16.394634Z,1697803036394
0.5987502336502075,-4.004354476928711,-2.9287109375,2023-10-20T11:57:16.415214Z,1697803036415
0.6015609502792358,-4.146580696105957,-3.224181652069092,2023-10-20T11:57:16.434837Z,1697803036434
0.5755637884140015,-4.137833595275879,-3.4104299545288086,2023-10-20T11:57:16.454933Z,1697803036454
0.5288453102111816,-4.008193016052246,-3.485041618347168,2023-10-20T11:57:16.475844Z,1697803036475
0.47743284702301025,-3.7828593254089355,-3.4514665603637695,2023-10-20T11:57:16.495650Z,1697803036495
0.42186176776885986,-3.4864401817321777,-3.328272819519043,2023-10-20T11:57:16.517060Z,1697803036517
0.36028754711151123,-3.127035140991211,-3.1151676177978516,2023-10-20T11:57:16.535933Z,1697803036535
0.2880808115005493,-2.7157859802246094,-2.811638832092285,2023-10-20T11:57:16.556898Z,1697803036556
0.20390838384628296,-2.273052215576172,-2.441390037536621,2023-10-20T11:57:16.577167Z,1697803036577
0.11715224385261536,-1.8088479042053223,-2.0135202407836914,2023-10-20T11:57:16.600290Z,1697803036600
0.04866018891334534,-1.3382658958435059,-1.5360488891601562,2023-10-20T11:57:16.617274Z,1697803036617
0.012397773563861847,-0.8727211952209473,-1.0260505676269531,2023-10-20T11:57:16.637516Z,1697803036637
0.0014430973678827286,-0.39617061614990234,-0.47638750076293945,2023-10-20T11:57:16.658270Z,1697803036658
-6.419606506824493E-4,0.10683345794677734,0.13181829452514648,2023-10-20T11:57:16.678518Z,1697803036678
-0.013320401310920715,0.6451759338378906,0.8232913017272949,2023-10-20T11:57:16.698365Z,1697803036698
-0.06841462850570679,1.2262020111083984,1.633730411529541,2023-10-20T11:57:16.718400Z,1697803036718
-0.22468090057373047,1.8117501735687256,2.564570426940918,2023-10-20T11:57:16.738869Z,1697803036738
-0.5888721942901611,2.306778907775879,3.6067142486572266,2023-10-20T11:57:16.759337Z,1697803036759
-1.380605697631836,2.5285348892211914,4.70584774017334,2023-10-20T11:57:16.779428Z,1697803036779
-3.009228229522705,2.0490169525146484,5.51571798324585,2023-10-20T11:57:16.799579Z,1697803036799
-5.560579299926758,0.09834358096122742,4.758646488189697,2023-10-20T11:57:16.819846Z,1697803036819
-6.633057117462158,-2.5131263732910156,1.4983677864074707,2023-10-20T11:57:16.840777Z,1697803036840
-5.4039411544799805,-3.419938087463379,-1.0804123878479004,2023-10-20T11:57:16.860617Z,1697803036860
-3.9645655155181885,-3.196013927459717,-1.9902739524841309,2023-10-20T11:57:16.881599Z,1697803036881
-2.892850160598755,-2.662511110305786,-2.09541392326355,2023-10-20T11:57:16.900913Z,1697803036900
-2.141932725906372,-2.0843000411987305,-1.8936519622802734,2023-10-20T11:57:16.920958Z,1697803036920
-1.617180347442627,-1.5520336627960205,-1.5793075561523438,2023-10-20T11:57:16.941691Z,1697803036941
-1.2262439727783203,-1.1036639213562012,-1.2323884963989258,2023-10-20T11:57:16.962001Z,1697803036961
-0.9092774391174316,-0.7441368103027344,-0.8951549530029297,2023-10-20T11:57:16.983006Z,1697803036982
-0.6410374641418457,-0.471987247467041,-0.5998640060424805,2023-10-20T11:57:17.002249Z,1697803037002
-0.39132070541381836,-0.25856971740722656,-0.3413233757019043,2023-10-20T11:57:17.022262Z,1697803037022
-0.1415095329284668,-0.08385419845581055,-0.11300849914550781,2023-10-20T11:57:17.042812Z,1697803037042
0.13985538482666016,0.07436561584472656,0.10025358200073242,2023-10-20T11:57:17.066308Z,1697803037066
0.5032997131347656,0.24096441268920898,0.31937503814697266,2023-10-20T11:57:17.083656Z,1697803037083
0.9678144454956055,0.42135143280029297,0.5397820472717285,2023-10-20T11:57:17.103995Z,1697803037103
1.5000286102294922,0.6090049743652344,0.7359867095947266,2023-10-20T11:57:17.124303Z,1697803037124
2.0348243713378906,0.7976078987121582,0.888585090637207,2023-10-20T11:57:17.144316Z,1697803037144
2.523737907409668,0.9795722961425781,0.996757984161377,2023-10-20T11:57:17.166459Z,1697803037166
2.9464216232299805,1.1489512920379639,1.0682792663574219,2023-10-20T11:57:17.184554Z,1697803037184
3.304490089416504,1.2998113632202148,1.110633373260498,2023-10-20T11:57:17.204905Z,1697803037204
3.570742607116699,1.416450023651123,1.1125843524932861,2023-10-20T11:57:17.225372Z,1697803037225
3.743496894836426,1.4950413703918457,1.077974557876587,2023-10-20T11:57:17.245414Z,1697803037245
3.8282413482666016,1.5314946174621582,1.0162630081176758,2023-10-20T11:57:17.266082Z,1697803037266
3.827638626098633,1.5252370834350586,0.9283199310302734,2023-10-20T11:57:17.285723Z,1697803037285
3.7470245361328125,1.4850959777832031,0.8190245628356934,2023-10-20T11:57:17.306412Z,1697803037306
3.5931758880615234,1.416511058807373,0.6934096813201904,2023-10-20T11:57:17.326517Z,1697803037326
3.388582229614258,1.3303194046020508,0.5613939762115479,2023-10-20T11:57:17.349655Z,1697803037349
3.152830123901367,1.2352101802825928,0.4332399368286133,2023-10-20T11:57:17.366605Z,1697803037366
2.8954010009765625,1.1361749172210693,0.31566286087036133,2023-10-20T11:57:17.386828Z,1697803037386
2.6307373046875,1.0409832000732422,0.2131636142730713,2023-10-20T11:57:17.407956Z,1697803037407
2.3766021728515625,0.9571709632873535,0.12746340036392212,2023-10-20T11:57:17.427607Z,1697803037427
2.1444177627563477,0.8883957862854004,0.05774906277656555,2023-10-20T11:57:17.449373Z,1697803037449
1.9365119934082031,0.8342447280883789,0.002354593016207218,2023-10-20T11:57:17.468837Z,1697803037468
1.7494935989379883,0.7915358543395996,-0.039927348494529724,2023-10-20T11:57:17.488405Z,1697803037488
1.583383560180664,0.7570977210998535,-0.06987234950065613,2023-10-20T11:57:17.509115Z,1697803037509
1.4383258819580078,0.7283554077148438,-0.08885759115219116,2023-10-20T11:57:17.531222Z,1697803037531
1.3074111938476562,0.7015094757080078,-0.0986432433128357,2023-10-20T11:57:17.549008Z,1697803037548
1.1824369430541992,0.6729598045349121,-0.10091936588287354,2023-10-20T11:57:17.569689Z,1697803037569
1.0605573654174805,0.6407618522644043,-0.09736454486846924,2023-10-20T11:57:17.590117Z,1697803037590
0.9395380020141602,0.6024398803710938,-0.08962541818618774,2023-10-20T11:57:17.610331Z,1697803037610
0.8162364959716797,0.554957389831543,-0.07900410890579224,2023-10-20T11:57:17.631574Z,1697803037631
0.6894016265869141,0.4963836669921875,-0.06657874584197998,2023-10-20T11:57:17.650429Z,1697803037650
0.5617990493774414,0.4274611473083496,-0.05358785390853882,2023-10-20T11:57:17.670515Z,1697803037670
0.43993330001831055,0.35262441635131836,-0.041404664516448975,2023-10-20T11:57:17.691279Z,1697803037691
0.32930564880371094,0.27728700637817383,-0.03083491325378418,2023-10-20T11:57:17.711900Z,1697803037711
0.23460054397583008,0.20711374282836914,-0.022200703620910645,2023-10-20T11:57:17.733322Z,1697803037733
0.160064697265625,0.1478104591369629,-0.015636742115020752,2023-10-20T11:57:17.752275Z,1697803037752
0.10892868041992188,0.10485363006591797,-0.011268079280853271,2023-10-20T11:57:17.772716Z,1697803037772
0.08320999145507812,0.08313226699829102,-0.009344756603240967,2023-10-20T11:57:17.792546Z,1697803037792
0.08343744277954102,0.0861215591430664,-0.010354816913604736,2023-10-20T11:57:17.812727Z,1697803037812
0.10847949981689453,0.11512517929077148,-0.014968633651733398,2023-10-20T11:57:17.832865Z,1697803037832
0.15515565872192383,0.16849279403686523,-0.02376532554626465,2023-10-20T11:57:17.853323Z,1697803037853
0.21914243698120117,0.24254274368286133,-0.03706550598144531,2023-10-20T11:57:17.873818Z,1697803037873
0.29435062408447266,0.3310074806213379,-0.054567813873291016,2023-10-20T11:57:17.894243Z,1697803037894
0.3734121322631836,0.42557382583618164,-0.07528567314147949,2023-10-20T11:57:17.916092Z,1697803037916
0.44732093811035156,0.5154476165771484,-0.097267746925354,2023-10-20T11:57:17.934299Z,1697803037934
0.508026123046875,0.5904803276062012,-0.11813950538635254,2023-10-20T11:57:17.954637Z,1697803037954
0.5505580902099609,0.6440939903259277,-0.13592827320098877,2023-10-20T11:57:17.975100Z,1697803037975
0.5740327835083008,0.6746702194213867,-0.14972412586212158,2023-10-20T11:57:17.995338Z,1697803037995
0.5813336372375488,0.6852636337280273,-0.15960192680358887,2023-10-20T11:57:18.015798Z,1697803038015
0.5769238471984863,0.6810216903686523,-0.16622650623321533,2023-10-20T11:57:18.035777Z,1697803038035
0.5655851364135742,0.6675729751586914,-0.17041635513305664,2023-10-20T11:57:18.056613Z,1697803038056
0.5510625839233398,0.6493377685546875,-0.17282891273498535,2023-10-20T11:57:18.076393Z,1697803038076
0.5378212928771973,0.6312742233276367,-0.1746046543121338,2023-10-20T11:57:18.098843Z,1697803038098
0.5315299034118652,0.6196045875549316,-0.17745041847229004,2023-10-20T11:57:18.116251Z,1697803038116
0.5393781661987305,0.6223049163818359,-0.18381452560424805,2023-10-20T11:57:18.137024Z,1697803038136
0.567418098449707,0.6459403038024902,-0.19580817222595215,2023-10-20T11:57:18.157270Z,1697803038157
0.6177530288696289,0.6920413970947266,-0.21387362480163574,2023-10-20T11:57:18.177752Z,1697803038177
0.6892490386962891,0.7576766014099121,-0.23682045936584473,2023-10-20T11:57:18.198353Z,1697803038198
0.7787723541259766,0.8371810913085938,-0.2623586654663086,2023-10-20T11:57:18.217830Z,1697803038217
0.87872314453125,0.9205260276794434,-0.28658485412597656,2023-10-20T11:57:18.238503Z,1697803038238
0.9789361953735352,0.9960489273071289,-0.30501842498779297,2023-10-20T11:57:18.258849Z,1697803038258
1.0694665908813477,1.0538573265075684,-0.3138697147369385,2023-10-20T11:57:18.281780Z,1697803038281
1.1425304412841797,1.087634563446045,-0.3108532428741455,2023-10-20T11:57:18.299329Z,1697803038299
1.1930780410766602,1.0948066711425781,-0.29561352729797363,2023-10-20T11:57:18.319382Z,1697803038319
1.2162399291992188,1.0736145973205566,-0.26890039443969727,2023-10-20T11:57:18.339888Z,1697803038339
1.2078962326049805,1.0232338905334473,-0.23257970809936523,2023-10-20T11:57:18.359855Z,1697803038359
1.1662168502807617,0.9454941749572754,-0.18971240520477295,2023-10-20T11:57:18.382181Z,1697803038382
1.0908327102661133,0.844449520111084,-0.14400720596313477,2023-10-20T11:57:18.400404Z,1697803038400
0.9821438789367676,0.7246994972229004,-0.09914934635162354,2023-10-20T11:57:18.420465Z,1697803038420
0.8444747924804688,0.5928516387939453,-0.058857500553131104,2023-10-20T11:57:18.441654Z,1697803038441
0.6846752166748047,0.45615196228027344,-0.026289910078048706,2023-10-20T11:57:18.461174Z,1697803038461
0.5109109878540039,0.3216400146484375,-0.0036657750606536865,2023-10-20T11:57:18.482095Z,1697803038482
0.3281431198120117,0.19411039352416992,0.007744878530502319,2023-10-20T11:57:18.502364Z,1697803038502
0.1374673843383789,0.07589054107666016,0.007372826337814331,2023-10-20T11:57:18.522496Z,1697803038522
-0.06273365020751953,-0.03206205368041992,-0.005198001861572266,2023-10-20T11:57:18.542291Z,1697803038542
-0.2746267318725586,-0.12865638732910156,-0.03060770034790039,2023-10-20T11:57:18.565624Z,1697803038565
-0.49680614471435547,-0.21054339408874512,-0.0693131685256958,2023-10-20T11:57:18.582626Z,1697803038582
-0.7260551452636719,-0.2733192443847656,-0.12138354778289795,2023-10-20T11:57:18.603033Z,1697803038602
-0.9575490951538086,-0.31197595596313477,-0.18616974353790283,2023-10-20T11:57:18.623737Z,1697803038623
-1.186131477355957,-0.3220946788787842,-0.2624439001083374,2023-10-20T11:57:18.644240Z,1697803038644
-1.4074006080627441,-0.3008013963699341,-0.34863734245300293,2023-10-20T11:57:18.665518Z,1697803038665
-1.6172490119934082,-0.24743938446044922,-0.4426569938659668,2023-10-20T11:57:18.683860Z,1697803038683
-1.8135676383972168,-0.16360533237457275,-0.5430552959442139,2023-10-20T11:57:18.704803Z,1697803038704
-1.9939994812011719,-0.05134482681751251,-0.648606538772583,2023-10-20T11:57:18.725268Z,1697803038725
-2.1513824462890625,0.08633556962013245,-0.7555475234985352,2023-10-20T11:57:18.745262Z,1697803038745
-2.2780752182006836,0.24405276775360107,-0.8583531379699707,2023-10-20T11:57:18.765132Z,1697803038765
-2.3701319694519043,0.4146009683609009,-0.9516808986663818,2023-10-20T11:57:18.785555Z,1697803038785
-2.428929328918457,0.5911831855773926,-1.0321884155273438,2023-10-20T11:57:18.805703Z,1697803038805
-2.4575772285461426,0.7686666250228882,-1.098036527633667,2023-10-20T11:57:18.826187Z,1697803038826
-2.4588189125061035,0.9430794715881348,-1.1479554176330566,2023-10-20T11:57:18.848387Z,1697803038848
-2.4338598251342773,1.1107738018035889,-1.1803703308105469,2023-10-20T11:57:18.866235Z,1697803038866
-2.384119987487793,1.2695121765136719,-1.1939988136291504,2023-10-20T11:57:18.886504Z,1697803038886
-2.3085126876831055,1.4149706363677979,-1.1844627857208252,2023-10-20T11:57:18.907197Z,1697803038907
-2.2093191146850586,1.5422663688659668,-1.1469011306762695,2023-10-20T11:57:18.927651Z,1697803038927
-2.092545986175537,1.650566577911377,-1.0793776512145996,2023-10-20T11:57:18.948315Z,1697803038948
-1.964573860168457,1.7441372871398926,-0.9816641807556152,2023-10-20T11:57:18.967549Z,1697803038967
-1.8268694877624512,1.8263216018676758,-0.853783369064331,2023-10-20T11:57:18.988301Z,1697803038988
-1.669571876525879,1.8856492042541504,-0.6924926042556763,2023-10-20T11:57:19.008765Z,1697803039008
-1.4783825874328613,1.8941559791564941,-0.49890661239624023,2023-10-20T11:57:19.031592Z,1697803039031
-1.2427382469177246,1.8144035339355469,-0.28516197204589844,2023-10-20T11:57:19.048732Z,1697803039048
-0.9618349075317383,1.6106319427490234,-0.08000168204307556,2023-10-20T11:57:19.069339Z,1697803039069
-0.6472253799438477,1.253066062927246,0.07149285078048706,2023-10-20T11:57:19.090031Z,1697803039089
-0.32429003715515137,0.7318267822265625,0.11742639541625977,2023-10-20T11:57:19.109846Z,1697803039109
-0.025063276290893555,0.06641197204589844,0.017146587371826172,2023-10-20T11:57:19.131853Z,1697803039131
0.2230978012084961,-0.6987733840942383,-0.24431228637695312,2023-10-20T11:57:19.150584Z,1697803039150
0.40514564514160156,-1.5061140060424805,-0.6578991413116455,2023-10-20T11:57:19.171298Z,1697803039171
0.5223602056503296,-2.3016538619995117,-1.2040891647338867,2023-10-20T11:57:19.191268Z,1697803039191
0.591698169708252,-3.038595199584961,-1.8593621253967285,2023-10-20T11:57:19.210885Z,1697803039210
0.6400284767150879,-3.662656307220459,-2.579718589782715,2023-10-20T11:57:19.232111Z,1697803039232
0.6971677541732788,-4.116173267364502,-3.284388542175293,2023-10-20T11:57:19.252046Z,1697803039251
0.7714172601699829,-4.380154609680176,-3.905219078063965,2023-10-20T11:57:19.272413Z,1697803039272
0.8449606895446777,-4.449833869934082,-4.383782863616943,2023-10-20T11:57:19.292437Z,1697803039292
0.9168787002563477,-4.379904747009277,-4.732547760009766,2023-10-20T11:57:19.314892Z,1697803039314
0.9870114326477051,-4.207327842712402,-4.983867645263672,2023-10-20T11:57:19.332991Z,1697803039332
1.0644466876983643,-3.9393482208251953,-5.133542537689209,2023-10-20T11:57:19.353272Z,1697803039353
1.1375138759613037,-3.6040892601013184,-5.192513465881348,2023-10-20T11:57:19.373287Z,1697803039373
1.1803925037384033,-3.196308135986328,-5.112081527709961,2023-10-20T11:57:19.393793Z,1697803039393
1.1972599029541016,-2.754950523376465,-4.885809898376465,2023-10-20T11:57:19.414851Z,1697803039414
1.1767497062683105,-2.306476593017578,-4.530266761779785,2023-10-20T11:57:19.434218Z,1697803039434
1.1150622367858887,-1.8783550262451172,-4.095637321472168,2023-10-20T11:57:19.454116Z,1697803039454
1.0266575813293457,-1.4771547317504883,-3.6065101623535156,2023-10-20T11:57:19.474402Z,1697803039474
0.9376194477081299,-1.1107778549194336,-3.0933237075805664,2023-10-20T11:57:19.497867Z,1697803039497
0.8395800590515137,-0.7637152671813965,-2.525747299194336,2023-10-20T11:57:19.514926Z,1697803039514
0.7082552909851074,-0.44464588165283203,-1.8769378662109375,2023-10-20T11:57:19.535886Z,1697803039535
0.516136646270752,-0.18696725368499756,-1.1733131408691406,2023-10-20T11:57:19.556105Z,1697803039556
0.24768400192260742,-0.028687596321105957,-0.46497440338134766,2023-10-20T11:57:19.576402Z,1697803039576
-0.062476158142089844,-0.006137073040008545,0.09261608123779297,2023-10-20T11:57:19.597779Z,1697803039597
-0.3354620933532715,-0.09412360191345215,0.3780331611633301,2023-10-20T11:57:19.616645Z,1697803039616
-0.4145479202270508,-0.1790328025817871,0.33991146087646484,2023-10-20T11:57:19.637169Z,1697803039637
-0.15929889678955078,-0.08828496932983398,0.08933305740356445,2023-10-20T11:57:19.657481Z,1697803039657
0.4414358139038086,0.2862434387207031,-0.15131664276123047,2023-10-20T11:57:19.677171Z,1697803039677
1.270887851715088,0.9108715057373047,-0.2020583152770996,2023-10-20T11:57:19.697956Z,1697803039697
2.1721482276916504,1.6625089645385742,-0.0075076669454574585,2023-10-20T11:57:19.717970Z,1697803039717
3.017500400543213,2.4142160415649414,0.38655412197113037,2023-10-20T11:57:19.738067Z,1697803039738
3.720932960510254,3.066042423248291,0.877774715423584,2023-10-20T11:57:19.758527Z,1697803039758
4.27241849899292,3.576076030731201,1.3720777034759521,2023-10-20T11:57:19.781644Z,1697803039781
4.705893039703369,3.93411922454834,1.8020586967468262,2023-10-20T11:57:19.798336Z,1697803039798
5.042994976043701,4.164780616760254,2.1505000591278076,2023-10-20T11:57:19.819579Z,1697803039819
5.295855522155762,4.284411430358887,2.4271042346954346,2023-10-20T11:57:19.839623Z,1697803039839
5.439670562744141,4.2867960929870605,2.6175968647003174,2023-10-20T11:57:19.859703Z,1697803039859
5.5004448890686035,4.2056965827941895,2.728863000869751,2023-10-20T11:57:19.881118Z,1697803039881
5.509031772613525,4.058537483215332,2.741720199584961,2023-10-20T11:57:19.899919Z,1697803039899
5.471235275268555,3.8823914527893066,2.6573922634124756,2023-10-20T11:57:19.920228Z,1697803039920
5.423991680145264,3.706387519836426,2.5067873001098633,2023-10-20T11:57:19.940488Z,1697803039940
5.407016754150391,3.5570383071899414,2.3400521278381348,2023-10-20T11:57:19.964462Z,1697803039964
5.408831596374512,3.4294586181640625,2.1786561012268066,2023-10-20T11:57:19.981450Z,1697803039981
5.383924961090088,3.3075575828552246,2.0315535068511963,2023-10-20T11:57:20.001326Z,1697803040001
5.298585891723633,3.159113883972168,1.879467248916626,2023-10-20T11:57:20.021705Z,1697803040021
5.141664505004883,2.9792957305908203,1.701155424118042,2023-10-20T11:57:20.042243Z,1697803040042
4.946263313293457,2.791079521179199,1.5068004131317139,2023-10-20T11:57:20.064346Z,1697803040064
4.697392463684082,2.5895180702209473,1.2900946140289307,2023-10-20T11:57:20.082008Z,1697803040081
4.386066436767578,2.38472318649292,1.069422960281372,2023-10-20T11:57:20.102577Z,1697803040102
4.050085067749023,2.177305221557617,0.8578014373779297,2023-10-20T11:57:20.123380Z,1697803040123
3.7084531784057617,1.976609706878662,0.6616535186767578,2023-10-20T11:57:20.143555Z,1697803040143
3.3725357055664062,1.7891788482666016,0.48613810539245605,2023-10-20T11:57:20.164297Z,1697803040164
3.040104866027832,1.6143274307250977,0.33276116847991943,2023-10-20T11:57:20.183657Z,1697803040183
2.7176570892333984,1.4536833763122559,0.20240867137908936,2023-10-20T11:57:20.204529Z,1697803040204
2.425398826599121,1.3120312690734863,0.09716793894767761,2023-10-20T11:57:20.224384Z,1697803040224
2.169692039489746,1.1886649131774902,0.016647547483444214,2023-10-20T11:57:20.244586Z,1697803040244
1.9398860931396484,1.0771608352661133,-0.041241034865379333,2023-10-20T11:57:20.264865Z,1697803040264
1.720719337463379,0.9699840545654297,-0.07948252558708191,2023-10-20T11:57:20.285339Z,1697803040285
1.5017881393432617,0.8615937232971191,-0.1010022759437561,2023-10-20T11:57:20.305693Z,1697803040305
1.283712387084961,0.7505354881286621,-0.10892301797866821,2023-10-20T11:57:20.325943Z,1697803040325
1.0711088180541992,0.6375045776367188,-0.10630524158477783,2023-10-20T11:57:20.347764Z,1697803040347
0.8683938980102539,0.5240511894226074,-0.09572708606719971,2023-10-20T11:57:20.365727Z,1697803040365
0.6778240203857422,0.4119744300842285,-0.07965171337127686,2023-10-20T11:57:20.386693Z,1697803040386
0.49652862548828125,0.3017849922180176,-0.060153961181640625,2023-10-20T11:57:20.406540Z,1697803040406
0.32183265686035156,0.19467401504516602,-0.03934800624847412,2023-10-20T11:57:20.427075Z,1697803040427
0.15884971618652344,0.09549093246459961,-0.019439101219177246,2023-10-20T11:57:20.447004Z,1697803040446
0.023627281188964844,0.014127731323242188,-0.0028992891311645508,2023-10-20T11:57:20.467657Z,1697803040467
-0.06695747375488281,-0.0399017333984375,0.00831139087677002,2023-10-20T11:57:20.487844Z,1697803040487
-0.10750579833984375,-0.06403493881225586,0.013599514961242676,2023-10-20T11:57:20.507774Z,1697803040507
-0.10145092010498047,-0.06062746047973633,0.013124585151672363,2023-10-20T11:57:20.530809Z,1697803040530
-0.057537078857421875,-0.03464984893798828,0.007592201232910156,2023-10-20T11:57:20.548361Z,1697803040548
0.016936302185058594,0.010318756103515625,-0.002267599105834961,2023-10-20T11:57:20.569150Z,1697803040569
0.11049938201904297,0.06839704513549805,-0.01491236686706543,2023-10-20T11:57:20.589128Z,1697803040589
0.2102813720703125,0.13274526596069336,-0.028436899185180664,2023-10-20T11:57:20.609587Z,1697803040609
0.3033590316772461,0.19596052169799805,-0.0408322811126709,2023-10-20T11:57:20.630527Z,1697803040630
0.37633419036865234,0.2492380142211914,-0.04998362064361572,2023-10-20T11:57:20.650266Z,1697803040650
0.41527366638183594,0.28206920623779297,-0.053668975830078125,2023-10-20T11:57:20.670350Z,1697803040670
0.4105548858642578,0.28574657440185547,-0.05071735382080078,2023-10-20T11:57:20.690893Z,1697803040690
0.3620142936706543,0.25760316848754883,-0.041790902614593506,2023-10-20T11:57:20.713819Z,1697803040713
0.27538251876831055,0.19963741302490234,-0.028998613357543945,2023-10-20T11:57:20.730973Z,1697803040730
0.1609182357788086,0.11837053298950195,-0.015130341053009033,2023-10-20T11:57:20.751217Z,1697803040751
0.030572891235351562,0.02273416519165039,-0.002525150775909424,2023-10-20T11:57:20.772338Z,1697803040772
-0.09974813461303711,-0.07468414306640625,0.007156431674957275,2023-10-20T11:57:20.792191Z,1697803040792
-0.2148761749267578,-0.16135168075561523,0.013349354267120361,2023-10-20T11:57:20.813633Z,1697803040813
-0.29976654052734375,-0.22484922409057617,0.01639077067375183,2023-10-20T11:57:20.832803Z,1697803040832
-0.3426189422607422,-0.2560768127441406,0.017371296882629395,2023-10-20T11:57:20.853123Z,1697803040853
-0.3365616798400879,-0.25071001052856445,0.017305821180343628,2023-10-20T11:57:20.873656Z,1697803040873
-0.28229761123657227,-0.21015071868896484,0.016064882278442383,2023-10-20T11:57:20.893354Z,1697803040893
-0.18570566177368164,-0.1386880874633789,0.012387394905090332,2023-10-20T11:57:20.913617Z,1697803040913
-0.05316972732543945,-0.03996706008911133,0.0042400360107421875,2023-10-20T11:57:20.934468Z,1697803040934
0.10697412490844727,0.08105850219726562,-0.010103702545166016,2023-10-20T11:57:20.954215Z,1697803040954
0.2800588607788086,0.21397972106933594,-0.03066098690032959,2023-10-20T11:57:20.974924Z,1697803040974
0.4467635154724121,0.3443317413330078,-0.05547833442687988,2023-10-20T11:57:20.997275Z,1697803040997
0.5906195640563965,0.4594712257385254,-0.0817713737487793,2023-10-20T11:57:21.014528Z,1697803041014
0.7010641098022461,0.5506682395935059,-0.10660421848297119,2023-10-20T11:57:21.034889Z,1697803041034
0.7757472991943359,0.6146683692932129,-0.1275879144668579,2023-10-20T11:57:21.055959Z,1697803041055
0.8172259330749512,0.6516666412353516,-0.142969012260437,2023-10-20T11:57:21.075807Z,1697803041075
0.8317956924438477,0.6652112007141113,-0.1524507999420166,2023-10-20T11:57:21.096987Z,1697803041096
0.8275203704833984,0.6610631942749023,-0.15691208839416504,2023-10-20T11:57:21.116530Z,1697803041116
0.811469554901123,0.6446762084960938,-0.1574794054031372,2023-10-20T11:57:21.136736Z,1697803041136
0.7927451133728027,0.6236624717712402,-0.15614140033721924,2023-10-20T11:57:21.156940Z,1697803041156
0.7831220626831055,0.6077632904052734,-0.15583062171936035,2023-10-20T11:57:21.180518Z,1697803041180
0.7929477691650391,0.6052074432373047,-0.15888166427612305,2023-10-20T11:57:21.197287Z,1697803041197
0.8277044296264648,0.6201796531677246,-0.16657698154449463,2023-10-20T11:57:21.217475Z,1697803041217
0.8857779502868652,0.6513233184814453,-0.17849159240722656,2023-10-20T11:57:21.237917Z,1697803041237
0.9606099128723145,0.6933536529541016,-0.1928950548171997,2023-10-20T11:57:21.258209Z,1697803041258
1.0453734397888184,0.7407793998718262,-0.2080521583557129,2023-10-20T11:57:21.281121Z,1697803041281
1.132707118988037,0.7880105972290039,-0.22185516357421875,2023-10-20T11:57:21.298469Z,1697803041298
1.2134180068969727,0.828495979309082,-0.23159492015838623,2023-10-20T11:57:21.318491Z,1697803041318
1.2757606506347656,0.8552155494689941,-0.23427355289459229,2023-10-20T11:57:21.339268Z,1697803041339
1.3082103729248047,0.8613348007202148,-0.22703266143798828,2023-10-20T11:57:21.359024Z,1697803041358
1.304154396057129,0.8428740501403809,-0.20855939388275146,2023-10-20T11:57:21.379884Z,1697803041379
1.264307975769043,0.8003578186035156,-0.18025124073028564,2023-10-20T11:57:21.400431Z,1697803041400
1.1927642822265625,0.736630916595459,-0.14486265182495117,2023-10-20T11:57:21.420712Z,1697803041420
1.0941104888916016,0.6559343338012695,-0.10608536005020142,2023-10-20T11:57:21.440553Z,1697803041440
0.9710664749145508,0.5624032020568848,-0.06756597757339478,2023-10-20T11:57:21.464553Z,1697803041464
0.8265848159790039,0.46039342880249023,-0.032815366983413696,2023-10-20T11:57:21.481233Z,1697803041481
0.6656789779663086,0.3548564910888672,-0.005102306604385376,2023-10-20T11:57:21.501742Z,1697803041501
0.49565696716308594,0.2515602111816406,0.012856483459472656,2023-10-20T11:57:21.522103Z,1697803041522
0.3242168426513672,0.15573692321777344,0.0195273756980896,2023-10-20T11:57:21.542086Z,1697803041542
0.15386104583740234,0.06952285766601562,0.014508605003356934,2023-10-20T11:57:21.563111Z,1697803041563
-0.018726348876953125,-0.00790858268737793,-0.002388596534729004,2023-10-20T11:57:21.582880Z,1697803041582
-0.1990671157836914,-0.07799506187438965,-0.03187263011932373,2023-10-20T11:57:21.603101Z,1697803041603
-0.3905029296875,-0.14056730270385742,-0.07499408721923828,2023-10-20T11:57:21.623342Z,1697803041623
-0.5928955078125,-0.19355463981628418,-0.13246822357177734,2023-10-20T11:57:21.646389Z,1697803041646
-0.8044118881225586,-0.23398327827453613,-0.2043018341064453,2023-10-20T11:57:21.663756Z,1697803041663
-1.0237712860107422,-0.25891876220703125,-0.2902054786682129,2023-10-20T11:57:21.683427Z,1697803041683
-1.2482728958129883,-0.2648509740829468,-0.3891568183898926,2023-10-20T11:57:21.704181Z,1697803041704
-1.4730844497680664,-0.24749135971069336,-0.4994010925292969,2023-10-20T11:57:21.724247Z,1697803041724
-1.6902570724487305,-0.20247364044189453,-0.6175684928894043,2023-10-20T11:57:21.746521Z,1697803041746
-1.8904356956481934,-0.12734177708625793,-0.7380447387695312,2023-10-20T11:57:21.764315Z,1697803041764
-2.0681071281433105,-0.023356109857559204,-0.8552217483520508,2023-10-20T11:57:21.785513Z,1697803041785
-2.224252223968506,0.10600244998931885,-0.9660196304321289,2023-10-20T11:57:21.805747Z,1697803041805
-2.3656206130981445,0.25815099477767944,-1.0695629119873047,2023-10-20T11:57:21.825485Z,1697803041825
-2.497875690460205,0.43412864208221436,-1.1646409034729004,2023-10-20T11:57:21.845955Z,1697803041845
-2.6203746795654297,0.6375710964202881,-1.2454063892364502,2023-10-20T11:57:21.866360Z,1697803041866
-2.72415828704834,0.8724384307861328,-1.2999589443206787,2023-10-20T11:57:21.886404Z,1697803041886
-2.7962493896484375,1.140998363494873,-1.313781499862671,2023-10-20T11:57:21.907152Z,1697803041907
-2.82456111907959,1.4415256977081299,-1.270165205001831,2023-10-20T11:57:21.929683Z,1697803041929
-2.7949695587158203,1.7660243511199951,-1.1513278484344482,2023-10-20T11:57:21.947157Z,1697803041947
-2.683384895324707,2.0900745391845703,-0.9404488801956177,2023-10-20T11:57:21.967292Z,1697803041967
-2.4553894996643066,2.3577847480773926,-0.6314629316329956,2023-10-20T11:57:21.987880Z,1697803041987
-2.0834126472473145,2.474372386932373,-0.25461554527282715,2023-10-20T11:57:22.007706Z,1697803042007
-1.5798239707946777,2.3308486938476562,0.10305225849151611,2023-10-20T11:57:22.029771Z,1697803042029
-1.0118217468261719,1.8623456954956055,0.320797324180603,2023-10-20T11:57:22.048630Z,1697803042048
-0.4735257625579834,1.0887584686279297,0.30616068840026855,2023-10-20T11:57:22.068758Z,1697803042068
-0.033753395080566406,0.09661197662353516,0.03619837760925293,2023-10-20T11:57:22.089497Z,1697803042089
0.28424763679504395,-1.0023746490478516,-0.45924806594848633,2023-10-20T11:57:22.113074Z,1697803042113
0.49317634105682373,-2.093547821044922,-1.1235442161560059,2023-10-20T11:57:22.129759Z,1697803042129
0.6281509399414062,-3.06491756439209,-1.8758220672607422,2023-10-20T11:57:22.149676Z,1697803042149
0.7348477840423584,-3.8395462036132812,-2.623297691345215,2023-10-20T11:57:22.170267Z,1697803042170
0.8433260917663574,-4.381239891052246,-3.287966728210449,2023-10-20T11:57:22.190531Z,1697803042190
0.9529169797897339,-4.691082954406738,-3.806243896484375,2023-10-20T11:57:22.212481Z,1697803042212
1.0566253662109375,-4.8157758712768555,-4.178174018859863,2023-10-20T11:57:22.230375Z,1697803042230
1.1459038257598877,-4.775416374206543,-4.4154863357543945,2023-10-20T11:57:22.250654Z,1697803042250
1.2119364738464355,-4.584616184234619,-4.526034832000732,2023-10-20T11:57:22.272037Z,1697803042271
1.2356793880462646,-4.272000789642334,-4.528411865234375,2023-10-20T11:57:22.291721Z,1697803042291
1.2100619077682495,-3.853461742401123,-4.389272689819336,2023-10-20T11:57:22.312615Z,1697803042312
1.1502130031585693,-3.403718948364258,-4.138883590698242,2023-10-20T11:57:22.331695Z,1697803042331
1.069072961807251,-2.9728355407714844,-3.8196816444396973,2023-10-20T11:57:22.352529Z,1697803042352
0.9635477066040039,-2.58998966217041,-3.4769158363342285,2023-10-20T11:57:22.372787Z,1697803042372
0.830620288848877,-2.260209560394287,-3.134202480316162,2023-10-20T11:57:22.396699Z,1697803042396
0.6920713186264038,-1.9694137573242188,-2.811713218688965,2023-10-20T11:57:22.413206Z,1697803042413
0.5587584972381592,-1.667311191558838,-2.459803581237793,2023-10-20T11:57:22.433208Z,1697803042433
0.4342629909515381,-1.3226070404052734,-2.0239200592041016,2023-10-20T11:57:22.453927Z,1697803042453
0.31350791454315186,-0.923893928527832,-1.4702119827270508,2023-10-20T11:57:22.473965Z,1697803042473
0.17684721946716309,-0.460296630859375,-0.7628898620605469,2023-10-20T11:57:22.496092Z,1697803042496
-0.017297029495239258,0.03596830368041992,0.06285953521728516,2023-10-20T11:57:22.514104Z,1697803042514
-0.3543205261230469,0.5309197902679443,1.0141286849975586,2023-10-20T11:57:22.534549Z,1697803042534
-0.9456663131713867,0.9008798599243164,2.025454521179199,2023-10-20T11:57:22.554842Z,1697803042554
-1.9071853160858154,0.8964649438858032,2.8836469650268555,2023-10-20T11:57:22.575364Z,1697803042575
-3.163273572921753,0.19786159694194794,3.08322811126709,2023-10-20T11:57:22.595801Z,1697803042595
-3.972446918487549,-1.0222923755645752,2.1303529739379883,2023-10-20T11:57:22.615956Z,1697803042615
-3.583435535430908,-1.7603027820587158,0.6743153929710388,2023-10-20T11:57:22.636334Z,1697803042636
-2.4887313842773438,-1.6219959259033203,-0.2053758203983307,2023-10-20T11:57:22.656377Z,1697803042656
-1.3836450576782227,-1.0519003868103027,-0.4013338088989258,2023-10-20T11:57:22.679340Z,1697803042679
-0.5091280937194824,-0.4238157272338867,-0.22912955284118652,2023-10-20T11:57:22.697103Z,1697803042697
0.12823057174682617,0.1122431755065918,0.07280421257019043,2023-10-20T11:57:22.716946Z,1697803042716
0.5860724449157715,0.5239791870117188,0.38196516036987305,2023-10-20T11:57:22.737825Z,1697803042737
0.9005131721496582,0.8006372451782227,0.6393742561340332,2023-10-20T11:57:22.757829Z,1697803042757
1.0961284637451172,0.9445352554321289,0.8189959526062012,2023-10-20T11:57:22.779035Z,1697803042778
1.221144199371338,0.9915871620178223,0.9345016479492188,2023-10-20T11:57:22.798182Z,1697803042798
1.2865357398986816,0.9584765434265137,0.9747490882873535,2023-10-20T11:57:22.818058Z,1697803042818
1.3237638473510742,0.8952202796936035,0.9641299247741699,2023-10-20T11:57:22.838764Z,1697803042838
1.3674583435058594,0.8416695594787598,0.9353470802307129,2023-10-20T11:57:22.862308Z,1697803042862
