ACC_X,ACC_Y,ACC_Z,DATE,UNIX_TIMESTAMP
0.004508495330810547,0.011800765991210938,0.005759716033935547,2023-10-20T11:58:23.993768Z,1697803103993
0.02843785285949707,0.07546043395996094,0.035816192626953125,2023-10-20T11:58:24.014572Z,1697803104014
0.026312589645385742,0.07024192810058594,0.0333404541015625,2023-10-20T11:58:24.035475Z,1697803104035
5.266666412353516E-4,0.001434326171875,6.742477416992188E-4,2023-10-20T11:58:24.055277Z,1697803104055
-0.008387088775634766,-0.024139404296875,-0.011185407638549805,2023-10-20T11:58:24.075049Z,1697803104075
-0.013561487197875977,-0.03963756561279297,-0.01805591583251953,2023-10-20T11:58:24.095853Z,1697803104095
-0.009274959564208984,-0.02687549591064453,-0.011944770812988281,2023-10-20T11:58:24.118279Z,1697803104118
-0.027585506439208984,-0.07720661163330078,-0.034277915954589844,2023-10-20T11:58:24.135975Z,1697803104135
-0.04854536056518555,-0.13463306427001953,-0.0603184700012207,2023-10-20T11:58:24.156240Z,1697803104156
-0.07434725761413574,-0.21059703826904297,-0.0928490161895752,2023-10-20T11:58:24.176720Z,1697803104176
-0.0229032039642334,-0.06427001953125,-0.02921271324157715,2023-10-20T11:58:24.196873Z,1697803104196
-0.036432743072509766,-0.10364055633544922,-0.04643058776855469,2023-10-20T11:58:24.219308Z,1697803104219
-0.04725527763366699,-0.13682174682617188,-0.0601041316986084,2023-10-20T11:58:24.238995Z,1697803104238
-0.0491790771484375,-0.14523887634277344,-0.062198638916015625,2023-10-20T11:58:24.257851Z,1697803104257
-0.0448002815246582,-0.13470458984375,-0.0559077262878418,2023-10-20T11:58:24.277653Z,1697803104277
-0.039116859436035156,-0.11980724334716797,-0.04790067672729492,2023-10-20T11:58:24.298158Z,1697803104298
-0.036797285079956055,-0.115875244140625,-0.044249773025512695,2023-10-20T11:58:24.319053Z,1697803104319
-0.03240847587585449,-0.10715579986572266,-0.038683414459228516,2023-10-20T11:58:24.339552Z,1697803104339
-0.021222591400146484,-0.07499027252197266,-0.02550196647644043,2023-10-20T11:58:24.359212Z,1697803104359
-0.006657600402832031,-0.024896621704101562,-0.008055448532104492,2023-10-20T11:58:24.379489Z,1697803104379
0.004718303680419922,0.018471717834472656,0.005736589431762695,2023-10-20T11:58:24.402291Z,1697803104402
0.012451171875,0.05090808868408203,0.015163898468017578,2023-10-20T11:58:24.420132Z,1697803104420
0.01788949966430664,0.07857131958007812,0.022261619567871094,2023-10-20T11:58:24.440634Z,1697803104440
0.02242100238800049,0.10886764526367188,0.0294797420501709,2023-10-20T11:58:24.460918Z,1697803104460
0.02509450912475586,0.1339864730834961,0.03504037857055664,2023-10-20T11:58:24.480937Z,1697803104480
0.029495716094970703,0.16739463806152344,0.042814016342163086,2023-10-20T11:58:24.502501Z,1697803104502
0.036892056465148926,0.21103191375732422,0.05321002006530762,2023-10-20T11:58:24.523139Z,1697803104523
0.04736196994781494,0.2630605697631836,0.06539607048034668,2023-10-20T11:58:24.541804Z,1697803104541
0.05748903751373291,0.30803966522216797,0.07435870170593262,2023-10-20T11:58:24.562202Z,1697803104562
0.0664902925491333,0.3535614013671875,0.0808563232421875,2023-10-20T11:58:24.581941Z,1697803104581
0.07641518115997314,0.4110279083251953,0.08736634254455566,2023-10-20T11:58:24.602413Z,1697803104602
0.08722877502441406,0.4768362045288086,0.09420657157897949,2023-10-20T11:58:24.623058Z,1697803104623
0.09783041477203369,0.525568962097168,0.09712672233581543,2023-10-20T11:58:24.642413Z,1697803104642
0.10610532760620117,0.5350418090820312,0.09046339988708496,2023-10-20T11:58:24.663262Z,1697803104663
0.018556833267211914,0.0758676528930664,0.02251410484313965,2023-10-20T11:58:24.689484Z,1697803104689
0.0234987735748291,0.09837627410888672,0.027923107147216797,2023-10-20T11:58:24.705620Z,1697803104705
0.02823948860168457,0.121246337890625,0.032799482345581055,2023-10-20T11:58:24.723933Z,1697803104723
0.03266644477844238,0.14396381378173828,0.03700518608093262,2023-10-20T11:58:24.744420Z,1697803104744
0.036512136459350586,0.16495323181152344,0.040181636810302734,2023-10-20T11:58:24.764208Z,1697803104764
0.03970646858215332,0.18336009979248047,0.04222464561462402,2023-10-20T11:58:24.785537Z,1697803104785
0.04234480857849121,0.19919300079345703,0.04325151443481445,2023-10-20T11:58:24.805415Z,1697803104805
0.04468846321105957,0.21332263946533203,0.04352414608001709,2023-10-20T11:58:24.825014Z,1697803104824
0.04683661460876465,0.22580432891845703,0.043112874031066895,2023-10-20T11:58:24.845495Z,1697803104845
0.04877305030822754,0.23636150360107422,0.042031168937683105,2023-10-20T11:58:24.865312Z,1697803104865
0.050539255142211914,0.24520301818847656,0.04037833213806152,2023-10-20T11:58:24.885758Z,1697803104885
0.05240178108215332,0.25330448150634766,0.038376688957214355,2023-10-20T11:58:24.906661Z,1697803104906
0.05440974235534668,0.26074981689453125,0.03612470626831055,2023-10-20T11:58:24.926296Z,1697803104926
0.05643486976623535,0.2669973373413086,0.033646583557128906,2023-10-20T11:58:24.947334Z,1697803104947
0.05847883224487305,0.2723121643066406,0.03104555606842041,2023-10-20T11:58:24.968913Z,1697803104968
0.06076669692993164,0.2782154083251953,0.028499960899353027,2023-10-20T11:58:24.986874Z,1697803104986
0.06346869468688965,0.28592681884765625,0.026088237762451172,2023-10-20T11:58:25.007852Z,1697803105007
0.06651639938354492,0.2954673767089844,0.023798584938049316,2023-10-20T11:58:25.028329Z,1697803105028
0.06966638565063477,0.3059883117675781,0.021594762802124023,2023-10-20T11:58:25.048119Z,1697803105048
0.07270598411560059,0.3166532516479492,0.019514501094818115,2023-10-20T11:58:25.068775Z,1697803105068
0.07544875144958496,0.32642364501953125,0.01757335662841797,2023-10-20T11:58:25.088431Z,1697803105088
0.07769489288330078,0.3347034454345703,0.01577359437942505,2023-10-20T11:58:25.109153Z,1697803105109
0.07952356338500977,0.3417949676513672,0.014074772596359253,2023-10-20T11:58:25.129235Z,1697803105129
0.08130264282226562,0.3492307662963867,0.012470930814743042,2023-10-20T11:58:25.152342Z,1697803105152
0.08329200744628906,0.35848140716552734,0.011019498109817505,2023-10-20T11:58:25.169631Z,1697803105169
0.08549356460571289,0.36946773529052734,0.009766548871994019,2023-10-20T11:58:25.189541Z,1697803105189
0.08787155151367188,0.3816871643066406,0.008752614259719849,2023-10-20T11:58:25.210682Z,1697803105210
0.0902245044708252,0.393829345703125,0.00798027217388153,2023-10-20T11:58:25.230926Z,1697803105230
0.09241938591003418,0.40525341033935547,0.007405534386634827,2023-10-20T11:58:25.251784Z,1697803105251
0.09446978569030762,0.4163494110107422,0.007006511092185974,2023-10-20T11:58:25.271237Z,1697803105271
0.09631037712097168,0.42687416076660156,0.006734758615493774,2023-10-20T11:58:25.291329Z,1697803105291
0.09783077239990234,0.43610572814941406,0.006639555096626282,2023-10-20T11:58:25.311976Z,1697803105311
0.09864664077758789,0.4421730041503906,0.006742954254150391,2023-10-20T11:58:25.331515Z,1697803105331
0.0985722541809082,0.44447898864746094,0.007068008184432983,2023-10-20T11:58:25.352223Z,1697803105352
0.09758424758911133,0.4428997039794922,0.007559001445770264,2023-10-20T11:58:25.372295Z,1697803105372
0.09565162658691406,0.43769168853759766,0.008074700832366943,2023-10-20T11:58:25.393040Z,1697803105392
0.09259700775146484,0.42853546142578125,0.008498325943946838,2023-10-20T11:58:25.413106Z,1697803105413
0.0886528491973877,0.41638851165771484,0.008700311183929443,2023-10-20T11:58:25.435443Z,1697803105435
0.08443784713745117,0.4031381607055664,0.008657336235046387,2023-10-20T11:58:25.453761Z,1697803105453
0.08024382591247559,0.38929176330566406,0.00837177038192749,2023-10-20T11:58:25.473622Z,1697803105473
0.07616710662841797,0.37517261505126953,0.00792837142944336,2023-10-20T11:58:25.493961Z,1697803105493
0.07210052013397217,0.36017322540283203,0.007332652807235718,2023-10-20T11:58:25.513498Z,1697803105513
0.06825685501098633,0.3456401824951172,0.006611064076423645,2023-10-20T11:58:25.535299Z,1697803105535
0.06474649906158447,0.3322925567626953,0.005751416087150574,2023-10-20T11:58:25.555058Z,1697803105555
0.06160414218902588,0.32026195526123047,0.004772275686264038,2023-10-20T11:58:25.574819Z,1697803105574
0.058826327323913574,0.30906009674072266,0.003758452832698822,2023-10-20T11:58:25.594883Z,1697803105594
0.05647432804107666,0.29810237884521484,0.002791784703731537,2023-10-20T11:58:25.618439Z,1697803105618
0.05450713634490967,0.2871847152709961,0.0019314587116241455,2023-10-20T11:58:25.635755Z,1697803105635
0.05261695384979248,0.27565574645996094,0.0012041442096233368,2023-10-20T11:58:25.656236Z,1697803105656
0.050707340240478516,0.2637014389038086,6.005167961120605E-4,2023-10-20T11:58:25.676789Z,1697803105676
0.04880976676940918,0.25165557861328125,8.546584285795689E-5,2023-10-20T11:58:25.696924Z,1697803105696
0.04711270332336426,0.24027252197265625,-3.854651004076004E-4,2023-10-20T11:58:25.718214Z,1697803105718
0.045859456062316895,0.23064708709716797,-8.38838517665863E-4,2023-10-20T11:58:25.736907Z,1697803105736
0.045221924781799316,0.22376346588134766,-0.0012928694486618042,2023-10-20T11:58:25.756959Z,1697803105756
0.045267343521118164,0.2201671600341797,-0.001758389174938202,2023-10-20T11:58:25.777451Z,1697803105777
0.046037912368774414,0.22023773193359375,-0.0022502243518829346,2023-10-20T11:58:25.797604Z,1697803105797
0.04748392105102539,0.2238473892211914,-0.002794407308101654,2023-10-20T11:58:25.818161Z,1697803105818
0.04970216751098633,0.23123550415039062,-0.00339585542678833,2023-10-20T11:58:25.838352Z,1697803105838
0.052640438079833984,0.24175262451171875,-0.004041194915771484,2023-10-20T11:58:25.858927Z,1697803105858
0.056143999099731445,0.25424671173095703,-0.004701197147369385,2023-10-20T11:58:25.879375Z,1697803105879
0.060158729553222656,0.26796913146972656,-0.005299165844917297,2023-10-20T11:58:25.901356Z,1697803105901
0.06473946571350098,0.2829427719116211,-0.005789816379547119,2023-10-20T11:58:25.918800Z,1697803105918
0.06986761093139648,0.2990074157714844,-0.00611017644405365,2023-10-20T11:58:25.939598Z,1697803105939
0.07529592514038086,0.3151721954345703,-0.006206870079040527,2023-10-20T11:58:25.959975Z,1697803105959
0.08088874816894531,0.3309345245361328,-0.0060755908489227295,2023-10-20T11:58:25.980232Z,1697803105980
0.08642959594726562,0.3451852798461914,-0.005761474370956421,2023-10-20T11:58:26.001249Z,1697803106001
0.09179830551147461,0.35748767852783203,-0.005296051502227783,2023-10-20T11:58:26.020528Z,1697803106020
0.09665870666503906,0.36675357818603516,-0.004723086953163147,2023-10-20T11:58:26.040749Z,1697803106040
0.10100531578063965,0.37342262268066406,-0.004104040563106537,2023-10-20T11:58:26.061316Z,1697803106061
0.10514664649963379,0.3790721893310547,-0.0035196319222450256,2023-10-20T11:58:26.084953Z,1697803106084
0.10933971405029297,0.3852348327636719,-0.003073461353778839,2023-10-20T11:58:26.102159Z,1697803106102
0.11357474327087402,0.39232921600341797,-0.002786405384540558,2023-10-20T11:58:26.122203Z,1697803106122
0.11755728721618652,0.39951610565185547,-0.0026358142495155334,2023-10-20T11:58:26.142564Z,1697803106142
0.12126541137695312,0.4065427780151367,-0.002572275698184967,2023-10-20T11:58:26.162797Z,1697803106162
0.12460136413574219,0.41283321380615234,-0.002561483532190323,2023-10-20T11:58:26.184684Z,1697803106184
0.1277008056640625,0.4188661575317383,-0.002558719366788864,2023-10-20T11:58:26.202661Z,1697803106202
0.1307516098022461,0.42534351348876953,-0.0025448575615882874,2023-10-20T11:58:26.223289Z,1697803106223
0.13387560844421387,0.43287086486816406,-0.0024763457477092743,2023-10-20T11:58:26.243979Z,1697803106243
0.13712120056152344,0.4417438507080078,-0.0023163408041000366,2023-10-20T11:58:26.263531Z,1697803106263
0.14011311531066895,0.45099544525146484,-0.001993294805288315,2023-10-20T11:58:26.284255Z,1697803106284
0.14260601997375488,0.45999813079833984,-0.001457996666431427,2023-10-20T11:58:26.304321Z,1697803106304
0.14469170570373535,0.46919727325439453,-6.8673025816679E-4,2023-10-20T11:58:26.325037Z,1697803106324
0.14672303199768066,0.4800243377685547,3.004814498126507E-4,2023-10-20T11:58:26.345057Z,1697803106345
0.1489698886871338,0.4937458038330078,0.001517830416560173,2023-10-20T11:58:26.366452Z,1697803106366
0.15146589279174805,0.5109891891479492,0.003052264451980591,2023-10-20T11:58:26.384873Z,1697803106384
0.15407037734985352,0.5317363739013672,0.005003146827220917,2023-10-20T11:58:26.406023Z,1697803106405
0.15674161911010742,0.5562849044799805,0.007453560829162598,2023-10-20T11:58:26.425888Z,1697803106425
0.15947747230529785,0.5848703384399414,0.010455995798110962,2023-10-20T11:58:26.445868Z,1697803106445
0.1621406078338623,0.6174173355102539,0.014085710048675537,2023-10-20T11:58:26.467881Z,1697803106467
0.16472434997558594,0.6543436050415039,0.0184706449508667,2023-10-20T11:58:26.486168Z,1697803106486
0.16709280014038086,0.6956825256347656,0.023738831281661987,2023-10-20T11:58:26.506759Z,1697803106506
0.16904807090759277,0.7411117553710938,0.030005812644958496,2023-10-20T11:58:26.527644Z,1697803106527
0.17039752006530762,0.7896099090576172,0.03737124800682068,2023-10-20T11:58:26.547028Z,1697803106546
0.17101597785949707,0.8396673202514648,0.04592299461364746,2023-10-20T11:58:26.568178Z,1697803106568
0.17093205451965332,0.8901090621948242,0.055699288845062256,2023-10-20T11:58:26.587748Z,1697803106587
0.17016363143920898,0.9402275085449219,0.06672167778015137,2023-10-20T11:58:26.608668Z,1697803106608
0.16874611377716064,0.9897527694702148,0.07904160022735596,2023-10-20T11:58:26.628697Z,1697803106628
0.16694164276123047,1.039240837097168,0.09277766942977905,2023-10-20T11:58:26.651102Z,1697803106651
0.16511774063110352,1.0890016555786133,0.10807490348815918,2023-10-20T11:58:26.669123Z,1697803106669
0.1636749505996704,1.1387786865234375,0.12501144409179688,2023-10-20T11:58:26.689084Z,1697803106689
0.1627974510192871,1.1877689361572266,0.14364910125732422,2023-10-20T11:58:26.709117Z,1697803106709
0.16255438327789307,1.2348270416259766,0.16391849517822266,2023-10-20T11:58:26.729561Z,1697803106729
0.1630384922027588,1.2789583206176758,0.1856907606124878,2023-10-20T11:58:26.750830Z,1697803106750
0.16432249546051025,1.3188695907592773,0.20869064331054688,2023-10-20T11:58:26.770225Z,1697803106770
0.1668555736541748,1.3539543151855469,0.23263120651245117,2023-10-20T11:58:26.790826Z,1697803106790
0.1708899736404419,1.3824653625488281,0.2569997310638428,2023-10-20T11:58:26.811194Z,1697803106811
0.17652881145477295,1.401519775390625,0.2809486389160156,2023-10-20T11:58:26.834014Z,1697803106833
0.18343663215637207,1.4072742462158203,0.3032724857330322,2023-10-20T11:58:26.851529Z,1697803106851
0.19110822677612305,1.3960809707641602,0.3225536346435547,2023-10-20T11:58:26.871979Z,1697803106871
0.19890844821929932,1.3655376434326172,0.3373572826385498,2023-10-20T11:58:26.891984Z,1697803106891
0.20596730709075928,1.3132972717285156,0.3461289405822754,2023-10-20T11:58:26.912188Z,1697803106912
0.21104252338409424,1.2369041442871094,0.347165584564209,2023-10-20T11:58:26.934009Z,1697803106933
0.21235132217407227,1.1340875625610352,0.3385477066040039,2023-10-20T11:58:26.953375Z,1697803106953
0.207869291305542,1.0039024353027344,0.31840038299560547,2023-10-20T11:58:26.973242Z,1697803106973
0.19471168518066406,0.8454122543334961,0.2846682071685791,2023-10-20T11:58:26.993353Z,1697803106993
0.16980338096618652,0.6594600677490234,0.23571181297302246,2023-10-20T11:58:27.013282Z,1697803107013
0.12967848777770996,0.44862937927246094,0.17029690742492676,2023-10-20T11:58:27.033933Z,1697803107033
0.07081985473632812,0.21749401092529297,0.08778643608093262,2023-10-20T11:58:27.054485Z,1697803107054
-0.01011347770690918,-0.027490615844726562,-0.011818170547485352,2023-10-20T11:58:27.074523Z,1697803107074
-0.11642217636108398,-0.2792387008666992,-0.12821650505065918,2023-10-20T11:58:27.094517Z,1697803107094
-0.2509462833404541,-0.5288925170898438,-0.26030683517456055,2023-10-20T11:58:27.117512Z,1697803107117
-0.41599321365356445,-0.7663164138793945,-0.4060661792755127,2023-10-20T11:58:27.134911Z,1697803107134
-0.6126861572265625,-0.9802303314208984,-0.5622403621673584,2023-10-20T11:58:27.155039Z,1697803107155
-0.840296745300293,-1.1589064598083496,-0.7244217395782471,2023-10-20T11:58:27.175240Z,1697803107175
-1.0950837135314941,-1.2902641296386719,-0.886711597442627,2023-10-20T11:58:27.196153Z,1697803107196
-1.3703112602233887,-1.3637166023254395,-1.0421462059020996,2023-10-20T11:58:27.215964Z,1697803107215
-1.6559572219848633,-1.370865821838379,-1.1828553676605225,2023-10-20T11:58:27.237045Z,1697803107237
-1.9393162727355957,-1.307551383972168,-1.3011643886566162,2023-10-20T11:58:27.257187Z,1697803107257
-2.205296516418457,-1.1739656925201416,-1.390385627746582,2023-10-20T11:58:27.277161Z,1697803107277
-2.4387569427490234,-0.9762496948242188,-1.4462504386901855,2023-10-20T11:58:27.300521Z,1697803107300
-2.6245341300964355,-0.7258930206298828,-1.465740442276001,2023-10-20T11:58:27.317306Z,1697803107317
-2.7495503425598145,-0.4397599697113037,-1.4481549263000488,2023-10-20T11:58:27.337739Z,1697803107337
-2.8038058280944824,-0.13861852884292603,-1.394852638244629,2023-10-20T11:58:27.357760Z,1697803107357
-2.7848753929138184,0.15431630611419678,-1.3112878799438477,2023-10-20T11:58:27.378418Z,1697803107378
-2.6979832649230957,0.4180375337600708,-1.2052586078643799,2023-10-20T11:58:27.401019Z,1697803107400
-2.5549421310424805,0.6371297836303711,-1.085791826248169,2023-10-20T11:58:27.418700Z,1697803107418
-2.3708982467651367,0.8036253452301025,-0.9616467952728271,2023-10-20T11:58:27.438586Z,1697803107438
-2.1603636741638184,0.9160692691802979,-0.8390839099884033,2023-10-20T11:58:27.460164Z,1697803107460
-1.9381933212280273,0.9784462451934814,-0.7231800556182861,2023-10-20T11:58:27.479655Z,1697803107479
-1.7172698974609375,0.9976446628570557,-0.6172013282775879,2023-10-20T11:58:27.501384Z,1697803107501
-1.508387565612793,0.9835963249206543,-0.5235776901245117,2023-10-20T11:58:27.520266Z,1697803107520
-1.3177638053894043,0.9461255073547363,-0.44313597679138184,2023-10-20T11:58:27.540152Z,1697803107540
-1.148709774017334,0.894566535949707,-0.375687837600708,2023-10-20T11:58:27.560842Z,1697803107560
-1.0014967918395996,0.8362021446228027,-0.3199625015258789,2023-10-20T11:58:27.583772Z,1697803107583
-0.8757939338684082,0.7771468162536621,-0.2745075225830078,2023-10-20T11:58:27.600933Z,1697803107600
-0.7709240913391113,0.7223138809204102,-0.23800313472747803,2023-10-20T11:58:27.620992Z,1697803107620
-0.6845593452453613,0.6738748550415039,-0.20877552032470703,2023-10-20T11:58:27.641898Z,1697803107641
-0.6142139434814453,0.6327080726623535,-0.18554818630218506,2023-10-20T11:58:27.662198Z,1697803107662
-0.5567622184753418,0.5980944633483887,-0.167083740234375,2023-10-20T11:58:27.683344Z,1697803107683
-0.5092258453369141,0.5687613487243652,-0.15236127376556396,2023-10-20T11:58:27.702458Z,1697803107702
-0.46906137466430664,0.5432724952697754,-0.14051175117492676,2023-10-20T11:58:27.722747Z,1697803107722
-0.4343991279602051,0.5205483436584473,-0.13077402114868164,2023-10-20T11:58:27.743243Z,1697803107743
-0.4036593437194824,0.4994959831237793,-0.12238013744354248,2023-10-20T11:58:27.763295Z,1697803107763
-0.37609195709228516,0.4795851707458496,-0.11472892761230469,2023-10-20T11:58:27.783755Z,1697803107783
-0.35201168060302734,0.4614715576171875,-0.10758709907531738,2023-10-20T11:58:27.804477Z,1697803107804
-0.3327646255493164,0.4474196434020996,-0.10113298892974854,2023-10-20T11:58:27.824266Z,1697803107824
-0.32225465774536133,0.44390249252319336,-0.09638118743896484,2023-10-20T11:58:27.844709Z,1697803107844
-0.32456398010253906,0.45839881896972656,-0.09403765201568604,2023-10-20T11:58:27.866795Z,1697803107866
-0.34055566787719727,0.49440479278564453,-0.09304618835449219,2023-10-20T11:58:27.884774Z,1697803107884
-0.3658761978149414,0.5484046936035156,-0.08968627452850342,2023-10-20T11:58:27.905103Z,1697803107905
-0.39057159423828125,0.6087460517883301,-0.07781481742858887,2023-10-20T11:58:27.925826Z,1697803107925
-0.3988504409790039,0.6536188125610352,-0.051269710063934326,2023-10-20T11:58:27.945764Z,1697803107945
-0.37266969680786133,0.6520490646362305,-0.009599991142749786,2023-10-20T11:58:27.966556Z,1697803107966
-0.2947516441345215,0.5610799789428711,0.034322589635849,2023-10-20T11:58:27.986377Z,1697803107986
-0.1587355136871338,0.3361053466796875,0.048880815505981445,2023-10-20T11:58:28.006218Z,1697803108006
0.025792360305786133,-0.062267303466796875,-0.014550447463989258,2023-10-20T11:58:28.026676Z,1697803108026
0.2315356731414795,-0.6526355743408203,-0.21022510528564453,2023-10-20T11:58:28.049905Z,1697803108049
0.42284297943115234,-1.418436050415039,-0.5790636539459229,2023-10-20T11:58:28.066887Z,1697803108066
0.571556806564331,-2.303224563598633,-1.1328177452087402,2023-10-20T11:58:28.087576Z,1697803108087
0.6706992387771606,-3.213046073913574,-1.8486018180847168,2023-10-20T11:58:28.107957Z,1697803108107
0.7385640144348145,-4.039619445800781,-2.6662821769714355,2023-10-20T11:58:28.128192Z,1697803108128
0.8073458671569824,-4.682903289794922,-3.4859867095947266,2023-10-20T11:58:28.149931Z,1697803108149
0.9016180038452148,-5.099427700042725,-4.218541145324707,2023-10-20T11:58:28.168949Z,1697803108168
1.016857624053955,-5.282881259918213,-4.8122711181640625,2023-10-20T11:58:28.188815Z,1697803108188
1.148956298828125,-5.26474666595459,-5.268909454345703,2023-10-20T11:58:28.209064Z,1697803108209
1.2704615592956543,-5.082904815673828,-5.628996849060059,2023-10-20T11:58:28.229536Z,1697803108229
1.3888804912567139,-4.741851806640625,-5.878490447998047,2023-10-20T11:58:28.249801Z,1697803108249
1.4937851428985596,-4.273820400238037,-6.013707637786865,2023-10-20T11:58:28.270016Z,1697803108269
1.568021535873413,-3.699460983276367,-5.999300956726074,2023-10-20T11:58:28.290342Z,1697803108290
1.6115994453430176,-3.0840344429016113,-5.828792572021484,2023-10-20T11:58:28.310353Z,1697803108310
1.6039295196533203,-2.4909701347351074,-5.554878234863281,2023-10-20T11:58:28.333267Z,1697803108333
1.5690250396728516,-1.9696779251098633,-5.263890266418457,2023-10-20T11:58:28.350862Z,1697803108350
1.524238109588623,-1.5262455940246582,-5.00514030456543,2023-10-20T11:58:28.371614Z,1697803108371
1.492154598236084,-1.1489558219909668,-4.789865493774414,2023-10-20T11:58:28.391856Z,1697803108391
1.4810714721679688,-0.8078566789627075,-4.578207969665527,2023-10-20T11:58:28.412077Z,1697803108412
1.501415729522705,-0.4803037643432617,-4.294726371765137,2023-10-20T11:58:28.433128Z,1697803108433
1.5371389389038086,-0.16810831427574158,-3.93475341796875,2023-10-20T11:58:28.452391Z,1697803108452
1.587265968322754,0.13224026560783386,-3.5175905227661133,2023-10-20T11:58:28.472748Z,1697803108472
1.6697912216186523,0.42278778553009033,-3.12154483795166,2023-10-20T11:58:28.492946Z,1697803108492
1.805880069732666,0.7324967384338379,-2.8045339584350586,2023-10-20T11:58:28.516409Z,1697803108516
2.0489273071289062,1.1071453094482422,-2.584737777709961,2023-10-20T11:58:28.533419Z,1697803108533
2.424971580505371,1.6045284271240234,-2.435532569885254,2023-10-20T11:58:28.553560Z,1697803108553
2.9611377716064453,2.2860565185546875,-2.3071446418762207,2023-10-20T11:58:28.574028Z,1697803108573
3.6452388763427734,3.1804585456848145,-2.1183438301086426,2023-10-20T11:58:28.594307Z,1697803108594
4.3964152336120605,4.232295989990234,-1.786475658416748,2023-10-20T11:58:28.616762Z,1697803108616
5.115631103515625,5.334789276123047,-1.2951223850250244,2023-10-20T11:58:28.634569Z,1697803108634
5.711783409118652,6.367186546325684,-0.7023576498031616,2023-10-20T11:58:28.655571Z,1697803108655
6.142949104309082,7.247495651245117,-0.09287935495376587,2023-10-20T11:58:28.675134Z,1697803108675
6.425670623779297,7.929650783538818,0.47199445962905884,2023-10-20T11:58:28.695585Z,1697803108695
6.580014228820801,8.397369384765625,0.9680469036102295,2023-10-20T11:58:28.716426Z,1697803108716
6.6602864265441895,8.663256645202637,1.4079885482788086,2023-10-20T11:58:28.736392Z,1697803108736
6.647543907165527,8.708325386047363,1.7659664154052734,2023-10-20T11:58:28.756825Z,1697803108756
6.56532621383667,8.563273429870605,2.0267059803009033,2023-10-20T11:58:28.776661Z,1697803108776
6.437175273895264,8.25436782836914,2.161250591278076,2023-10-20T11:58:28.799845Z,1697803108799
6.279160976409912,7.857404708862305,2.1604456901550293,2023-10-20T11:58:28.816987Z,1697803108816
6.155758857727051,7.458510398864746,2.073289632797241,2023-10-20T11:58:28.837263Z,1697803108837
6.076094150543213,7.1080002784729,1.9608221054077148,2023-10-20T11:58:28.857741Z,1697803108857
6.041593551635742,6.812064170837402,1.8605027198791504,2023-10-20T11:58:28.877707Z,1697803108877
6.021695137023926,6.5526041984558105,1.780745029449463,2023-10-20T11:58:28.899224Z,1697803108899
5.972628593444824,6.2873125076293945,1.7029175758361816,2023-10-20T11:58:28.917853Z,1697803108917
5.821885108947754,5.971059322357178,1.5823864936828613,2023-10-20T11:58:28.938823Z,1697803108938
5.588429927825928,5.61777400970459,1.426405429840088,2023-10-20T11:58:28.959265Z,1697803108959
5.2629876136779785,5.21248722076416,1.2388942241668701,2023-10-20T11:58:28.978962Z,1697803108978
4.856466770172119,4.7645673751831055,1.0451762676239014,2023-10-20T11:58:28.998891Z,1697803108998
4.401578903198242,4.274937629699707,0.8611371517181396,2023-10-20T11:58:29.020047Z,1697803109020
3.8910913467407227,3.7448787689208984,0.6756787300109863,2023-10-20T11:58:29.040057Z,1697803109040
3.3745899200439453,3.2058019638061523,0.49309682846069336,2023-10-20T11:58:29.060564Z,1697803109060
2.8720951080322266,2.677504539489746,0.32411038875579834,2023-10-20T11:58:29.082391Z,1697803109082
2.3906497955322266,2.170403480529785,0.17772191762924194,2023-10-20T11:58:29.100819Z,1697803109100
1.949307918548584,1.706894874572754,0.06046032905578613,2023-10-20T11:58:29.121130Z,1697803109121
1.5605683326721191,1.303924560546875,-0.0244254469871521,2023-10-20T11:58:29.141422Z,1697803109141
1.235280990600586,0.9744048118591309,-0.07866501808166504,2023-10-20T11:58:29.161449Z,1697803109161
0.9792385101318359,0.7230448722839355,-0.10849356651306152,2023-10-20T11:58:29.182656Z,1697803109182
0.7918405532836914,0.5452117919921875,-0.12308681011199951,2023-10-20T11:58:29.202048Z,1697803109202
0.6675729751586914,0.4290952682495117,-0.13111591339111328,2023-10-20T11:58:29.222478Z,1697803109222
0.5972957611083984,0.35941362380981445,-0.13886070251464844,2023-10-20T11:58:29.243422Z,1697803109243
0.5670242309570312,0.32033491134643555,-0.1490027904510498,2023-10-20T11:58:29.266221Z,1697803109266
0.5612401962280273,0.2985711097717285,-0.1610269546508789,2023-10-20T11:58:29.283122Z,1697803109283
0.5645780563354492,0.2841205596923828,-0.17208099365234375,2023-10-20T11:58:29.302904Z,1697803109302
0.5690507888793945,0.27253293991088867,-0.1803269386291504,2023-10-20T11:58:29.323791Z,1697803109323
0.5731582641601562,0.263092041015625,-0.18575334548950195,2023-10-20T11:58:29.344531Z,1697803109344
0.5773143768310547,0.2560241222381592,-0.18903779983520508,2023-10-20T11:58:29.365806Z,1697803109365
0.5814676284790039,0.2513864040374756,-0.19070863723754883,2023-10-20T11:58:29.384735Z,1697803109384
0.5867996215820312,0.24967670440673828,-0.19158482551574707,2023-10-20T11:58:29.404893Z,1697803109404
0.5973834991455078,0.2523355484008789,-0.1932060718536377,2023-10-20T11:58:29.425079Z,1697803109425
0.6144247055053711,0.2596259117126465,-0.195939302444458,2023-10-20T11:58:29.445062Z,1697803109445
0.6368284225463867,0.27118849754333496,-0.19937467575073242,2023-10-20T11:58:29.466123Z,1697803109466
0.6642179489135742,0.2871565818786621,-0.20338177680969238,2023-10-20T11:58:29.486020Z,1697803109485
0.6973886489868164,0.30805444717407227,-0.20817828178405762,2023-10-20T11:58:29.506138Z,1697803109506
0.7335634231567383,0.3327178955078125,-0.21274399757385254,2023-10-20T11:58:29.526350Z,1697803109526
0.7663154602050781,0.35813474655151367,-0.2149815559387207,2023-10-20T11:58:29.548930Z,1697803109548
0.7880373001098633,0.38051700592041016,-0.21266961097717285,2023-10-20T11:58:29.566886Z,1697803109566
0.796417236328125,0.3982105255126953,-0.2056140899658203,2023-10-20T11:58:29.587243Z,1697803109587
0.7913665771484375,0.410336971282959,-0.19440674781799316,2023-10-20T11:58:29.607272Z,1697803109607
0.7710485458374023,0.41500091552734375,-0.17920541763305664,2023-10-20T11:58:29.628101Z,1697803109628
0.7323789596557617,0.4095640182495117,-0.1599191427230835,2023-10-20T11:58:29.648769Z,1697803109648
0.6735115051269531,0.3916969299316406,-0.13691926002502441,2023-10-20T11:58:29.668525Z,1697803109668
0.5960960388183594,0.36083459854125977,-0.1116563081741333,2023-10-20T11:58:29.688533Z,1697803109688
0.5054693222045898,0.31864070892333984,-0.08632850646972656,2023-10-20T11:58:29.708882Z,1697803109708
0.4077625274658203,0.26770639419555664,-0.0627448558807373,2023-10-20T11:58:29.732075Z,1697803109732
0.30921459197998047,0.21137666702270508,-0.04223144054412842,2023-10-20T11:58:29.749272Z,1697803109749
0.2166733741760254,0.15413618087768555,-0.025771677494049072,2023-10-20T11:58:29.769740Z,1697803109769
0.13490867614746094,0.09977912902832031,-0.013656556606292725,2023-10-20T11:58:29.789845Z,1697803109789
0.06679010391235352,0.05128669738769531,-0.005601644515991211,2023-10-20T11:58:29.810054Z,1697803109810
0.011562824249267578,0.009204387664794922,-7.746219635009766E-4,2023-10-20T11:58:29.832353Z,1697803109832
-0.031445980072021484,-0.025893211364746094,0.0015964210033416748,2023-10-20T11:58:29.850202Z,1697803109850
-0.06149435043334961,-0.05227518081665039,0.0021796226501464844,2023-10-20T11:58:29.870474Z,1697803109870
-0.07775163650512695,-0.0680851936340332,0.0016509443521499634,2023-10-20T11:58:29.891401Z,1697803109891
-0.08127450942993164,-0.07317113876342773,6.69434666633606E-4,2023-10-20T11:58:29.911516Z,1697803109911
-0.07445096969604492,-0.06882953643798828,-2.617686986923218E-4,2023-10-20T11:58:29.932364Z,1697803109932
-0.05996513366699219,-0.05689239501953125,-8.386224508285522E-4,2023-10-20T11:58:29.952429Z,1697803109952
-0.04115867614746094,-0.04006338119506836,-9.514391422271729E-4,2023-10-20T11:58:29.972273Z,1697803109972
-0.020894527435302734,-0.020865917205810547,-6.481409072875977E-4,2023-10-20T11:58:29.992562Z,1697803109992
-0.0014786720275878906,-0.0015149116516113281,-5.6236982345581055E-5,2023-10-20T11:58:30.015914Z,1697803110015
0.01645803451538086,0.01732635498046875,7.146894931793213E-4,2023-10-20T11:58:30.033419Z,1697803110033
0.032318115234375,0.03493833541870117,0.0015436410903930664,2023-10-20T11:58:30.053199Z,1697803110053
0.04435539245605469,0.04920196533203125,0.002297729253768921,2023-10-20T11:58:30.073358Z,1697803110073
0.05144071578979492,0.05847454071044922,0.002879589796066284,2023-10-20T11:58:30.093813Z,1697803110093
0.054574012756347656,0.06346559524536133,0.0033032894134521484,2023-10-20T11:58:30.114915Z,1697803110114
0.05575990676879883,0.06616449356079102,0.0036270320415496826,2023-10-20T11:58:30.134080Z,1697803110134
0.055954933166503906,0.06747579574584961,0.003864288330078125,2023-10-20T11:58:30.154442Z,1697803110154
0.0549464225769043,0.06705999374389648,0.003973960876464844,2023-10-20T11:58:30.174886Z,1697803110174
0.05237531661987305,0.06448221206665039,0.0039071738719940186,2023-10-20T11:58:30.198099Z,1697803110198
0.048795223236083984,0.06046152114868164,0.003707289695739746,2023-10-20T11:58:30.214914Z,1697803110214
0.04592180252075195,0.05720806121826172,0.003520101308822632,2023-10-20T11:58:30.235624Z,1697803110235
0.04577827453613281,0.057331085205078125,0.003482520580291748,2023-10-20T11:58:30.256132Z,1697803110256
0.04970836639404297,0.06260299682617188,0.003655552864074707,2023-10-20T11:58:30.275764Z,1697803110275
0.0569610595703125,0.07217597961425781,0.0039061009883880615,2023-10-20T11:58:30.297786Z,1697803110297
0.0653533935546875,0.08336591720581055,0.004005551338195801,2023-10-20T11:58:30.317049Z,1697803110317
0.07327508926391602,0.09419727325439453,0.003828495740890503,2023-10-20T11:58:30.336726Z,1697803110336
0.08163738250732422,0.1059103012084961,0.003411710262298584,2023-10-20T11:58:30.357251Z,1697803110357
0.0921788215637207,0.12078475952148438,0.0027967095375061035,2023-10-20T11:58:30.377295Z,1697803110377
0.10551214218139648,0.13959455490112305,0.0019723251461982727,2023-10-20T11:58:30.398076Z,1697803110398
0.12109088897705078,0.16152572631835938,8.921995759010315E-4,2023-10-20T11:58:30.418250Z,1697803110418
0.13743925094604492,0.1844468116760254,-4.5264512300491333E-4,2023-10-20T11:58:30.437901Z,1697803110437
0.1531233787536621,0.20627641677856445,-0.002014368772506714,2023-10-20T11:58:30.458567Z,1697803110458
0.16775751113891602,0.2263317108154297,-0.003707215189933777,2023-10-20T11:58:30.481814Z,1697803110481
0.18175840377807617,0.2450275421142578,-0.005447849631309509,2023-10-20T11:58:30.498561Z,1697803110498
0.19546937942504883,0.26277732849121094,-0.007151007652282715,2023-10-20T11:58:30.519124Z,1697803110519
0.20911216735839844,0.28004932403564453,-0.008760213851928711,2023-10-20T11:58:30.539809Z,1697803110539
0.2214984893798828,0.29568004608154297,-0.010270625352859497,2023-10-20T11:58:30.560046Z,1697803110559
0.2318277359008789,0.3089308738708496,-0.01179724931716919,2023-10-20T11:58:30.581487Z,1697803110581
0.23982000350952148,0.31957435607910156,-0.013433307409286499,2023-10-20T11:58:30.600113Z,1697803110600
0.2451491355895996,0.32716846466064453,-0.015184640884399414,2023-10-20T11:58:30.620681Z,1697803110620
0.24838685989379883,0.33257389068603516,-0.016935378313064575,2023-10-20T11:58:30.640942Z,1697803110640
0.25096893310546875,0.33783483505249023,-0.01868218183517456,2023-10-20T11:58:30.661113Z,1697803110661
0.2542853355407715,0.3448305130004883,-0.020507782697677612,2023-10-20T11:58:30.681246Z,1697803110681
0.2587904930114746,0.35416412353515625,-0.0224456787109375,2023-10-20T11:58:30.701237Z,1697803110701
0.2641458511352539,0.3652811050415039,-0.02446657419204712,2023-10-20T11:58:30.722457Z,1697803110722
0.2694673538208008,0.37655067443847656,-0.02646791934967041,2023-10-20T11:58:30.742426Z,1697803110742
0.27398204803466797,0.38636302947998047,-0.028184890747070312,2023-10-20T11:58:30.764772Z,1697803110764
0.2766451835632324,0.3929595947265625,-0.029236137866973877,2023-10-20T11:58:30.782543Z,1697803110782
0.27690649032592773,0.3955411911010742,-0.029376208782196045,2023-10-20T11:58:30.802458Z,1697803110802
0.2752242088317871,0.39481639862060547,-0.028667926788330078,2023-10-20T11:58:30.823300Z,1697803110823
0.2721552848815918,0.3915252685546875,-0.027412772178649902,2023-10-20T11:58:30.843350Z,1697803110843
0.26685333251953125,0.3843841552734375,-0.025706171989440918,2023-10-20T11:58:30.865012Z,1697803110864
0.2583789825439453,0.3721961975097656,-0.0235673189163208,2023-10-20T11:58:30.884023Z,1697803110883
0.2467660903930664,0.3552255630493164,-0.021094173192977905,2023-10-20T11:58:30.903950Z,1697803110903
0.23260974884033203,0.3347434997558594,-0.018474161624908447,2023-10-20T11:58:30.924396Z,1697803110924
0.21660947799682617,0.3121805191040039,-0.01589527726173401,2023-10-20T11:58:30.948055Z,1697803110948
0.20024490356445312,0.28978633880615234,-0.01362571120262146,2023-10-20T11:58:30.965310Z,1697803110965
0.18494558334350586,0.26944446563720703,-0.011749267578125,2023-10-20T11:58:30.984974Z,1697803110984
0.17236661911010742,0.2532310485839844,-0.010347992181777954,2023-10-20T11:58:31.005682Z,1697803111005
0.16238832473754883,0.2408618927001953,-0.00929144024848938,2023-10-20T11:58:31.025923Z,1697803111025
0.15427207946777344,0.23110389709472656,-0.00843772292137146,2023-10-20T11:58:31.048004Z,1697803111047
0.14806509017944336,0.2240123748779297,-0.0077516138553619385,2023-10-20T11:58:31.066404Z,1697803111066
0.14386749267578125,0.21985912322998047,-0.007227301597595215,2023-10-20T11:58:31.086291Z,1697803111086
0.14137697219848633,0.21838855743408203,-0.006888091564178467,2023-10-20T11:58:31.106966Z,1697803111106
0.13998174667358398,0.21878814697265625,-0.0067154765129089355,2023-10-20T11:58:31.127191Z,1697803111127
0.1394038200378418,0.22061634063720703,-0.006661713123321533,2023-10-20T11:58:31.147779Z,1697803111147
0.13949298858642578,0.22359371185302734,-0.006625324487686157,2023-10-20T11:58:31.167970Z,1697803111167
0.14064931869506836,0.22838211059570312,-0.0065634846687316895,2023-10-20T11:58:31.188033Z,1697803111187
0.14265060424804688,0.23475170135498047,-0.006393074989318848,2023-10-20T11:58:31.208267Z,1697803111208
0.14519500732421875,0.242431640625,-0.006100296974182129,2023-10-20T11:58:31.231343Z,1697803111231
0.14757394790649414,0.25069618225097656,-0.005653157830238342,2023-10-20T11:58:31.248413Z,1697803111248
0.14927911758422852,0.25899219512939453,-0.005006864666938782,2023-10-20T11:58:31.268902Z,1697803111268
0.1504225730895996,0.26761531829833984,-0.00410616397857666,2023-10-20T11:58:31.289443Z,1697803111289
0.15201139450073242,0.2783374786376953,-0.002919822931289673,2023-10-20T11:58:31.309835Z,1697803111309
0.15551424026489258,0.2939882278442383,-0.001345958560705185,2023-10-20T11:58:31.331245Z,1697803111331
0.16195440292358398,0.31699371337890625,7.902998477220535E-4,2023-10-20T11:58:31.350159Z,1697803111350
0.17146539688110352,0.3485527038574219,0.003720492124557495,2023-10-20T11:58:31.370001Z,1697803111369
0.18310546875,0.3880796432495117,0.00763973593711853,2023-10-20T11:58:31.391144Z,1697803111391
0.19603300094604492,0.4353055953979492,0.012643396854400635,2023-10-20T11:58:31.410641Z,1697803111410
0.2101459503173828,0.49096107482910156,0.018949687480926514,2023-10-20T11:58:31.431042Z,1697803111430
0.22585511207580566,0.5562305450439453,0.02692544460296631,2023-10-20T11:58:31.450978Z,1697803111450
0.24312043190002441,0.6309547424316406,0.03714245557785034,2023-10-20T11:58:31.471694Z,1697803111471
0.2614121437072754,0.7138833999633789,0.0499805212020874,2023-10-20T11:58:31.492154Z,1697803111492
0.27976059913635254,0.8029918670654297,0.0657692551612854,2023-10-20T11:58:31.514140Z,1697803111514
0.2976865768432617,0.8964223861694336,0.08457273244857788,2023-10-20T11:58:31.533263Z,1697803111533
0.3149251937866211,0.9924716949462891,0.10636329650878906,2023-10-20T11:58:31.552571Z,1697803111552
0.3315315246582031,1.0890207290649414,0.13101327419281006,2023-10-20T11:58:31.573026Z,1697803111572
0.3477897644042969,1.1836671829223633,0.15843141078948975,2023-10-20T11:58:31.593051Z,1697803111593
0.36383938789367676,1.2733087539672852,0.18853843212127686,2023-10-20T11:58:31.614145Z,1697803111614
0.3795781135559082,1.355062484741211,0.2210378646850586,2023-10-20T11:58:31.633781Z,1697803111633
0.39416933059692383,1.4254016876220703,0.255063533782959,2023-10-20T11:58:31.653875Z,1697803111653
0.4067511558532715,1.4814586639404297,0.28911638259887695,2023-10-20T11:58:31.674579Z,1697803111674
0.4167203903198242,1.5200891494750977,0.3217356204986572,2023-10-20T11:58:31.697411Z,1697803111697
0.42397165298461914,1.5380821228027344,0.35121917724609375,2023-10-20T11:58:31.714608Z,1697803111714
0.42816758155822754,1.5323772430419922,0.3759922981262207,2023-10-20T11:58:31.735139Z,1697803111735
0.4286489486694336,1.5,0.3942739963531494,2023-10-20T11:58:31.755213Z,1697803111755
0.4241461753845215,1.438767433166504,0.40415358543395996,2023-10-20T11:58:31.775703Z,1697803111775
0.4132707118988037,1.347691535949707,0.4037513732910156,2023-10-20T11:58:31.797167Z,1697803111797
0.39467549324035645,1.227097511291504,0.3914346694946289,2023-10-20T11:58:31.816577Z,1697803111816
0.3666219711303711,1.0777435302734375,0.36559486389160156,2023-10-20T11:58:31.836510Z,1697803111836
0.3270697593688965,0.9013195037841797,0.32491064071655273,2023-10-20T11:58:31.856322Z,1697803111856
0.27365589141845703,0.7009191513061523,0.2685418128967285,2023-10-20T11:58:31.876527Z,1697803111876
0.20377421379089355,0.4809417724609375,0.19604897499084473,2023-10-20T11:58:31.897019Z,1697803111896
0.11479663848876953,0.2475414276123047,0.10758328437805176,2023-10-20T11:58:31.917375Z,1697803111917
0.003936290740966797,0.007693290710449219,0.0035736560821533203,2023-10-20T11:58:31.937590Z,1697803111937
-0.13112258911132812,-0.23053884506225586,-0.11483430862426758,2023-10-20T11:58:31.958210Z,1697803111958
-0.2922544479370117,-0.45879650115966797,-0.24596357345581055,2023-10-20T11:58:31.980215Z,1697803111980
-0.48068666458129883,-0.6683335304260254,-0.3875424861907959,2023-10-20T11:58:31.998330Z,1697803111998
-0.6969203948974609,-0.8504095077514648,-0.5368821620941162,2023-10-20T11:58:32.018282Z,1697803112018
-0.9391975402832031,-0.9953293800354004,-0.6900279521942139,2023-10-20T11:58:32.038905Z,1697803112038
-1.2024941444396973,-1.0929460525512695,-0.8417251110076904,2023-10-20T11:58:32.059651Z,1697803112059
-1.4789690971374512,-1.1339282989501953,-0.9860076904296875,2023-10-20T11:58:32.081143Z,1697803112081
-1.757765293121338,-1.1109435558319092,-1.1160664558410645,2023-10-20T11:58:32.100408Z,1697803112100
-2.0246877670288086,-1.0202977657318115,-1.2242872714996338,2023-10-20T11:58:32.119888Z,1697803112119
-2.2627530097961426,-0.8640906810760498,-1.3031163215637207,2023-10-20T11:58:32.140559Z,1697803112140
-2.4538421630859375,-0.651970624923706,-1.3462977409362793,2023-10-20T11:58:32.164193Z,1697803112164
-2.5838823318481445,-0.4015558362007141,-1.3511734008789062,2023-10-20T11:58:32.181336Z,1697803112181
-2.646815299987793,-0.1354999542236328,-1.3203155994415283,2023-10-20T11:58:32.200995Z,1697803112200
-2.6430230140686035,0.12402066588401794,-1.2594633102416992,2023-10-20T11:58:32.221763Z,1697803112221
-2.5789594650268555,0.35865288972854614,-1.1756935119628906,2023-10-20T11:58:32.241883Z,1697803112241
-2.4655256271362305,0.5553550720214844,-1.075974464416504,2023-10-20T11:58:32.264139Z,1697803112264
-2.3185057640075684,0.7076137065887451,-0.9681951999664307,2023-10-20T11:58:32.281987Z,1697803112281
-2.154958724975586,0.8160581588745117,-0.860271692276001,2023-10-20T11:58:32.301864Z,1697803112301
-1.9888405799865723,0.8869752883911133,-0.7583780288696289,2023-10-20T11:58:32.322797Z,1697803112322
-1.8297672271728516,0.9291136264801025,-0.6660706996917725,2023-10-20T11:58:32.342970Z,1697803112342
-1.6845226287841797,0.9518349170684814,-0.5850980281829834,2023-10-20T11:58:32.363822Z,1697803112363
-1.5570459365844727,0.9631659984588623,-0.515751838684082,2023-10-20T11:58:32.383902Z,1697803112383
-1.4487547874450684,0.9688320159912109,-0.45736265182495117,2023-10-20T11:58:32.403889Z,1697803112403
-1.3603734970092773,0.9736995697021484,-0.40884220600128174,2023-10-20T11:58:32.424420Z,1697803112424
-1.2915716171264648,0.981788158416748,-0.3690437078475952,2023-10-20T11:58:32.446897Z,1697803112446
-1.2416939735412598,0.997161865234375,-0.3369201421737671,2023-10-20T11:58:32.464165Z,1697803112464
-1.2100749015808105,1.0237412452697754,-0.3110973834991455,2023-10-20T11:58:32.485398Z,1697803112485
-1.1971993446350098,1.0661263465881348,-0.28970468044281006,2023-10-20T11:58:32.505153Z,1697803112505
-1.20338773727417,1.128309726715088,-0.26958227157592773,2023-10-20T11:58:32.525386Z,1697803112525
-1.2257518768310547,1.2115678787231445,-0.2452068328857422,2023-10-20T11:58:32.546577Z,1697803112546
-1.2545051574707031,1.3115382194519043,-0.2074553370475769,2023-10-20T11:58:32.565529Z,1697803112565
-1.2738003730773926,1.4179677963256836,-0.14480602741241455,2023-10-20T11:58:32.586034Z,1697803112585
-1.2586169242858887,1.5085992813110352,-0.04760339856147766,2023-10-20T11:58:32.606249Z,1697803112606
-1.1793408393859863,1.5458755493164062,0.08350369334220886,2023-10-20T11:58:32.626443Z,1697803112626
-1.0100488662719727,1.4782233238220215,0.2253633737564087,2023-10-20T11:58:32.646756Z,1697803112646
-0.7435388565063477,1.2451896667480469,0.3229405879974365,2023-10-20T11:58:32.667938Z,1697803112667
-0.4040982723236084,0.7952804565429688,0.29343748092651367,2023-10-20T11:58:32.687792Z,1697803112687
-0.05026125907897949,0.11919021606445312,0.056678056716918945,2023-10-20T11:58:32.708066Z,1697803112708
0.25646066665649414,-0.7449493408203125,-0.42940521240234375,2023-10-20T11:58:32.729426Z,1697803112729
0.4843471050262451,-1.721489429473877,-1.1571712493896484,2023-10-20T11:58:32.748289Z,1697803112748
0.6430907249450684,-2.711337089538574,-2.0725135803222656,2023-10-20T11:58:32.769025Z,1697803112768
0.7708514928817749,-3.603240489959717,-3.072371482849121,2023-10-20T11:58:32.788427Z,1697803112788
0.9081075191497803,-4.325772285461426,-4.046205520629883,2023-10-20T11:58:32.808685Z,1697803112808
1.0580580234527588,-4.842462539672852,-4.902007579803467,2023-10-20T11:58:32.829764Z,1697803112829
1.2058942317962646,-5.152509689331055,-5.584972381591797,2023-10-20T11:58:32.849398Z,1697803112849
1.3344388008117676,-5.283297538757324,-6.1122002601623535,2023-10-20T11:58:32.870122Z,1697803112870
1.4394747018814087,-5.222349643707275,-6.490029811859131,2023-10-20T11:58:32.889962Z,1697803112889
1.5497348308563232,-5.004188537597656,-6.747509002685547,2023-10-20T11:58:32.913361Z,1697803112913
1.6447207927703857,-4.655584335327148,-6.886359691619873,2023-10-20T11:58:32.930168Z,1697803112930
1.709974765777588,-4.2149553298950195,-6.898445129394531,2023-10-20T11:58:32.950560Z,1697803112950
1.7204101085662842,-3.7284669876098633,-6.8089189529418945,2023-10-20T11:58:32.971681Z,1697803112971
1.6791660785675049,-3.2365002632141113,-6.674594879150391,2023-10-20T11:58:32.991532Z,1697803112991
1.6146602630615234,-2.769681453704834,-6.541253089904785,2023-10-20T11:58:33.013149Z,1697803113013
1.5582218170166016,-2.3407955169677734,-6.432563781738281,2023-10-20T11:58:33.032132Z,1697803113032
1.5409653186798096,-1.9369096755981445,-6.356110572814941,2023-10-20T11:58:33.052324Z,1697803113052
1.581496238708496,-1.527440071105957,-6.24791145324707,2023-10-20T11:58:33.072341Z,1697803113072
1.678877830505371,-1.1138759851455688,-6.057705879211426,2023-10-20T11:58:33.092512Z,1697803113092
1.796036720275879,-0.683566689491272,-5.737868309020996,2023-10-20T11:58:33.113281Z,1697803113113
1.927910327911377,-0.24088507890701294,-5.296648025512695,2023-10-20T11:58:33.133362Z,1697803113133
2.0653533935546875,0.21011900901794434,-4.7815961837768555,2023-10-20T11:58:33.153785Z,1697803113153
2.2195706367492676,0.666142463684082,-4.240533828735352,2023-10-20T11:58:33.174101Z,1697803113174
2.409123420715332,1.1296963691711426,-3.727224826812744,2023-10-20T11:58:33.196600Z,1697803113196
2.670057773590088,1.6440508365631104,-3.2992706298828125,2023-10-20T11:58:33.214545Z,1697803113214
3.0553417205810547,2.279796600341797,-2.9660472869873047,2023-10-20T11:58:33.234444Z,1697803113234
3.5631208419799805,3.0780835151672363,-2.6570115089416504,2023-10-20T11:58:33.255126Z,1697803113255
4.1247172355651855,4.0109052658081055,-2.2884957790374756,2023-10-20T11:58:33.275069Z,1697803113275
4.643498420715332,4.9903130531311035,-1.8367438316345215,2023-10-20T11:58:33.296384Z,1697803113296
5.049430847167969,5.925189018249512,-1.3393735885620117,2023-10-20T11:58:33.315126Z,1697803113315
5.342230796813965,6.751708984375,-0.8563089370727539,2023-10-20T11:58:33.335626Z,1697803113335
5.548821449279785,7.436659812927246,-0.435471773147583,2023-10-20T11:58:33.356309Z,1697803113356
5.701113700866699,7.966301918029785,-0.07855328917503357,2023-10-20T11:58:33.380060Z,1697803113380
5.792941093444824,8.292062759399414,0.21467232704162598,2023-10-20T11:58:33.396826Z,1697803113396
5.796977996826172,8.414372444152832,0.4468567371368408,2023-10-20T11:58:33.416982Z,1697803113416
5.751347064971924,8.365978240966797,0.611621618270874,2023-10-20T11:58:33.437741Z,1697803113437
5.686676502227783,8.199651718139648,0.697711706161499,2023-10-20T11:58:33.457825Z,1697803113457
5.6575398445129395,7.983236312866211,0.7220954895019531,2023-10-20T11:58:33.479726Z,1697803113479
5.685367584228516,7.760833740234375,0.7208048105239868,2023-10-20T11:58:33.497639Z,1697803113497
5.756680011749268,7.559412956237793,0.7179360389709473,2023-10-20T11:58:33.518153Z,1697803113518
5.84046745300293,7.38369083404541,0.724716305732727,2023-10-20T11:58:33.538594Z,1697803113538
5.883213520050049,7.198037624359131,0.7468937635421753,2023-10-20T11:58:33.558849Z,1697803113558
5.825305938720703,6.956325531005859,0.7538342475891113,2023-10-20T11:58:33.579658Z,1697803113579
5.655256271362305,6.67308235168457,0.725570797920227,2023-10-20T11:58:33.599841Z,1697803113599
5.405797481536865,6.349421501159668,0.6509947776794434,2023-10-20T11:58:33.619449Z,1697803113619
5.071907997131348,5.9807586669921875,0.5352331399917603,2023-10-20T11:58:33.639799Z,1697803113639
4.675726890563965,5.5681867599487305,0.3972327709197998,2023-10-20T11:58:33.662393Z,1697803113662
4.224430084228516,5.114194869995117,0.24278461933135986,2023-10-20T11:58:33.680656Z,1697803113680
3.755525588989258,4.656950950622559,0.08198323845863342,2023-10-20T11:58:33.700789Z,1697803113700
3.310666084289551,4.2149763107299805,-0.065546914935112,2023-10-20T11:58:33.720999Z,1697803113720
2.893252372741699,3.783371925354004,-0.1860818862915039,2023-10-20T11:58:33.741225Z,1697803113741
2.5097179412841797,3.366586685180664,-0.2775833010673523,2023-10-20T11:58:33.763021Z,1697803113762
2.1681737899780273,2.975771903991699,-0.3426755666732788,2023-10-20T11:58:33.781996Z,1697803113781
1.8727688789367676,2.6207633018493652,-0.38471555709838867,2023-10-20T11:58:33.801833Z,1697803113801
1.6232085227966309,2.307732582092285,-0.40760624408721924,2023-10-20T11:58:33.822122Z,1697803113822
1.4147562980651855,2.0390028953552246,-0.41620397567749023,2023-10-20T11:58:33.842278Z,1697803113842
1.2407407760620117,1.8127946853637695,-0.41552042961120605,2023-10-20T11:58:33.862586Z,1697803113862
1.0951838493347168,1.623941421508789,-0.4086456298828125,2023-10-20T11:58:33.882883Z,1697803113882
0.971987247467041,1.4621968269348145,-0.39661717414855957,2023-10-20T11:58:33.903382Z,1697803113903
0.8641996383666992,1.3178644180297852,-0.37986040115356445,2023-10-20T11:58:33.924029Z,1697803113923
0.7672677040100098,1.1849441528320312,-0.35877513885498047,2023-10-20T11:58:33.945429Z,1697803113945
0.6785368919372559,1.059626579284668,-0.33367419242858887,2023-10-20T11:58:33.964412Z,1697803113964
0.5959153175354004,0.9390668869018555,-0.3048722743988037,2023-10-20T11:58:33.984607Z,1697803113984
0.5179920196533203,0.8213224411010742,-0.27279210090637207,2023-10-20T11:58:34.005121Z,1697803114005
0.443082332611084,0.7043595314025879,-0.23756814002990723,2023-10-20T11:58:34.025282Z,1697803114025
0.37078332901000977,0.5884613990783691,-0.20007872581481934,2023-10-20T11:58:34.045991Z,1697803114045
0.30183839797973633,0.4760861396789551,-0.16202878952026367,2023-10-20T11:58:34.065210Z,1697803114065
0.23734426498413086,0.3704242706298828,-0.12539458274841309,2023-10-20T11:58:34.085335Z,1697803114085
0.17894792556762695,0.2751350402832031,-0.09215593338012695,2023-10-20T11:58:34.105791Z,1697803114105
0.12754440307617188,0.1922926902770996,-0.06344938278198242,2023-10-20T11:58:34.125772Z,1697803114125
0.08291006088256836,0.12202262878417969,-0.03952789306640625,2023-10-20T11:58:34.145892Z,1697803114145
0.044689178466796875,0.06396865844726562,-0.020292043685913086,2023-10-20T11:58:34.166362Z,1697803114166
0.013255119323730469,0.018404006958007812,-0.005706310272216797,2023-10-20T11:58:34.187063Z,1697803114187
-0.010289192199707031,-0.01383066177368164,0.004186868667602539,2023-10-20T11:58:34.207639Z,1697803114207
-0.025368690490722656,-0.03297853469848633,0.00975179672241211,2023-10-20T11:58:34.229213Z,1697803114229
-0.03273773193359375,-0.04117298126220703,0.011895179748535156,2023-10-20T11:58:34.248470Z,1697803114248
-0.03359699249267578,-0.04093647003173828,0.011555671691894531,2023-10-20T11:58:34.268432Z,1697803114268
-0.028476715087890625,-0.03367805480957031,0.00928640365600586,2023-10-20T11:58:34.288408Z,1697803114288
-0.01806783676147461,-0.02077960968017578,0.005596160888671875,2023-10-20T11:58:34.308577Z,1697803114308
-0.0029816627502441406,-0.0033435821533203125,8.772611618041992E-4,2023-10-20T11:58:34.328855Z,1697803114328
0.01605844497680664,0.017589092254638672,-0.004495859146118164,2023-10-20T11:58:34.349349Z,1697803114349
0.03869771957397461,0.04155588150024414,-0.01031196117401123,2023-10-20T11:58:34.369705Z,1697803114369
0.06547737121582031,0.06916522979736328,-0.016629815101623535,2023-10-20T11:58:34.390032Z,1697803114389
0.09665822982788086,0.10078859329223633,-0.023433685302734375,2023-10-20T11:58:34.412726Z,1697803114412
0.1318507194519043,0.13617944717407227,-0.0305253267288208,2023-10-20T11:58:34.430170Z,1697803114430
0.1704258918762207,0.1749401092529297,-0.03764462471008301,2023-10-20T11:58:34.450524Z,1697803114450
0.21229219436645508,0.21724271774291992,-0.044660210609436035,2023-10-20T11:58:34.471564Z,1697803114471
0.25852203369140625,0.2644367218017578,-0.05170786380767822,2023-10-20T11:58:34.490993Z,1697803114490
0.3097248077392578,0.3174591064453125,-0.058875083923339844,2023-10-20T11:58:34.512639Z,1697803114512
0.3649916648864746,0.3757596015930176,-0.06607627868652344,2023-10-20T11:58:34.531553Z,1697803114531
0.4208226203918457,0.43628549575805664,-0.07285761833190918,2023-10-20T11:58:34.551151Z,1697803114551
0.4726414680480957,0.494992733001709,-0.07864570617675781,2023-10-20T11:58:34.572275Z,1697803114572
0.5161848068237305,0.5479507446289062,-0.08286035060882568,2023-10-20T11:58:34.592154Z,1697803114592
0.5490269660949707,0.5926775932312012,-0.08520901203155518,2023-10-20T11:58:34.612333Z,1697803114612
0.5707736015319824,0.6284985542297363,-0.08585500717163086,2023-10-20T11:58:34.633142Z,1697803114633
0.581995964050293,0.6554460525512695,-0.08518421649932861,2023-10-20T11:58:34.653373Z,1697803114653
0.5826587677001953,0.6727004051208496,-0.08344805240631104,2023-10-20T11:58:34.673763Z,1697803114673
0.5715293884277344,0.6778383255004883,-0.08052784204483032,2023-10-20T11:58:34.695362Z,1697803114695
0.5475349426269531,0.6682567596435547,-0.0761493444442749,2023-10-20T11:58:34.713695Z,1697803114713
0.5112199783325195,0.6431708335876465,-0.0701790452003479,2023-10-20T11:58:34.734168Z,1697803114734
0.46619653701782227,0.6053285598754883,-0.06301099061965942,2023-10-20T11:58:34.754422Z,1697803114754
0.4168357849121094,0.5587763786315918,-0.05528753995895386,2023-10-20T11:58:34.774643Z,1697803114774
0.3672661781311035,0.5080680847167969,-0.047721147537231445,2023-10-20T11:58:34.795121Z,1697803114795
0.3195500373840332,0.45595359802246094,-0.04069113731384277,2023-10-20T11:58:34.815540Z,1697803114815
0.2749977111816406,0.40451622009277344,-0.034358441829681396,2023-10-20T11:58:34.835623Z,1697803114835
0.2347240447998047,0.35572338104248047,-0.028771400451660156,2023-10-20T11:58:34.856128Z,1697803114856
0.20000886917114258,0.31198978424072266,-0.023987531661987305,2023-10-20T11:58:34.878611Z,1697803114878
0.1716313362121582,0.27525997161865234,-0.020057082176208496,2023-10-20T11:58:34.896250Z,1697803114896
0.1499471664428711,0.24705982208251953,-0.017026841640472412,2023-10-20T11:58:34.917020Z,1697803114916
0.13489770889282227,0.22827720642089844,-0.014874815940856934,2023-10-20T11:58:34.937273Z,1697803114937
0.12584924697875977,0.2187175750732422,-0.013505816459655762,2023-10-20T11:58:34.957082Z,1697803114957
0.12175512313842773,0.2172679901123047,-0.012744009494781494,2023-10-20T11:58:34.978293Z,1697803114978
0.12033891677856445,0.22046470642089844,-0.012277364730834961,2023-10-20T11:58:34.997793Z,1697803114997
0.1196584701538086,0.22503185272216797,-0.011852264404296875,2023-10-20T11:58:35.017902Z,1697803115017
0.11817169189453125,0.22817325592041016,-0.011286050081253052,2023-10-20T11:58:35.038606Z,1697803115038
0.11602973937988281,0.23003005981445312,-0.010607331991195679,2023-10-20T11:58:35.058209Z,1697803115058
0.11386728286743164,0.23162078857421875,-0.009939223527908325,2023-10-20T11:58:35.078541Z,1697803115078
0.11229896545410156,0.23402976989746094,-0.00938764214515686,2023-10-20T11:58:35.099089Z,1697803115099
0.1110677719116211,0.2366313934326172,-0.00895199179649353,2023-10-20T11:58:35.119981Z,1697803115119
0.10947608947753906,0.23781490325927734,-0.008544474840164185,2023-10-20T11:58:35.139904Z,1697803115139
0.10707616806030273,0.23648738861083984,-0.008062273263931274,2023-10-20T11:58:35.161699Z,1697803115161
0.10402321815490723,0.23299407958984375,-0.007482588291168213,2023-10-20T11:58:35.180339Z,1697803115180
0.10155606269836426,0.23017215728759766,-0.006896376609802246,2023-10-20T11:58:35.200244Z,1697803115200
0.1011192798614502,0.23145771026611328,-0.00642058253288269,2023-10-20T11:58:35.220521Z,1697803115220
0.10390114784240723,0.2396373748779297,-0.0061446428298950195,2023-10-20T11:58:35.240750Z,1697803115240
0.10938692092895508,0.25362205505371094,-0.0060062408447265625,2023-10-20T11:58:35.261361Z,1697803115261
0.11633753776550293,0.27076148986816406,-0.005862057209014893,2023-10-20T11:58:35.281077Z,1697803115281
0.12309741973876953,0.28748130798339844,-0.005536437034606934,2023-10-20T11:58:35.301170Z,1697803115301
0.1290605068206787,0.30249881744384766,-0.0049697160720825195,2023-10-20T11:58:35.321610Z,1697803115321
0.13427209854125977,0.315948486328125,-0.004202254116535187,2023-10-20T11:58:35.344811Z,1697803115344
0.1390547752380371,0.3285665512084961,-0.003362014889717102,2023-10-20T11:58:35.362294Z,1697803115362
0.14332914352416992,0.3402290344238281,-0.0025696977972984314,2023-10-20T11:58:35.382841Z,1697803115382
0.14673209190368652,0.3500652313232422,-0.0018687769770622253,2023-10-20T11:58:35.402964Z,1697803115402
0.14872169494628906,0.35659122467041016,-0.0012303628027439117,2023-10-20T11:58:35.423092Z,1697803115422
0.14887738227844238,0.35852909088134766,-6.54950737953186E-4,2023-10-20T11:58:35.445379Z,1697803115445
0.14736199378967285,0.35634517669677734,-1.7531588673591614E-4,2023-10-20T11:58:35.463598Z,1697803115463
0.14463329315185547,0.3514385223388672,1.5519745647907257E-4,2023-10-20T11:58:35.484472Z,1697803115484
0.14190220832824707,0.34702587127685547,3.1819194555282593E-4,2023-10-20T11:58:35.504035Z,1697803115503
0.1402111053466797,0.3458251953125,3.531733527779579E-4,2023-10-20T11:58:35.524693Z,1697803115524
0.14014673233032227,0.34941577911376953,3.7121400237083435E-4,2023-10-20T11:58:35.544715Z,1697803115544
0.1416304111480713,0.3578662872314453,5.336180329322815E-4,2023-10-20T11:58:35.564781Z,1697803115564
0.14467811584472656,0.3714466094970703,0.0010138992220163345,2023-10-20T11:58:35.585409Z,1697803115585
0.14932656288146973,0.3905792236328125,0.0019476749002933502,2023-10-20T11:58:35.605356Z,1697803115605
0.15564870834350586,0.41597557067871094,0.003427669405937195,2023-10-20T11:58:35.628242Z,1697803115628
0.16335725784301758,0.44766712188720703,0.005580231547355652,2023-10-20T11:58:35.646020Z,1697803115645
0.17221760749816895,0.48580169677734375,0.008530259132385254,2023-10-20T11:58:35.666222Z,1697803115666
0.18225955963134766,0.5309343338012695,0.012445598840713501,2023-10-20T11:58:35.686559Z,1697803115686
0.19310975074768066,0.5822572708129883,0.0174558162689209,2023-10-20T11:58:35.706648Z,1697803115706
0.20426082611083984,0.6384973526000977,0.023653894662857056,2023-10-20T11:58:35.728208Z,1697803115728
0.21527600288391113,0.6985912322998047,0.031008750200271606,2023-10-20T11:58:35.746926Z,1697803115746
0.22624564170837402,0.7633981704711914,0.03945702314376831,2023-10-20T11:58:35.767209Z,1697803115767
0.2372281551361084,0.833460807800293,0.04894763231277466,2023-10-20T11:58:35.788324Z,1697803115788
0.24831104278564453,0.9091873168945312,0.05950760841369629,2023-10-20T11:58:35.811350Z,1697803115811
0.25954103469848633,0.9905509948730469,0.07125365734100342,2023-10-20T11:58:35.828421Z,1697803115828
0.2710263729095459,1.0774774551391602,0.08432155847549438,2023-10-20T11:58:35.848574Z,1697803115848
0.282698392868042,1.1690559387207031,0.09895449876785278,2023-10-20T11:58:35.868926Z,1697803115868
0.2942976951599121,1.263087272644043,0.11531883478164673,2023-10-20T11:58:35.888966Z,1697803115888
0.3059396743774414,1.3581104278564453,0.13370954990386963,2023-10-20T11:58:35.911521Z,1697803115911
0.3178439140319824,1.4526634216308594,0.1543186902999878,2023-10-20T11:58:35.930151Z,1697803115930
0.33022570610046387,1.5452985763549805,0.17732107639312744,2023-10-20T11:58:35.950232Z,1697803115950
0.34313392639160156,1.6322441101074219,0.20255911350250244,2023-10-20T11:58:35.970678Z,1697803115970
0.3564324378967285,1.7088422775268555,0.229414701461792,2023-10-20T11:58:35.990598Z,1697803115990
0.36977672576904297,1.769277572631836,0.25674211978912354,2023-10-20T11:58:36.010964Z,1697803116010
0.3825092315673828,1.8075675964355469,0.2829606533050537,2023-10-20T11:58:36.031300Z,1697803116031
0.3940560817718506,1.819204330444336,0.30641472339630127,2023-10-20T11:58:36.051336Z,1697803116051
0.40363359451293945,1.800175666809082,0.32515525817871094,2023-10-20T11:58:36.072025Z,1697803116071
0.4099767208099365,1.7473764419555664,0.33733248710632324,2023-10-20T11:58:36.094386Z,1697803116094
0.4112699031829834,1.6583232879638672,0.34105753898620605,2023-10-20T11:58:36.112504Z,1697803116112
0.4054429531097412,1.5321407318115234,0.33474016189575195,2023-10-20T11:58:36.132180Z,1697803116132
0.3901362419128418,1.3695640563964844,0.3170738220214844,2023-10-20T11:58:36.152926Z,1697803116152
0.36221933364868164,1.1716976165771484,0.2869229316711426,2023-10-20T11:58:36.172910Z,1697803116172
0.31803107261657715,0.940948486328125,0.24353981018066406,2023-10-20T11:58:36.194386Z,1697803116194
0.2538940906524658,0.6821651458740234,0.1866466999053955,2023-10-20T11:58:36.213643Z,1697803116213
0.16628026962280273,0.4028444290161133,0.11662435531616211,2023-10-20T11:58:36.234196Z,1697803116234
0.05123138427734375,0.11116790771484375,0.03411531448364258,2023-10-20T11:58:36.254152Z,1697803116254
-0.09503602981567383,-0.1835184097290039,-0.05989789962768555,2023-10-20T11:58:36.277389Z,1697803116277
-0.2756361961364746,-0.47065114974975586,-0.16413545608520508,2023-10-20T11:58:36.294873Z,1697803116294
-0.4924640655517578,-0.7383661270141602,-0.27686047554016113,2023-10-20T11:58:36.314544Z,1697803116314
-0.7460536956787109,-0.9741711616516113,-0.39576292037963867,2023-10-20T11:58:36.335405Z,1697803116335
-1.0347661972045898,-1.164876937866211,-0.5177862644195557,2023-10-20T11:58:36.355575Z,1697803116355
-1.3529438972473145,-1.2963104248046875,-0.6385109424591064,2023-10-20T11:58:36.377388Z,1697803116377
-1.6893229484558105,-1.3539528846740723,-0.7518844604492188,2023-10-20T11:58:36.395351Z,1697803116395
-2.028107166290283,-1.3272016048431396,-0.8517553806304932,2023-10-20T11:58:36.416592Z,1697803116416
-2.3488597869873047,-1.2110114097595215,-0.9317460060119629,2023-10-20T11:58:36.436470Z,1697803116436
-2.6275134086608887,-1.0087254047393799,-0.9858512878417969,2023-10-20T11:58:36.456495Z,1697803116456
-2.839498519897461,-0.734778881072998,-1.0087194442749023,2023-10-20T11:58:36.477392Z,1697803116477
-2.964254856109619,-0.414838969707489,-0.9975624084472656,2023-10-20T11:58:36.497318Z,1697803116497
-2.992805004119873,-0.08248883485794067,-0.9541411399841309,2023-10-20T11:58:36.518053Z,1697803116518
-2.9297165870666504,0.22902590036392212,-0.8852242231369019,2023-10-20T11:58:36.537850Z,1697803116537
-2.791330337524414,0.49453532695770264,-0.7997972965240479,2023-10-20T11:58:36.560931Z,1697803116560
-2.598972797393799,0.7003849744796753,-0.7065296173095703,2023-10-20T11:58:36.577685Z,1697803116577
-2.3746256828308105,0.8437085151672363,-0.6124938726425171,2023-10-20T11:58:36.597720Z,1697803116597
-2.1379127502441406,0.9293341636657715,-0.5230168104171753,2023-10-20T11:58:36.619215Z,1697803116619
-1.9063215255737305,0.9679932594299316,-0.4424184560775757,2023-10-20T11:58:36.639108Z,1697803116639
-1.6925158500671387,0.9728434085845947,-0.37311744689941406,2023-10-20T11:58:36.660909Z,1697803116660
-1.5033278465270996,0.9562492370605469,-0.3158588409423828,2023-10-20T11:58:36.679011Z,1697803116678
-1.3406858444213867,0.9280705451965332,-0.26997053623199463,2023-10-20T11:58:36.699777Z,1697803116699
-1.2031545639038086,0.8948721885681152,-0.23397159576416016,2023-10-20T11:58:36.720041Z,1697803116720
-1.087986946105957,0.8608589172363281,-0.20610368251800537,2023-10-20T11:58:36.740241Z,1697803116740
-0.9921689033508301,0.8285098075866699,-0.18459761142730713,2023-10-20T11:58:36.760622Z,1697803116760
-0.9152913093566895,0.8017148971557617,-0.1682833433151245,2023-10-20T11:58:36.780838Z,1697803116780
-0.8623390197753906,0.7893433570861816,-0.15706932544708252,2023-10-20T11:58:36.801343Z,1697803116801
-0.8406257629394531,0.8027305603027344,-0.15016424655914307,2023-10-20T11:58:36.821109Z,1697803116821
-0.8532333374023438,0.8503694534301758,-0.14479148387908936,2023-10-20T11:58:36.844031Z,1697803116843
-0.8891186714172363,0.92767333984375,-0.13341987133026123,2023-10-20T11:58:36.861618Z,1697803116861
-0.9262895584106445,1.0185270309448242,-0.10605442523956299,2023-10-20T11:58:36.881894Z,1697803116881
-0.9366893768310547,1.0975613594055176,-0.05392131209373474,2023-10-20T11:58:36.902199Z,1697803116902
-0.8948054313659668,1.135291576385498,0.024409353733062744,2023-10-20T11:58:36.922555Z,1697803116922
-0.7793936729431152,1.0936212539672852,0.11608898639678955,2023-10-20T11:58:36.943775Z,1697803116943
-0.5794367790222168,0.9223213195800781,0.18522822856903076,2023-10-20T11:58:36.962723Z,1697803116962
-0.3049001693725586,0.5662651062011719,0.16989421844482422,2023-10-20T11:58:36.983219Z,1697803116983
0.0025627613067626953,-0.005711555480957031,-0.002277851104736328,2023-10-20T11:58:37.003358Z,1697803117003
0.2845592498779297,-0.7768468856811523,-0.3837122917175293,2023-10-20T11:58:37.026707Z,1697803117026
0.501070499420166,-1.687809944152832,-0.9870038032531738,2023-10-20T11:58:37.044050Z,1697803117044
0.6481420993804932,-2.6479363441467285,-1.7728667259216309,2023-10-20T11:58:37.064043Z,1697803117063
0.7541019916534424,-3.555331230163574,-2.6577224731445312,2023-10-20T11:58:37.084816Z,1697803117084
0.8550686836242676,-4.324906349182129,-3.538374900817871,2023-10-20T11:58:37.105322Z,1697803117105
0.963326096534729,-4.910778999328613,-4.33632755279541,2023-10-20T11:58:37.127720Z,1697803117127
1.0605322122573853,-5.283213138580322,-4.977150917053223,2023-10-20T11:58:37.145076Z,1697803117145
1.1484758853912354,-5.4782304763793945,-5.477381229400635,2023-10-20T11:58:37.165406Z,1697803117165
1.2233436107635498,-5.484380722045898,-5.83720588684082,2023-10-20T11:58:37.186319Z,1697803117186
1.3282676935195923,-5.329545497894287,-6.080689430236816,2023-10-20T11:58:37.206249Z,1697803117206
1.4557361602783203,-5.050776481628418,-6.21070671081543,2023-10-20T11:58:37.227181Z,1697803117227
1.57025945186615,-4.6732892990112305,-6.198312759399414,2023-10-20T11:58:37.247071Z,1697803117247
1.6380136013031006,-4.236335277557373,-6.069169521331787,2023-10-20T11:58:37.267699Z,1697803117267
1.6359748840332031,-3.7627973556518555,-5.878030776977539,2023-10-20T11:58:37.287426Z,1697803117287
1.5927767753601074,-3.299380302429199,-5.686892509460449,2023-10-20T11:58:37.310834Z,1697803117310
1.5494890213012695,-2.8728647232055664,-5.514692306518555,2023-10-20T11:58:37.327854Z,1697803117327
1.5502572059631348,-2.49807071685791,-5.386322975158691,2023-10-20T11:58:37.348642Z,1697803117348
1.5937986373901367,-2.1319661140441895,-5.228732109069824,2023-10-20T11:58:37.368447Z,1697803117368
1.6746182441711426,-1.7660789489746094,-5.004125595092773,2023-10-20T11:58:37.389092Z,1697803117389
1.7397751808166504,-1.376983880996704,-4.660543441772461,2023-10-20T11:58:37.410090Z,1697803117410
1.7811737060546875,-0.9643533229827881,-4.201329231262207,2023-10-20T11:58:37.429386Z,1697803117429
1.8172101974487305,-0.5492352247238159,-3.6901187896728516,2023-10-20T11:58:37.449289Z,1697803117449
1.864485740661621,-0.14771753549575806,-3.1775474548339844,2023-10-20T11:58:37.469946Z,1697803117469
1.9553651809692383,0.226570725440979,-2.7166037559509277,2023-10-20T11:58:37.493573Z,1697803117493
2.1316757202148438,0.6047765016555786,-2.3585052490234375,2023-10-20T11:58:37.510441Z,1697803117510
2.4597930908203125,1.0563626289367676,-2.1202993392944336,2023-10-20T11:58:37.530429Z,1697803117530
2.9794921875,1.66302490234375,-1.946425437927246,2023-10-20T11:58:37.551323Z,1697803117551
3.6489124298095703,2.458324432373047,-1.743643045425415,2023-10-20T11:58:37.571056Z,1697803117571
4.362595081329346,3.3955883979797363,-1.4494225978851318,2023-10-20T11:58:37.593479Z,1697803117593
5.017267227172852,4.379542827606201,-1.0717675685882568,2023-10-20T11:58:37.611178Z,1697803117611
5.567368030548096,5.320751190185547,-0.6555399894714355,2023-10-20T11:58:37.632306Z,1697803117632
6.028228759765625,6.159955024719238,-0.26738446950912476,2023-10-20T11:58:37.652374Z,1697803117652
6.40376091003418,6.870083808898926,0.07544966042041779,2023-10-20T11:58:37.672365Z,1697803117672
6.690126895904541,7.401898384094238,0.3593941926956177,2023-10-20T11:58:37.693333Z,1697803117693
6.830066204071045,7.730870246887207,0.5807898044586182,2023-10-20T11:58:37.712971Z,1697803117712
6.852557182312012,7.8916730880737305,0.7286444902420044,2023-10-20T11:58:37.733241Z,1697803117733
6.818855285644531,7.932839393615723,0.7791446447372437,2023-10-20T11:58:37.753469Z,1697803117753
6.791574001312256,7.905824661254883,0.7523359060287476,2023-10-20T11:58:37.776437Z,1697803117776
6.817192077636719,7.829813003540039,0.6940402984619141,2023-10-20T11:58:37.794132Z,1697803117794
6.887436866760254,7.733907222747803,0.640379786491394,2023-10-20T11:58:37.814095Z,1697803117814
6.962459564208984,7.629511833190918,0.5992618799209595,2023-10-20T11:58:37.834318Z,1697803117834
6.985047817230225,7.510865211486816,0.5863156318664551,2023-10-20T11:58:37.854765Z,1697803117854
6.918560028076172,7.3388566970825195,0.5739213228225708,2023-10-20T11:58:37.875997Z,1697803117875
6.751582145690918,7.120325088500977,0.5482295751571655,2023-10-20T11:58:37.895262Z,1697803117895
6.539400577545166,6.861203193664551,0.496549129486084,2023-10-20T11:58:37.915613Z,1697803117915
6.270642280578613,6.543667793273926,0.4203992486000061,2023-10-20T11:58:37.936059Z,1697803117936
5.9232940673828125,6.157208442687988,0.3390119671821594,2023-10-20T11:58:37.959765Z,1697803117959
5.494100570678711,5.701011657714844,0.25013017654418945,2023-10-20T11:58:37.976359Z,1697803117976
5.000354766845703,5.214650630950928,0.1425095796585083,2023-10-20T11:58:37.996816Z,1697803117996
4.490402698516846,4.717737197875977,0.0240761861205101,2023-10-20T11:58:38.017323Z,1697803118017
3.9891295433044434,4.214292526245117,-0.08971196413040161,2023-10-20T11:58:38.037145Z,1697803118037
3.502410888671875,3.703908920288086,-0.18801403045654297,2023-10-20T11:58:38.059700Z,1697803118059
3.0418076515197754,3.2014474868774414,-0.2662210464477539,2023-10-20T11:58:38.077394Z,1697803118077
2.6153316497802734,2.7247705459594727,-0.32344841957092285,2023-10-20T11:58:38.097723Z,1697803118097
2.231672763824463,2.292576789855957,-0.36044609546661377,2023-10-20T11:58:38.118650Z,1697803118118
1.9002666473388672,1.9188647270202637,-0.3797476291656494,2023-10-20T11:58:38.138455Z,1697803118138
1.6198797225952148,1.6050257682800293,-0.3839583396911621,2023-10-20T11:58:38.159793Z,1697803118159
1.382990837097168,1.3437395095825195,-0.37526726722717285,2023-10-20T11:58:38.178990Z,1697803118178
1.1795368194580078,1.1228752136230469,-0.35500192642211914,2023-10-20T11:58:38.198651Z,1697803118198
0.9993939399719238,0.9310317039489746,-0.32498741149902344,2023-10-20T11:58:38.219618Z,1697803118219
0.8349857330322266,0.7609248161315918,-0.28752589225769043,2023-10-20T11:58:38.242802Z,1697803118242
0.6797976493835449,0.6064558029174805,-0.24385595321655273,2023-10-20T11:58:38.260453Z,1697803118260
0.5310478210449219,0.46411752700805664,-0.19559454917907715,2023-10-20T11:58:38.280373Z,1697803118280
0.3887920379638672,0.3328123092651367,-0.1450343132019043,2023-10-20T11:58:38.301045Z,1697803118301
0.25462961196899414,0.2132406234741211,-0.0950322151184082,2023-10-20T11:58:38.321288Z,1697803118321
0.1333146095275879,0.10911798477172852,-0.04928851127624512,2023-10-20T11:58:38.342167Z,1697803118342
0.0324249267578125,0.025932788848876953,-0.011787652969360352,2023-10-20T11:58:38.361319Z,1697803118361
-0.039524078369140625,-0.03090810775756836,0.014061212539672852,2023-10-20T11:58:38.381656Z,1697803118381
-0.07589483261108398,-0.05812215805053711,0.026343822479248047,2023-10-20T11:58:38.402615Z,1697803118402
-0.07398462295532227,-0.055617332458496094,0.024979829788208008,2023-10-20T11:58:38.421909Z,1697803118421
-0.035433292388916016,-0.026215076446533203,0.011586427688598633,2023-10-20T11:58:38.442215Z,1697803118442
0.03428792953491211,0.02503681182861328,-0.01080179214477539,2023-10-20T11:58:38.462644Z,1697803118462
0.12743043899536133,0.09212160110473633,-0.038468360900878906,2023-10-20T11:58:38.482960Z,1697803118482
0.23617315292358398,0.1696157455444336,-0.06792664527893066,2023-10-20T11:58:38.503204Z,1697803118503
0.35228490829467773,0.2523374557495117,-0.09590458869934082,2023-10-20T11:58:38.525642Z,1697803118525
0.4657731056213379,0.33405494689941406,-0.11899638175964355,2023-10-20T11:58:38.543622Z,1697803118543
0.5646171569824219,0.40688228607177734,-0.1338808536529541,2023-10-20T11:58:38.564582Z,1697803118564
0.6386079788208008,0.4636526107788086,-0.1386723518371582,2023-10-20T11:58:38.584048Z,1697803118584
0.6819033622741699,0.49975156784057617,-0.13350248336791992,2023-10-20T11:58:38.604534Z,1697803118604
0.6933441162109375,0.513641357421875,-0.12036943435668945,2023-10-20T11:58:38.625759Z,1697803118625
0.6763792037963867,0.5072693824768066,-0.10236132144927979,2023-10-20T11:58:38.645269Z,1697803118645
0.6390695571899414,0.4860067367553711,-0.08280694484710693,2023-10-20T11:58:38.665576Z,1697803118665
0.5910153388977051,0.45651721954345703,-0.06421434879302979,2023-10-20T11:58:38.686058Z,1697803118686
0.5411109924316406,0.4250941276550293,-0.04811453819274902,2023-10-20T11:58:38.705816Z,1697803118705
0.49512195587158203,0.395967960357666,-0.03498321771621704,2023-10-20T11:58:38.725842Z,1697803118725
0.45624351501464844,0.3716769218444824,-0.02471756935119629,2023-10-20T11:58:38.746206Z,1697803118746
0.4285459518432617,0.35584211349487305,-0.017058104276657104,2023-10-20T11:58:38.766448Z,1697803118766
0.41472339630126953,0.3514242172241211,-0.011468067765235901,2023-10-20T11:58:38.787531Z,1697803118787
0.4159383773803711,0.36034536361694336,-0.007276967167854309,2023-10-20T11:58:38.809166Z,1697803118809
0.4308891296386719,0.3824806213378906,-0.0037386342883110046,2023-10-20T11:58:38.827847Z,1697803118827
0.4543328285217285,0.41398000717163086,-1.3670208863914013E-4,2023-10-20T11:58:38.848596Z,1697803118848
0.47908878326416016,0.44877147674560547,0.00400165468454361,2023-10-20T11:58:38.868404Z,1697803118868
0.4968833923339844,0.4792308807373047,0.008754551410675049,2023-10-20T11:58:38.888735Z,1697803118888
0.501253604888916,0.4987363815307617,0.01379556953907013,2023-10-20T11:58:38.908970Z,1697803118908
0.4906783103942871,0.5046429634094238,0.018602997064590454,2023-10-20T11:58:38.929303Z,1697803118929
0.4677858352661133,0.4981803894042969,0.022738218307495117,2023-10-20T11:58:38.949405Z,1697803118949
0.4367713928222656,0.48235511779785156,0.025952935218811035,2023-10-20T11:58:38.969470Z,1697803118969
0.39988088607788086,0.4584827423095703,0.02813553810119629,2023-10-20T11:58:38.992821Z,1697803118992
0.35753536224365234,0.425900936126709,0.02915292978286743,2023-10-20T11:58:39.009977Z,1697803119009
0.31067943572998047,0.38451480865478516,0.02884364128112793,2023-10-20T11:58:39.030246Z,1697803119030
0.262631893157959,0.3374805450439453,0.027208566665649414,2023-10-20T11:58:39.051274Z,1697803119051
0.21782398223876953,0.2902708053588867,0.02458477020263672,2023-10-20T11:58:39.071008Z,1697803119070
0.17955923080444336,0.24781370162963867,0.02155590057373047,2023-10-20T11:58:39.092421Z,1697803119092
0.14940547943115234,0.21325111389160156,0.01866239309310913,2023-10-20T11:58:39.111571Z,1697803119111
0.12724065780639648,0.18754196166992188,0.016240715980529785,2023-10-20T11:58:39.131901Z,1697803119131
0.11166191101074219,0.1696929931640625,0.01434248685836792,2023-10-20T11:58:39.152340Z,1697803119152
0.10035991668701172,0.15705013275146484,0.012806355953216553,2023-10-20T11:58:39.175519Z,1697803119175
0.09171342849731445,0.14764404296875,0.011461973190307617,2023-10-20T11:58:39.192600Z,1697803119192
0.08471250534057617,0.14022445678710938,0.010209858417510986,2023-10-20T11:58:39.212686Z,1697803119212
0.07942056655883789,0.13512039184570312,0.009073615074157715,2023-10-20T11:58:39.233337Z,1697803119233
0.07586002349853516,0.13255882263183594,0.00807255506515503,2023-10-20T11:58:39.253849Z,1697803119253
0.07406949996948242,0.13277912139892578,0.007214218378067017,2023-10-20T11:58:39.275864Z,1697803119275
0.07476043701171875,0.13719749450683594,0.006510913372039795,2023-10-20T11:58:39.293401Z,1697803119293
0.07845115661621094,0.1469564437866211,0.005915969610214233,2023-10-20T11:58:39.313760Z,1697803119313
0.08471393585205078,0.16146469116210938,0.005291014909744263,2023-10-20T11:58:39.334485Z,1697803119334
0.09261560440063477,0.17903423309326172,0.0044938623905181885,2023-10-20T11:58:39.354258Z,1697803119354
0.10139608383178711,0.19819259643554688,0.003434479236602783,2023-10-20T11:58:39.375486Z,1697803119375
0.1112675666809082,0.21918106079101562,0.00206872820854187,2023-10-20T11:58:39.395202Z,1697803119395
0.12297868728637695,0.24324607849121094,3.334926441311836E-4,2023-10-20T11:58:39.415286Z,1697803119415
0.13646697998046875,0.2701845169067383,-0.0018821507692337036,2023-10-20T11:58:39.436056Z,1697803119435
0.15085744857788086,0.2983541488647461,-0.0046560317277908325,2023-10-20T11:58:39.458304Z,1697803119458
0.1645798683166504,0.32485103607177734,-0.007939666509628296,2023-10-20T11:58:39.476387Z,1697803119476
0.17594003677368164,0.3465394973754883,-0.011514484882354736,2023-10-20T11:58:39.496290Z,1697803119496
0.1838665008544922,0.3615226745605469,-0.015105128288269043,2023-10-20T11:58:39.516999Z,1697803119516
0.18853187561035156,0.37021827697753906,-0.018525660037994385,2023-10-20T11:58:39.536882Z,1697803119536
0.19115543365478516,0.3750638961791992,-0.021779775619506836,2023-10-20T11:58:39.558884Z,1697803119558
0.1932215690612793,0.3789052963256836,-0.02492368221282959,2023-10-20T11:58:39.577668Z,1697803119577
0.1951894760131836,0.38263988494873047,-0.02788376808166504,2023-10-20T11:58:39.597647Z,1697803119597
0.19678354263305664,0.3857288360595703,-0.03043997287750244,2023-10-20T11:58:39.618145Z,1697803119618
0.19754314422607422,0.38722705841064453,-0.03231704235076904,2023-10-20T11:58:39.638250Z,1697803119638
0.19723749160766602,0.3865165710449219,-0.03327584266662598,2023-10-20T11:58:39.658795Z,1697803119658
0.1956620216369629,0.38309383392333984,-0.0331687331199646,2023-10-20T11:58:39.678944Z,1697803119678
0.19281578063964844,0.37692832946777344,-0.031983256340026855,2023-10-20T11:58:39.699367Z,1697803119699
0.1892547607421875,0.36916637420654297,-0.029920458793640137,2023-10-20T11:58:39.719249Z,1697803119719
0.18573951721191406,0.3614826202392578,-0.027265548706054688,2023-10-20T11:58:39.741902Z,1697803119741
0.18216800689697266,0.3539724349975586,-0.024148225784301758,2023-10-20T11:58:39.760153Z,1697803119760
0.1772475242614746,0.34445762634277344,-0.02054208517074585,2023-10-20T11:58:39.780777Z,1697803119780
0.1694188117980957,0.3301229476928711,-0.016460388898849487,2023-10-20T11:58:39.800731Z,1697803119800
0.15809869766235352,0.30984973907470703,-0.012169957160949707,2023-10-20T11:58:39.820928Z,1697803119820
0.14411401748657227,0.2850675582885742,-0.008089959621429443,2023-10-20T11:58:39.841281Z,1697803119841
0.1291060447692871,0.2587442398071289,-0.004572167992591858,2023-10-20T11:58:39.861034Z,1697803119860
0.11481666564941406,0.23407268524169922,-0.001757211983203888,2023-10-20T11:58:39.881384Z,1697803119881
0.10235595703125,0.2131195068359375,4.303939640522003E-4,2023-10-20T11:58:39.902225Z,1697803119902
0.09200716018676758,0.19638633728027344,0.002168692648410797,2023-10-20T11:58:39.924689Z,1697803119924
0.0836329460144043,0.1835803985595703,0.003631412982940674,2023-10-20T11:58:39.942073Z,1697803119942
0.0773005485534668,0.1748828887939453,0.00496557354927063,2023-10-20T11:58:39.962362Z,1697803119962
0.07352328300476074,0.17163467407226562,0.006343185901641846,2023-10-20T11:58:39.982669Z,1697803119982
0.07301449775695801,0.17589378356933594,0.007980704307556152,2023-10-20T11:58:40.002918Z,1697803120002
0.07601690292358398,0.18880844116210938,0.010131001472473145,2023-10-20T11:58:40.024512Z,1697803120024
0.08179593086242676,0.20912837982177734,0.012947559356689453,2023-10-20T11:58:40.043898Z,1697803120043
0.0887303352355957,0.23304462432861328,0.016383886337280273,2023-10-20T11:58:40.063967Z,1697803120063
0.0951395034790039,0.25612831115722656,0.02020496129989624,2023-10-20T11:58:40.084624Z,1697803120084
0.10001969337463379,0.27541637420654297,0.024077773094177246,2023-10-20T11:58:40.104875Z,1697803120104
0.1030111312866211,0.2895803451538086,0.027681827545166016,2023-10-20T11:58:40.124424Z,1697803120124
0.1040809154510498,0.29822444915771484,0.03071761131286621,2023-10-20T11:58:40.145307Z,1697803120145
0.10335183143615723,0.3015022277832031,0.03296327590942383,2023-10-20T11:58:40.165244Z,1697803120165
0.10127115249633789,0.30048465728759766,0.03436017036437988,2023-10-20T11:58:40.185291Z,1697803120185
0.09836983680725098,0.29659271240234375,0.03497195243835449,2023-10-20T11:58:40.208800Z,1697803120208
0.09493350982666016,0.2906990051269531,0.03488039970397949,2023-10-20T11:58:40.226001Z,1697803120225
0.09101510047912598,0.2830486297607422,0.03415191173553467,2023-10-20T11:58:40.245617Z,1697803120245
0.08695697784423828,0.2747001647949219,0.03297781944274902,2023-10-20T11:58:40.266823Z,1697803120266
0.08327794075012207,0.26719093322753906,0.031623005867004395,2023-10-20T11:58:40.286779Z,1697803120286
0.08052611351013184,0.26218223571777344,0.030365705490112305,2023-10-20T11:58:40.308289Z,1697803120308
0.07892465591430664,0.2603273391723633,0.029358267784118652,2023-10-20T11:58:40.327091Z,1697803120327
0.07832479476928711,0.2610960006713867,0.028624534606933594,2023-10-20T11:58:40.347227Z,1697803120347
0.0783224105834961,0.26305580139160156,0.02806711196899414,2023-10-20T11:58:40.368326Z,1697803120368
0.07834601402282715,0.26425647735595703,0.027548670768737793,2023-10-20T11:58:40.391378Z,1697803120391
0.07795476913452148,0.26320648193359375,0.026963770389556885,2023-10-20T11:58:40.408420Z,1697803120408
0.07701373100280762,0.2594871520996094,0.026285529136657715,2023-10-20T11:58:40.428908Z,1697803120428
0.07570695877075195,0.2537565231323242,0.02556699514389038,2023-10-20T11:58:40.449711Z,1697803120449
0.07428669929504395,0.24701595306396484,0.024854004383087158,2023-10-20T11:58:40.469424Z,1697803120469
0.07297921180725098,0.24027442932128906,0.024188876152038574,2023-10-20T11:58:40.491322Z,1697803120491
0.07180166244506836,0.2338876724243164,0.023559153079986572,2023-10-20T11:58:40.509267Z,1697803120509
0.07060623168945312,0.22770404815673828,0.02292412519454956,2023-10-20T11:58:40.529597Z,1697803120529
0.06931519508361816,0.2216653823852539,0.0222623348236084,2023-10-20T11:58:40.550279Z,1697803120550
0.06806826591491699,0.21628093719482422,0.02162790298461914,2023-10-20T11:58:40.570063Z,1697803120570
0.06715917587280273,0.21239280700683594,0.021105825901031494,2023-10-20T11:58:40.591301Z,1697803120591
0.06683015823364258,0.21063709259033203,0.02077251672744751,2023-10-20T11:58:40.611202Z,1697803120611
0.06719613075256348,0.2112751007080078,0.02066493034362793,2023-10-20T11:58:40.631313Z,1697803120631
0.06819772720336914,0.21408557891845703,0.02078425884246826,2023-10-20T11:58:40.652025Z,1697803120651
0.06969976425170898,0.21863651275634766,0.021103978157043457,2023-10-20T11:58:40.674299Z,1697803120674
0.07152771949768066,0.22437095642089844,0.02158886194229126,2023-10-20T11:58:40.691827Z,1697803120691
0.07347249984741211,0.2305889129638672,0.022188782691955566,2023-10-20T11:58:40.712598Z,1697803120712
0.07553815841674805,0.2372140884399414,0.022898852825164795,2023-10-20T11:58:40.732849Z,1697803120732
0.07772231101989746,0.24413394927978516,0.023706376552581787,2023-10-20T11:58:40.752640Z,1697803120752
0.07989168167114258,0.2508525848388672,0.02455967664718628,2023-10-20T11:58:40.774337Z,1697803120774
0.08192205429077148,0.25697898864746094,0.025406718254089355,2023-10-20T11:58:40.792724Z,1697803120792
0.08360552787780762,0.2619590759277344,0.02616935968399048,2023-10-20T11:58:40.813963Z,1697803120813
0.08473801612854004,0.26528358459472656,0.02676945924758911,2023-10-20T11:58:40.834209Z,1697803120834
0.08532500267028809,0.26703453063964844,0.027192294597625732,2023-10-20T11:58:40.853861Z,1697803120853
0.08546066284179688,0.267486572265625,0.027456820011138916,2023-10-20T11:58:40.874380Z,1697803120874
0.08530902862548828,0.26706981658935547,0.027604222297668457,2023-10-20T11:58:40.894227Z,1697803120894
0.08499884605407715,0.2660951614379883,0.02767080068588257,2023-10-20T11:58:40.914812Z,1697803120914
0.08448052406311035,0.2643146514892578,0.027650296688079834,2023-10-20T11:58:40.935689Z,1697803120935
0.08368992805480957,0.26148033142089844,0.027525901794433594,2023-10-20T11:58:40.957173Z,1697803120957
0.08257174491882324,0.25742053985595703,0.027287960052490234,2023-10-20T11:58:40.975564Z,1697803120975
0.0810086727142334,0.25183963775634766,0.026904582977294922,2023-10-20T11:58:40.996429Z,1697803120996
0.07908821105957031,0.24504661560058594,0.02639937400817871,2023-10-20T11:58:41.016346Z,1697803121016
0.0770115852355957,0.23762035369873047,0.02583789825439453,2023-10-20T11:58:41.036535Z,1697803121036
0.07497429847717285,0.23013019561767578,0.025266289710998535,2023-10-20T11:58:41.057183Z,1697803121057
0.07299637794494629,0.22263526916503906,0.024693846702575684,2023-10-20T11:58:41.076838Z,1697803121076
0.07099151611328125,0.21496105194091797,0.024098515510559082,2023-10-20T11:58:41.097148Z,1697803121097
0.06891298294067383,0.20709514617919922,0.02346944808959961,2023-10-20T11:58:41.117211Z,1697803121117
0.06678533554077148,0.1992654800415039,0.02282392978668213,2023-10-20T11:58:41.140807Z,1697803121140
0.06478118896484375,0.19209957122802734,0.022217988967895508,2023-10-20T11:58:41.157865Z,1697803121157
0.0630495548248291,0.1860666275024414,0.021707534790039062,2023-10-20T11:58:41.177960Z,1697803121177
0.061745405197143555,0.18160057067871094,0.021358132362365723,2023-10-20T11:58:41.198621Z,1697803121198
0.06088876724243164,0.17866039276123047,0.021192193031311035,2023-10-20T11:58:41.218783Z,1697803121218
0.06036019325256348,0.17679786682128906,0.02117753028869629,2023-10-20T11:58:41.241138Z,1697803121241
0.06009817123413086,0.17573165893554688,0.02129662036895752,2023-10-20T11:58:41.259882Z,1697803121259
0.060111045837402344,0.1754589080810547,0.02155447006225586,2023-10-20T11:58:41.279810Z,1697803121279
0.06035447120666504,0.17582035064697266,0.021932244300842285,2023-10-20T11:58:41.300222Z,1697803121300
0.06078958511352539,0.1766519546508789,0.02240610122680664,2023-10-20T11:58:41.324540Z,1697803121324
0.06142997741699219,0.17788314819335938,0.022965669631958008,2023-10-20T11:58:41.341185Z,1697803121341
0.06223297119140625,0.17926979064941406,0.0235595703125,2023-10-20T11:58:41.361114Z,1697803121361
0.06315803527832031,0.18061542510986328,0.02416086196899414,2023-10-20T11:58:41.381499Z,1697803121381
0.06400513648986816,0.1813182830810547,0.024674177169799805,2023-10-20T11:58:41.401718Z,1697803121401
0.06453132629394531,0.18073558807373047,0.024986624717712402,2023-10-20T11:58:41.424178Z,1697803121424
0.06453633308410645,0.17844676971435547,0.024991869926452637,2023-10-20T11:58:41.441628Z,1697803121441
0.06391191482543945,0.1743783950805664,0.02462482452392578,2023-10-20T11:58:41.462291Z,1697803121462
0.0626673698425293,0.16874122619628906,0.023892641067504883,2023-10-20T11:58:41.482854Z,1697803121482
0.06090092658996582,0.16193675994873047,0.022850394248962402,2023-10-20T11:58:41.502240Z,1697803121502
0.05861663818359375,0.1540660858154297,0.021535038948059082,2023-10-20T11:58:41.524156Z,1697803121524
0.05575156211853027,0.1450328826904297,0.01996004581451416,2023-10-20T11:58:41.542933Z,1697803121542
0.052229881286621094,0.13468647003173828,0.018161654472351074,2023-10-20T11:58:41.563245Z,1697803121563
0.04843401908874512,0.12397956848144531,0.016303539276123047,2023-10-20T11:58:41.583979Z,1697803121583
0.044840097427368164,0.11399650573730469,0.014557480812072754,2023-10-20T11:58:41.607568Z,1697803121607
0.04180741310119629,0.10552597045898438,0.013028264045715332,2023-10-20T11:58:41.625134Z,1697803121625
0.039475202560424805,0.09877777099609375,0.011728882789611816,2023-10-20T11:58:41.644433Z,1697803121644
0.03741312026977539,0.0926828384399414,0.01051938533782959,2023-10-20T11:58:41.665232Z,1697803121665
0.03538203239440918,0.08672618865966797,0.009334444999694824,2023-10-20T11:58:41.685319Z,1697803121685
0.03325295448303223,0.08072090148925781,0.00815659761428833,2023-10-20T11:58:41.707210Z,1697803121707
0.031204938888549805,0.07518386840820312,0.007047593593597412,2023-10-20T11:58:41.726181Z,1697803121726
0.029512882232666016,0.07083415985107422,0.006069362163543701,2023-10-20T11:58:41.745586Z,1697803121745
0.028519868850708008,0.06848526000976562,0.005253016948699951,2023-10-20T11:58:41.766354Z,1697803121766
0.028162002563476562,0.06798744201660156,0.004539191722869873,2023-10-20T11:58:41.786480Z,1697803121786
0.028378963470458984,0.06921958923339844,0.003869295120239258,2023-10-20T11:58:41.807007Z,1697803121806
0.029198408126831055,0.07232093811035156,0.003210008144378662,2023-10-20T11:58:41.826916Z,1697803121826
0.030817031860351562,0.07794761657714844,0.0025348961353302,2023-10-20T11:58:41.846920Z,1697803121846
0.03358268737792969,0.08721351623535156,0.0018075406551361084,2023-10-20T11:58:41.867707Z,1697803121867
0.03757643699645996,0.10067939758300781,9.454935789108276E-4,2023-10-20T11:58:41.890610Z,1697803121890
0.04289960861206055,0.11894989013671875,-1.6104243695735931E-4,2023-10-20T11:58:41.908197Z,1697803121908
0.0495915412902832,0.1424846649169922,-0.0016422569751739502,2023-10-20T11:58:41.928364Z,1697803121928
0.057575225830078125,0.1713085174560547,-0.003608137369155884,2023-10-20T11:58:41.948652Z,1697803121948
0.06637001037597656,0.20412158966064453,-0.006082087755203247,2023-10-20T11:58:41.968987Z,1697803121968
0.07544875144958496,0.23921775817871094,-0.009010493755340576,2023-10-20T11:58:41.989650Z,1697803121989
0.08449435234069824,0.27550411224365234,-0.012298375368118286,2023-10-20T11:58:42.008984Z,1697803122008
0.09346508979797363,0.31262683868408203,-0.015864551067352295,2023-10-20T11:58:42.029733Z,1697803122029
0.10247993469238281,0.35085201263427734,-0.019658803939819336,2023-10-20T11:58:42.050257Z,1697803122050
0.11177325248718262,0.3907594680786133,-0.02371692657470703,2023-10-20T11:58:42.069897Z,1697803122069
0.12120413780212402,0.4320058822631836,-0.028026044368743896,2023-10-20T11:58:42.089774Z,1697803122089
0.13030624389648438,0.4737396240234375,-0.032537758350372314,2023-10-20T11:58:42.110784Z,1697803122110
0.13847804069519043,0.5146369934082031,-0.03707641363143921,2023-10-20T11:58:42.130815Z,1697803122130
0.1452348232269287,0.5536699295043945,-0.04139971733093262,2023-10-20T11:58:42.151541Z,1697803122151
0.15082836151123047,0.5909137725830078,-0.045278072357177734,2023-10-20T11:58:42.173248Z,1697803122173
0.15561223030090332,0.6260795593261719,-0.04850161075592041,2023-10-20T11:58:42.191573Z,1697803122191
0.15994954109191895,0.6583175659179688,-0.05096369981765747,2023-10-20T11:58:42.211921Z,1697803122211
0.16386103630065918,0.6860513687133789,-0.05265611410140991,2023-10-20T11:58:42.232330Z,1697803122232
0.16707062721252441,0.7068700790405273,-0.053475260734558105,2023-10-20T11:58:42.252584Z,1697803122252
0.169342041015625,0.7188024520874023,-0.05330377817153931,2023-10-20T11:58:42.273334Z,1697803122273
0.17090678215026855,0.7217226028442383,-0.05222344398498535,2023-10-20T11:58:42.293317Z,1697803122293
0.17215228080749512,0.7167463302612305,-0.050371408462524414,2023-10-20T11:58:42.313428Z,1697803122313
0.17347168922424316,0.7055377960205078,-0.048045337200164795,2023-10-20T11:58:42.333183Z,1697803122333
0.17494654655456543,0.6890363693237305,-0.045459747314453125,2023-10-20T11:58:42.356687Z,1697803122356
0.17627620697021484,0.6679821014404297,-0.042951345443725586,2023-10-20T11:58:42.373702Z,1697803122373
0.17722082138061523,0.6437263488769531,-0.04075312614440918,2023-10-20T11:58:42.393744Z,1697803122393
0.1773695945739746,0.6175785064697266,-0.03888273239135742,2023-10-20T11:58:42.414927Z,1697803122414
0.17659521102905273,0.5908336639404297,-0.03722912073135376,2023-10-20T11:58:42.435019Z,1697803122434
0.1751232147216797,0.5652751922607422,-0.035785138607025146,2023-10-20T11:58:42.456296Z,1697803122456
0.17337799072265625,0.542332649230957,-0.03453481197357178,2023-10-20T11:58:42.475330Z,1697803122475
0.17178821563720703,0.5227890014648438,-0.03345489501953125,2023-10-20T11:58:42.495580Z,1697803122495
0.17057251930236816,0.5061349868774414,-0.032469093799591064,2023-10-20T11:58:42.516360Z,1697803122516
0.16948652267456055,0.49096012115478516,-0.03148233890533447,2023-10-20T11:58:42.539540Z,1697803122539
0.16823697090148926,0.4761800765991211,-0.030489087104797363,2023-10-20T11:58:42.556796Z,1697803122556
0.16643428802490234,0.4609689712524414,-0.029450654983520508,2023-10-20T11:58:42.576655Z,1697803122576
0.1639854907989502,0.4451866149902344,-0.028369009494781494,2023-10-20T11:58:42.597136Z,1697803122597
0.1614091396331787,0.42990970611572266,-0.027313530445098877,2023-10-20T11:58:42.617159Z,1697803122617
0.15914511680603027,0.41602230072021484,-0.026357948780059814,2023-10-20T11:58:42.640035Z,1697803122639
0.15744924545288086,0.4040079116821289,-0.02557063102722168,2023-10-20T11:58:42.657464Z,1697803122657
0.15622258186340332,0.39385128021240234,-0.025017499923706055,2023-10-20T11:58:42.677262Z,1697803122677
0.15524005889892578,0.3853616714477539,-0.024713456630706787,2023-10-20T11:58:42.698051Z,1697803122697
0.15437984466552734,0.3785867691040039,-0.024608492851257324,2023-10-20T11:58:42.718434Z,1697803122718
0.1539902687072754,0.3744173049926758,-0.02467644214630127,2023-10-20T11:58:42.739722Z,1697803122739
0.1547994613647461,0.3744068145751953,-0.024945557117462158,2023-10-20T11:58:42.758937Z,1697803122758
0.1575016975402832,0.3801536560058594,-0.02545750141143799,2023-10-20T11:58:42.779047Z,1697803122778
0.16230225563049316,0.3923158645629883,-0.026217639446258545,2023-10-20T11:58:42.799364Z,1697803122799
0.16878318786621094,0.4102334976196289,-0.027128756046295166,2023-10-20T11:58:42.822623Z,1697803122822
0.17618894577026367,0.43253326416015625,-0.028024017810821533,2023-10-20T11:58:42.840300Z,1697803122840
0.18402791023254395,0.4583902359008789,-0.02876657247543335,2023-10-20T11:58:42.860517Z,1697803122860
0.19208025932312012,0.48749732971191406,-0.029195070266723633,2023-10-20T11:58:42.880578Z,1697803122880
0.2002098560333252,0.519810676574707,-0.029190003871917725,2023-10-20T11:58:42.900592Z,1697803122900
0.20857548713684082,0.5558567047119141,-0.02872323989868164,2023-10-20T11:58:42.922883Z,1697803122922
0.21689748764038086,0.5951299667358398,-0.02771279215812683,2023-10-20T11:58:42.941104Z,1697803122941
0.2246723175048828,0.6364717483520508,-0.026014268398284912,2023-10-20T11:58:42.961623Z,1697803122961
0.2313084602355957,0.6783466339111328,-0.023520082235336304,2023-10-20T11:58:42.982327Z,1697803122982
0.23637628555297852,0.719843864440918,-0.02017921209335327,2023-10-20T11:58:43.002068Z,1697803123002
0.23986172676086426,0.761500358581543,-0.016015008091926575,2023-10-20T11:58:43.022638Z,1697803123022
0.24248933792114258,0.8058328628540039,-0.011075302958488464,2023-10-20T11:58:43.042412Z,1697803123042
0.2449357509613037,0.8549890518188477,-0.005226172506809235,2023-10-20T11:58:43.062929Z,1697803123062
0.24763131141662598,0.909916877746582,0.0017404649406671524,2023-10-20T11:58:43.083242Z,1697803123083
0.25055408477783203,0.969853401184082,0.010060220956802368,2023-10-20T11:58:43.106257Z,1697803123106
0.25326991081237793,1.033151626586914,0.019941717386245728,2023-10-20T11:58:43.123044Z,1697803123123
0.25568389892578125,1.0993375778198242,0.03155061602592468,2023-10-20T11:58:43.143981Z,1697803123143
0.2578094005584717,1.1684513092041016,0.045080214738845825,2023-10-20T11:58:43.164728Z,1697803123164
0.25986790657043457,1.2407007217407227,0.060838520526885986,2023-10-20T11:58:43.184498Z,1697803123184
0.2621082067489624,1.3151931762695312,0.07911866903305054,2023-10-20T11:58:43.205932Z,1697803123205
0.26484084129333496,1.3900175094604492,0.10001522302627563,2023-10-20T11:58:43.225175Z,1697803123225
0.2682323455810547,1.4621610641479492,0.12334191799163818,2023-10-20T11:58:43.245507Z,1697803123245
0.2722797393798828,1.5283279418945312,0.1486881971359253,2023-10-20T11:58:43.265805Z,1697803123265
0.27681028842926025,1.5852422714233398,0.175561785697937,2023-10-20T11:58:43.285570Z,1697803123285
0.2817726135253906,1.6300201416015625,0.2035149335861206,2023-10-20T11:58:43.305962Z,1697803123305
0.28738510608673096,1.6608943939208984,0.23196172714233398,2023-10-20T11:58:43.326069Z,1697803123326
0.2938896417617798,1.67633056640625,0.2600451707839966,2023-10-20T11:58:43.346607Z,1697803123346
0.3012806177139282,1.6743621826171875,0.2864360809326172,2023-10-20T11:58:43.366660Z,1697803123366
0.30902600288391113,1.6522464752197266,0.30949974060058594,2023-10-20T11:58:43.389072Z,1697803123389
0.3161383867263794,1.6070489883422852,0.3273963928222656,2023-10-20T11:58:43.407165Z,1697803123407
0.32098817825317383,1.5358810424804688,0.3383336067199707,2023-10-20T11:58:43.427482Z,1697803123427
0.32160282135009766,1.4368019104003906,0.34067702293395996,2023-10-20T11:58:43.448170Z,1697803123448
0.31589722633361816,1.3086023330688477,0.3328077793121338,2023-10-20T11:58:43.467962Z,1697803123467
0.30191588401794434,1.1519231796264648,0.3133060932159424,2023-10-20T11:58:43.488910Z,1697803123488
0.27722764015197754,0.9682598114013672,0.28087282180786133,2023-10-20T11:58:43.508504Z,1697803123508
0.2389061450958252,0.759678840637207,0.23454618453979492,2023-10-20T11:58:43.529234Z,1697803123529
0.18333220481872559,0.5282382965087891,0.17343807220458984,2023-10-20T11:58:43.549701Z,1697803123549
0.10677170753479004,0.2775001525878906,0.09697246551513672,2023-10-20T11:58:43.572827Z,1697803123572
0.005869388580322266,0.013696670532226562,0.0051021575927734375,2023-10-20T11:58:43.589932Z,1697803123589
-0.12207198143005371,-0.2543954849243164,-0.10140538215637207,2023-10-20T11:58:43.609602Z,1697803123609
-0.27873945236206055,-0.5158448219299316,-0.22075438499450684,2023-10-20T11:58:43.630502Z,1697803123630
-0.4651350975036621,-0.7593264579772949,-0.35043978691101074,2023-10-20T11:58:43.650559Z,1697803123650
-0.681175708770752,-0.9734973907470703,-0.48709940910339355,2023-10-20T11:58:43.672608Z,1697803123672
-0.9261846542358398,-1.1486330032348633,-0.6271567344665527,2023-10-20T11:58:43.690402Z,1697803123690
-1.1976776123046875,-1.2752141952514648,-0.7661199569702148,2023-10-20T11:58:43.711158Z,1697803123711
-1.4901041984558105,-1.343428611755371,-0.8987023830413818,2023-10-20T11:58:43.731875Z,1697803123731
-1.7929062843322754,-1.3434152603149414,-1.0182380676269531,2023-10-20T11:58:43.751892Z,1697803123751
-2.0895333290100098,-1.2680554389953613,-1.1170506477355957,2023-10-20T11:58:43.772117Z,1697803123772
-2.3599300384521484,-1.1168010234832764,-1.1875438690185547,2023-10-20T11:58:43.792380Z,1697803123792
-2.584639072418213,-0.8987083435058594,-1.2239675521850586,2023-10-20T11:58:43.812703Z,1697803123812
-2.7477517127990723,-0.6307368278503418,-1.2231132984161377,2023-10-20T11:58:43.832540Z,1697803123832
-2.837834358215332,-0.33534204959869385,-1.1852540969848633,2023-10-20T11:58:43.855501Z,1697803123855
-2.8498005867004395,-0.03764595836400986,-1.1156041622161865,2023-10-20T11:58:43.873415Z,1697803123873
-2.7862424850463867,0.23798048496246338,-1.0224401950836182,2023-10-20T11:58:43.893715Z,1697803123893
-2.6577229499816895,0.47199010848999023,-0.9156248569488525,2023-10-20T11:58:43.913996Z,1697803123913
-2.480640411376953,0.6524332761764526,-0.8034908771514893,2023-10-20T11:58:43.934462Z,1697803123934
-2.274139881134033,0.7760226726531982,-0.6926453113555908,2023-10-20T11:58:43.954819Z,1697803123954
-2.0580005645751953,0.848191499710083,-0.5884422063827515,2023-10-20T11:58:43.974538Z,1697803123974
-1.8487820625305176,0.8800694942474365,-0.4949502944946289,2023-10-20T11:58:43.994914Z,1697803123994
-1.654557228088379,0.8824300765991211,-0.4138435125350952,2023-10-20T11:58:44.015322Z,1697803124015
-1.4782061576843262,0.864112138748169,-0.34527111053466797,2023-10-20T11:58:44.038972Z,1697803124038
-1.3198738098144531,0.8318696022033691,-0.28822803497314453,2023-10-20T11:58:44.055968Z,1697803124055
-1.181258201599121,0.7924795150756836,-0.2411254644393921,2023-10-20T11:58:44.076039Z,1697803124076
-1.0661849975585938,0.7540392875671387,-0.20289981365203857,2023-10-20T11:58:44.096437Z,1697803124096
-0.9839215278625488,0.7291727066040039,-0.17329037189483643,2023-10-20T11:58:44.116841Z,1697803124116
-0.9430174827575684,0.7301812171936035,-0.1507256031036377,2023-10-20T11:58:44.138781Z,1697803124138
-0.9465980529785156,0.765479564666748,-0.13141000270843506,2023-10-20T11:58:44.157110Z,1697803124157
-0.9836201667785645,0.8320107460021973,-0.10733884572982788,2023-10-20T11:58:44.177243Z,1697803124177
-1.0293588638305664,0.9147138595581055,-0.0686517059803009,2023-10-20T11:58:44.197500Z,1697803124197
-1.0540828704833984,0.9930572509765625,-0.0076429955661296844,2023-10-20T11:58:44.218194Z,1697803124218
-1.0266284942626953,1.0404796600341797,0.07644221186637878,2023-10-20T11:58:44.238776Z,1697803124238
-0.9222683906555176,1.0257172584533691,0.1708770990371704,2023-10-20T11:58:44.258771Z,1697803124258
-0.7249584197998047,0.9071297645568848,0.24259161949157715,2023-10-20T11:58:44.278946Z,1697803124278
-0.43810224533081055,0.6344075202941895,0.23466181755065918,2023-10-20T11:58:44.299222Z,1697803124299
-0.09585762023925781,0.16481685638427734,0.07711076736450195,2023-10-20T11:58:44.322283Z,1697803124322
0.24232029914855957,-0.5041847229003906,-0.2809591293334961,2023-10-20T11:58:44.339379Z,1697803124339
0.5223488807678223,-1.3288908004760742,-0.8488330841064453,2023-10-20T11:58:44.360165Z,1697803124360
0.7172317504882812,-2.238645553588867,-1.600212574005127,2023-10-20T11:58:44.379928Z,1697803124379
0.8320128917694092,-3.1512718200683594,-2.4864978790283203,2023-10-20T11:58:44.400337Z,1697803124400
0.8950250148773193,-3.9714059829711914,-3.42747163772583,2023-10-20T11:58:44.422247Z,1697803124422
0.9464356899261475,-4.6219563484191895,-4.326939582824707,2023-10-20T11:58:44.441014Z,1697803124440
0.9922900199890137,-5.057370185852051,-5.102665901184082,2023-10-20T11:58:44.461370Z,1697803124461
1.0324320793151855,-5.272879600524902,-5.704423427581787,2023-10-20T11:58:44.481389Z,1697803124481
1.0815348625183105,-5.318325996398926,-6.179524898529053,2023-10-20T11:58:44.501575Z,1697803124501
1.1392009258270264,-5.191721439361572,-6.53016471862793,2023-10-20T11:58:44.522095Z,1697803124522
1.222381830215454,-4.946068286895752,-6.784140586853027,2023-10-20T11:58:44.542127Z,1697803124542
1.3002300262451172,-4.586208343505859,-6.895776748657227,2023-10-20T11:58:44.562460Z,1697803124562
1.363584041595459,-4.1452789306640625,-6.8393707275390625,2023-10-20T11:58:44.582718Z,1697803124582
1.3979597091674805,-3.6623363494873047,-6.644451141357422,2023-10-20T11:58:44.605283Z,1697803124605
1.3907850980758667,-3.1760358810424805,-6.361174583435059,2023-10-20T11:58:44.622940Z,1697803124622
1.3456809520721436,-2.7240915298461914,-6.048466682434082,2023-10-20T11:58:44.643542Z,1697803124643
1.3053815364837646,-2.3286185264587402,-5.748928070068359,2023-10-20T11:58:44.663728Z,1697803124663
1.2977666854858398,-1.983713150024414,-5.469719886779785,2023-10-20T11:58:44.683851Z,1697803124683
1.3070507049560547,-1.6458399295806885,-5.1113786697387695,2023-10-20T11:58:44.704946Z,1697803124704
1.3224201202392578,-1.3137340545654297,-4.643909454345703,2023-10-20T11:58:44.724566Z,1697803124724
1.3091223239898682,-0.9620590209960938,-4.031831741333008,2023-10-20T11:58:44.745236Z,1697803124745
1.2771477699279785,-0.6149380207061768,-3.3415746688842773,2023-10-20T11:58:44.765280Z,1697803124765
1.2244791984558105,-0.2938302755355835,-2.643692970275879,2023-10-20T11:58:44.788483Z,1697803124788
1.1509675979614258,-0.024828992784023285,-1.99261474609375,2023-10-20T11:58:44.805317Z,1697803124805
1.0972166061401367,0.18185937404632568,-1.4824137687683105,2023-10-20T11:58:44.825435Z,1697803124825
1.1517376899719238,0.3732116222381592,-1.1849641799926758,2023-10-20T11:58:44.846364Z,1697803124846
1.4165096282958984,0.6491894721984863,-1.0769987106323242,2023-10-20T11:58:44.866680Z,1697803124866
1.942431926727295,1.1138267517089844,-1.0416374206542969,2023-10-20T11:58:44.888572Z,1697803124888
2.677968978881836,1.7993450164794922,-0.9329714775085449,2023-10-20T11:58:44.906695Z,1697803124906
3.492344856262207,2.6383280754089355,-0.6738185882568359,2023-10-20T11:58:44.927006Z,1697803124926
4.245725631713867,3.5070648193359375,-0.2868920564651489,2023-10-20T11:58:44.947759Z,1697803124947
4.891109943389893,4.305276870727539,0.15286856889724731,2023-10-20T11:58:44.967478Z,1697803124967
5.411472320556641,4.965961456298828,0.5730081796646118,2023-10-20T11:58:44.987963Z,1697803124987
5.8010382652282715,5.468287467956543,0.9606688022613525,2023-10-20T11:58:45.008104Z,1697803125008
6.059780120849609,5.7847676277160645,1.2970225811004639,2023-10-20T11:58:45.028749Z,1697803125028
6.193318843841553,5.947770118713379,1.5757887363433838,2023-10-20T11:58:45.048865Z,1697803125048
6.250077724456787,5.979785919189453,1.764286756515503,2023-10-20T11:58:45.071414Z,1697803125071
6.249032020568848,5.915050506591797,1.841949462890625,2023-10-20T11:58:45.088871Z,1697803125088
6.226497650146484,5.7915802001953125,1.8306362628936768,2023-10-20T11:58:45.109345Z,1697803125109
6.235218524932861,5.653844833374023,1.7695279121398926,2023-10-20T11:58:45.129633Z,1697803125129
6.311919212341309,5.541994571685791,1.7001268863677979,2023-10-20T11:58:45.150569Z,1697803125150
6.40927791595459,5.457154273986816,1.6426517963409424,2023-10-20T11:58:45.171163Z,1697803125171
6.46849250793457,5.379717826843262,1.6025700569152832,2023-10-20T11:58:45.190603Z,1697803125190
6.462705135345459,5.279888153076172,1.5373566150665283,2023-10-20T11:58:45.210722Z,1697803125210
6.391504287719727,5.172188758850098,1.438166618347168,2023-10-20T11:58:45.231397Z,1697803125231
6.26756477355957,5.029641628265381,1.2986648082733154,2023-10-20T11:58:45.254523Z,1697803125254
6.058235168457031,4.843169689178467,1.1435520648956299,2023-10-20T11:58:45.271886Z,1697803125271
5.757961750030518,4.597681045532227,0.990365743637085,2023-10-20T11:58:45.292307Z,1697803125292
5.374776840209961,4.297739028930664,0.8304343223571777,2023-10-20T11:58:45.312240Z,1697803125312
4.920986652374268,3.9582343101501465,0.6640383005142212,2023-10-20T11:58:45.332945Z,1697803125332
4.420394420623779,3.5863237380981445,0.49921107292175293,2023-10-20T11:58:45.354892Z,1697803125354
3.8981237411499023,3.188129425048828,0.34479570388793945,2023-10-20T11:58:45.372730Z,1697803125372
3.377385139465332,2.7711362838745117,0.20820832252502441,2023-10-20T11:58:45.393293Z,1697803125393
2.865200996398926,2.341921806335449,0.0947687029838562,2023-10-20T11:58:45.413089Z,1697803125413
2.3685202598571777,1.9124727249145508,0.00787019357085228,2023-10-20T11:58:45.433337Z,1697803125433
1.8994817733764648,1.504079818725586,-0.05154013633728027,2023-10-20T11:58:45.454703Z,1697803125454
1.4729700088500977,1.139096736907959,-0.08537149429321289,2023-10-20T11:58:45.474102Z,1697803125474
1.1062302589416504,0.8343982696533203,-0.09798216819763184,2023-10-20T11:58:45.494617Z,1697803125494
0.8061127662658691,0.5934624671936035,-0.09532487392425537,2023-10-20T11:58:45.514600Z,1697803125514
0.57061767578125,0.41040897369384766,-0.0835118293762207,2023-10-20T11:58:45.537566Z,1697803125537
0.388913631439209,0.273773193359375,-0.06719017028808594,2023-10-20T11:58:45.554937Z,1697803125554
0.25369930267333984,0.17535972595214844,-0.05007672309875488,2023-10-20T11:58:45.575218Z,1697803125575
0.16064929962158203,0.10949373245239258,-0.03533005714416504,2023-10-20T11:58:45.596133Z,1697803125596
0.10424995422363281,0.07036304473876953,-0.024995088577270508,2023-10-20T11:58:45.616371Z,1697803125616
0.07402896881103516,0.04969072341918945,-0.01897883415222168,2023-10-20T11:58:45.637554Z,1697803125637
0.05952310562133789,0.03989219665527344,-0.016027212142944336,2023-10-20T11:58:45.656883Z,1697803125656
0.056174278259277344,0.037680625915527344,-0.015637636184692383,2023-10-20T11:58:45.676949Z,1697803125676
0.06304597854614258,0.04234790802001953,-0.017908096313476562,2023-10-20T11:58:45.697438Z,1697803125697
0.07703447341918945,0.05181550979614258,-0.022110939025878906,2023-10-20T11:58:45.720894Z,1697803125720
0.09544086456298828,0.06436538696289062,-0.027481794357299805,2023-10-20T11:58:45.737829Z,1697803125737
0.11965656280517578,0.08107233047485352,-0.03434300422668457,2023-10-20T11:58:45.757662Z,1697803125757
0.1526193618774414,0.10411596298217773,-0.043448686599731445,2023-10-20T11:58:45.778481Z,1697803125778
0.19717979431152344,0.13576030731201172,-0.05549335479736328,2023-10-20T11:58:45.798513Z,1697803125798
0.25571680068969727,0.17822599411010742,-0.0710611343383789,2023-10-20T11:58:45.820928Z,1697803125820
0.3298072814941406,0.23352384567260742,-0.09061598777770996,2023-10-20T11:58:45.839015Z,1697803125838
0.4212636947631836,0.3041362762451172,-0.11484956741333008,2023-10-20T11:58:45.859390Z,1697803125859
0.5279064178466797,0.38995933532714844,-0.14344453811645508,2023-10-20T11:58:45.879828Z,1697803125879
0.6416940689086914,0.4867258071899414,-0.1742696762084961,2023-10-20T11:58:45.899704Z,1697803125899
0.7528820037841797,0.5881152153015137,-0.20425868034362793,2023-10-20T11:58:45.920557Z,1697803125920
0.8520832061767578,0.6866531372070312,-0.23006963729858398,2023-10-20T11:58:45.940792Z,1697803125940
0.9342308044433594,0.7765426635742188,-0.24953699111938477,2023-10-20T11:58:45.960910Z,1697803125960
0.9970192909240723,0.8533830642700195,-0.26137828826904297,2023-10-20T11:58:45.981173Z,1697803125981
1.0386500358581543,0.9132776260375977,-0.2648162841796875,2023-10-20T11:58:46.004105Z,1697803126004
1.0560107231140137,0.9515581130981445,-0.2590675354003906,2023-10-20T11:58:46.021547Z,1697803126021
1.0466461181640625,0.9643745422363281,-0.24413514137268066,2023-10-20T11:58:46.041227Z,1697803126041
1.0093984603881836,0.9490656852722168,-0.22085309028625488,2023-10-20T11:58:46.061939Z,1697803126061
0.9463086128234863,0.9060544967651367,-0.1912550926208496,2023-10-20T11:58:46.082404Z,1697803126082
0.8625783920288086,0.8392701148986816,-0.1583653688430786,2023-10-20T11:58:46.104272Z,1697803126104
0.766749382019043,0.7567534446716309,-0.12575018405914307,2023-10-20T11:58:46.122867Z,1697803126122
0.6674814224243164,0.6674394607543945,-0.09623610973358154,2023-10-20T11:58:46.143281Z,1697803126143
0.5701727867126465,0.5775928497314453,-0.071083664894104,2023-10-20T11:58:46.163724Z,1697803126163
0.47661352157592773,0.48969602584838867,-0.050361692905426025,2023-10-20T11:58:46.183422Z,1697803126183
0.3884010314941406,0.4055910110473633,-0.03385627269744873,2023-10-20T11:58:46.204065Z,1697803126204
0.3097548484802246,0.3294639587402344,-0.021438121795654297,2023-10-20T11:58:46.223861Z,1697803126223
0.2448563575744629,0.2657656669616699,-0.012656033039093018,2023-10-20T11:58:46.244810Z,1697803126244
0.1957387924194336,0.2171788215637207,-0.006721094250679016,2023-10-20T11:58:46.265058Z,1697803126265
0.1613631248474121,0.1833643913269043,-0.002707183361053467,2023-10-20T11:58:46.288012Z,1697803126287
0.1390228271484375,0.1620945930480957,1.8201395869255066E-4,2023-10-20T11:58:46.304952Z,1697803126304
0.12534332275390625,0.15014314651489258,0.0025460422039031982,2023-10-20T11:58:46.324871Z,1697803126324
0.11674976348876953,0.1437535285949707,0.0047318339347839355,2023-10-20T11:58:46.345868Z,1697803126345
0.10936546325683594,0.13844871520996094,0.006817162036895752,2023-10-20T11:58:46.365950Z,1697803126365
0.10021257400512695,0.1304464340209961,0.008594691753387451,2023-10-20T11:58:46.387778Z,1697803126387
0.08751678466796875,0.1171422004699707,0.009675920009613037,2023-10-20T11:58:46.406431Z,1697803126406
0.07066822052001953,0.09721708297729492,0.00963735580444336,2023-10-20T11:58:46.426554Z,1697803126426
0.0496678352355957,0.07017898559570312,0.008089780807495117,2023-10-20T11:58:46.447596Z,1697803126447
0.02487802505493164,0.03610038757324219,0.004726052284240723,2023-10-20T11:58:46.470980Z,1697803126470
-0.00400543212890625,-0.0059757232666015625,-8.727312088012695E-4,2023-10-20T11:58:46.487937Z,1697803126487
-0.035811424255371094,-0.05501842498779297,-0.008765339851379395,2023-10-20T11:58:46.507680Z,1697803126507
-0.06896686553955078,-0.1092376708984375,-0.01873326301574707,2023-10-20T11:58:46.528225Z,1697803126528
-0.10182571411132812,-0.1663494110107422,-0.030285000801086426,2023-10-20T11:58:46.547970Z,1697803126547
-0.1328425407409668,-0.2239704132080078,-0.042766571044921875,2023-10-20T11:58:46.570608Z,1697803126570
-0.1608738899230957,-0.2802915573120117,-0.05553388595581055,2023-10-20T11:58:46.588788Z,1697803126588
-0.1842045783996582,-0.3325357437133789,-0.06774592399597168,2023-10-20T11:58:46.609104Z,1697803126609
-0.2014937400817871,-0.37831783294677734,-0.07862913608551025,2023-10-20T11:58:46.629856Z,1697803126629
-0.21183538436889648,-0.41526317596435547,-0.08735382556915283,2023-10-20T11:58:46.649565Z,1697803126649
-0.2150254249572754,-0.4412088394165039,-0.09313333034515381,2023-10-20T11:58:46.670499Z,1697803126670
-0.21097564697265625,-0.4531831741333008,-0.09519374370574951,2023-10-20T11:58:46.690274Z,1697803126690
-0.20056819915771484,-0.4502592086791992,-0.09349775314331055,2023-10-20T11:58:46.709977Z,1697803126709
-0.1853170394897461,-0.43402671813964844,-0.08865952491760254,2023-10-20T11:58:46.730920Z,1697803126730
-0.16696619987487793,-0.40740966796875,-0.08150076866149902,2023-10-20T11:58:46.754265Z,1697803126754
-0.14722442626953125,-0.3734760284423828,-0.07279503345489502,2023-10-20T11:58:46.770842Z,1697803126770
-0.1273479461669922,-0.3345012664794922,-0.06316149234771729,2023-10-20T11:58:46.791921Z,1697803126791
-0.10867166519165039,-0.2936372756958008,-0.053398728370666504,2023-10-20T11:58:46.811806Z,1697803126811
-0.09223341941833496,-0.25446128845214844,-0.04431414604187012,2023-10-20T11:58:46.832395Z,1697803126832
-0.0786745548248291,-0.22014427185058594,-0.03654944896697998,2023-10-20T11:58:46.853657Z,1697803126853
-0.06845641136169434,-0.1932229995727539,-0.03045797348022461,2023-10-20T11:58:46.873070Z,1697803126873
-0.06143331527709961,-0.1740732192993164,-0.025959372520446777,2023-10-20T11:58:46.892799Z,1697803126892
-0.05703425407409668,-0.16148853302001953,-0.022678494453430176,2023-10-20T11:58:46.912639Z,1697803126912
-0.053765058517456055,-0.1514892578125,-0.019894719123840332,2023-10-20T11:58:46.933153Z,1697803126933
-0.04986071586608887,-0.13931560516357422,-0.016913414001464844,2023-10-20T11:58:46.953524Z,1697803126953
-0.04445624351501465,-0.12283611297607422,-0.013562321662902832,2023-10-20T11:58:46.973699Z,1697803126973
-0.03715991973876953,-0.10126781463623047,-0.00997471809387207,2023-10-20T11:58:46.994317Z,1697803126994
-0.028326749801635742,-0.07594776153564453,-0.006543457508087158,2023-10-20T11:58:47.014317Z,1697803127014
-0.01750946044921875,-0.046039581298828125,-0.0033898353576660156,2023-10-20T11:58:47.036298Z,1697803127036
-0.003316164016723633,-0.008519172668457031,-5.200505256652832E-4,2023-10-20T11:58:47.054667Z,1697803127054
0.015915632247924805,0.03981494903564453,0.001920461654663086,2023-10-20T11:58:47.074994Z,1697803127074
0.040959835052490234,0.09963703155517578,0.0035208463668823242,2023-10-20T11:58:47.095420Z,1697803127095
0.07100820541381836,0.16802501678466797,0.003767669200897217,2023-10-20T11:58:47.115462Z,1697803127115
0.1041097640991211,0.23987483978271484,0.002368822693824768,2023-10-20T11:58:47.136694Z,1697803127136
0.13821887969970703,0.3102407455444336,-6.067175418138504E-4,2023-10-20T11:58:47.156685Z,1697803127156
0.17249393463134766,0.37725067138671875,-0.004783041775226593,2023-10-20T11:58:47.176876Z,1697803127176
0.20615673065185547,0.4395761489868164,-0.009749948978424072,2023-10-20T11:58:47.196999Z,1697803127196
0.23883771896362305,0.49724674224853516,-0.015244990587234497,2023-10-20T11:58:47.219873Z,1697803127219
0.26924848556518555,0.5487537384033203,-0.020942509174346924,2023-10-20T11:58:47.237190Z,1697803127237
0.295473575592041,0.5912141799926758,-0.02637585997581482,2023-10-20T11:58:47.257318Z,1697803127257
0.3161587715148926,0.622772216796875,-0.031070709228515625,2023-10-20T11:58:47.277811Z,1697803127277
0.33144235610961914,0.6440086364746094,-0.03481650352478027,2023-10-20T11:58:47.298496Z,1697803127298
0.34213781356811523,0.6570796966552734,-0.037556469440460205,2023-10-20T11:58:47.320171Z,1697803127320
0.3493461608886719,0.6647300720214844,-0.03940117359161377,2023-10-20T11:58:47.337915Z,1697803127337
0.353668212890625,0.6687917709350586,-0.040385425090789795,2023-10-20T11:58:47.359335Z,1697803127359
0.35566282272338867,0.6706075668334961,-0.04059404134750366,2023-10-20T11:58:47.379374Z,1697803127379
0.35605573654174805,0.6717414855957031,-0.04032677412033081,2023-10-20T11:58:47.399157Z,1697803127399
0.35519886016845703,0.6730480194091797,-0.03979116678237915,2023-10-20T11:58:47.419914Z,1697803127419
0.35324525833129883,0.6748447418212891,-0.03915572166442871,2023-10-20T11:58:47.440172Z,1697803127440
0.3497748374938965,0.6761274337768555,-0.038368940353393555,2023-10-20T11:58:47.460639Z,1697803127460
0.34439563751220703,0.675811767578125,-0.037226319313049316,2023-10-20T11:58:47.480491Z,1697803127480
0.33705711364746094,0.6732110977172852,-0.035608261823654175,2023-10-20T11:58:47.503138Z,1697803127503
0.32836484909057617,0.6693582534790039,-0.03360474109649658,2023-10-20T11:58:47.521115Z,1697803127521
0.3188772201538086,0.665623664855957,-0.03131285309791565,2023-10-20T11:58:47.541012Z,1697803127540
0.308837890625,0.6627979278564453,-0.028760194778442383,2023-10-20T11:58:47.561711Z,1697803127561
0.29845142364501953,0.6611871719360352,-0.025857478380203247,2023-10-20T11:58:47.582209Z,1697803127582
0.28876185417175293,0.6620798110961914,-0.022500544786453247,2023-10-20T11:58:47.603272Z,1697803127603
0.28081750869750977,0.6669063568115234,-0.018570244312286377,2023-10-20T11:58:47.622018Z,1697803127621
0.27510714530944824,0.6764278411865234,-0.013969063758850098,2023-10-20T11:58:47.642314Z,1697803127642
0.2715442180633545,0.6911725997924805,-0.008518658578395844,2023-10-20T11:58:47.663333Z,1697803127663
0.2699096202850342,0.7114896774291992,-0.0021802708506584167,2023-10-20T11:58:47.686808Z,1697803127686
0.27034544944763184,0.7388992309570312,0.005118906497955322,2023-10-20T11:58:47.703087Z,1697803127703
0.27277398109436035,0.7739019393920898,0.013604164123535156,2023-10-20T11:58:47.724006Z,1697803127723
0.277205228805542,0.8165931701660156,0.02351894974708557,2023-10-20T11:58:47.744054Z,1697803127744
0.28380656242370605,0.8674182891845703,0.03516069054603577,2023-10-20T11:58:47.764299Z,1697803127764
0.292818546295166,0.9271535873413086,0.048849284648895264,2023-10-20T11:58:47.786542Z,1697803127786
0.3038485050201416,0.9956426620483398,0.06498467922210693,2023-10-20T11:58:47.805231Z,1697803127805
0.3162209987640381,1.0719013214111328,0.08384913206100464,2023-10-20T11:58:47.824954Z,1697803127824
0.3292243480682373,1.1542491912841797,0.10568153858184814,2023-10-20T11:58:47.845401Z,1697803127845
0.34275007247924805,1.2406005859375,0.1303861141204834,2023-10-20T11:58:47.865158Z,1697803127865
0.35677289962768555,1.327998161315918,0.15774989128112793,2023-10-20T11:58:47.886118Z,1697803127886
0.37119197845458984,1.411722183227539,0.18739283084869385,2023-10-20T11:58:47.905954Z,1697803127905
0.3858957290649414,1.4864635467529297,0.21863067150115967,2023-10-20T11:58:47.926203Z,1697803127926
