ACC_X,ACC_Y,ACC_Z,DATE,UNIX_TIMESTAMP
0.010236740112304688,0.03232002258300781,0.01893901824951172,2023-10-20T11:53:52.743698Z,1697802832743
0.020062923431396484,0.06334304809570312,0.03771352767944336,2023-10-20T11:53:52.764590Z,1697802832764
0.04397988319396973,0.1367645263671875,0.07935333251953125,2023-10-20T11:53:52.784383Z,1697802832784
0.057111263275146484,0.17836952209472656,0.10068750381469727,2023-10-20T11:53:52.804511Z,1697802832804
0.09171104431152344,0.261749267578125,0.14196157455444336,2023-10-20T11:53:52.824841Z,1697802832824
0.06428265571594238,0.171875,0.09819650650024414,2023-10-20T11:53:52.844912Z,1697802832844
0.03722047805786133,0.1120004653930664,0.06476593017578125,2023-10-20T11:53:52.865287Z,1697802832865
0.03741264343261719,0.1252269744873047,0.07158708572387695,2023-10-20T11:53:52.885550Z,1697802832885
0.061260223388671875,0.24655723571777344,0.12775707244873047,2023-10-20T11:53:52.905733Z,1697802832905
0.0712900161743164,0.28565502166748047,0.13444185256958008,2023-10-20T11:53:52.925715Z,1697802832925
0.048070669174194336,0.15674495697021484,0.08495521545410156,2023-10-20T11:53:52.946175Z,1697802832946
0.041686058044433594,0.13818931579589844,0.072540283203125,2023-10-20T11:53:52.966887Z,1697802832966
0.032019853591918945,0.10829353332519531,0.05498218536376953,2023-10-20T11:53:52.986890Z,1697802832986
0.021989822387695312,0.07638835906982422,0.03758096694946289,2023-10-20T11:53:53.008202Z,1697802833008
0.010897636413574219,0.039703369140625,0.01902008056640625,2023-10-20T11:53:53.027018Z,1697802833026
0.0047817230224609375,0.01873779296875,0.008654594421386719,2023-10-20T11:53:53.047968Z,1697802833047
1.6021728515625E-4,6.742477416992188E-4,2.982616424560547E-4,2023-10-20T11:53:53.068426Z,1697802833068
-0.006987571716308594,-0.031229019165039062,-0.013013124465942383,2023-10-20T11:53:53.088371Z,1697802833088
-0.019502758979797363,-0.0890960693359375,-0.03499794006347656,2023-10-20T11:53:53.108700Z,1697802833108
-0.03509724140167236,-0.1596355438232422,-0.05889892578125,2023-10-20T11:53:53.129487Z,1697802833129
-0.04688096046447754,-0.20674705505371094,-0.07110333442687988,2023-10-20T11:53:53.149399Z,1697802833149
-0.0542607307434082,-0.22510337829589844,-0.07153940200805664,2023-10-20T11:53:53.169255Z,1697802833169
-0.06018686294555664,-0.2303915023803711,-0.06722688674926758,2023-10-20T11:53:53.192374Z,1697802833192
-0.06478548049926758,-0.2257843017578125,-0.06026887893676758,2023-10-20T11:53:53.209537Z,1697802833209
-0.06923532485961914,-0.2168254852294922,-0.052779436111450195,2023-10-20T11:53:53.230476Z,1697802833230
-0.07245302200317383,-0.20056533813476562,-0.04451477527618408,2023-10-20T11:53:53.250720Z,1697802833250
-0.06903600692749023,-0.1680278778076172,-0.03425955772399902,2023-10-20T11:53:53.270569Z,1697802833270
-0.05133199691772461,-0.11090564727783203,-0.020894765853881836,2023-10-20T11:53:53.292208Z,1697802833292
-0.020061492919921875,-0.0391387939453125,-0.0068819522857666016,2023-10-20T11:53:53.313075Z,1697802833313
0.01952838897705078,0.03502178192138672,0.005799531936645508,2023-10-20T11:53:53.331882Z,1697802833331
0.06121253967285156,0.10271072387695312,0.015988588333129883,2023-10-20T11:53:53.351664Z,1697802833351
0.09885644912719727,0.15779685974121094,0.02319192886352539,2023-10-20T11:53:53.375528Z,1697802833375
0.1284785270690918,0.19762802124023438,0.027469515800476074,2023-10-20T11:53:53.392568Z,1697802833392
0.15528535842895508,0.23202228546142578,0.030500173568725586,2023-10-20T11:53:53.413012Z,1697802833412
-0.05845355987548828,-0.15521717071533203,-0.04821062088012695,2023-10-20T11:53:53.432895Z,1697802833432
-0.06122732162475586,-0.15644073486328125,-0.04598689079284668,2023-10-20T11:53:53.453356Z,1697802833453
-0.062146902084350586,-0.15285396575927734,-0.04240894317626953,2023-10-20T11:53:53.475636Z,1697802833475
-0.06064796447753906,-0.14365482330322266,-0.03749799728393555,2023-10-20T11:53:53.493497Z,1697802833493
-0.056282758712768555,-0.12847614288330078,-0.031423330307006836,2023-10-20T11:53:53.513300Z,1697802833513
-0.048590898513793945,-0.10695362091064453,-0.02439713478088379,2023-10-20T11:53:53.534661Z,1697802833534
-0.03771162033081055,-0.08006858825683594,-0.01696789264678955,2023-10-20T11:53:53.554248Z,1697802833554
-0.02380084991455078,-0.04875373840332031,-0.009572505950927734,2023-10-20T11:53:53.575164Z,1697802833575
-0.006777763366699219,-0.013394355773925781,-0.0024330615997314453,2023-10-20T11:53:53.594841Z,1697802833594
0.01334238052368164,0.02546977996826172,0.004267215728759766,2023-10-20T11:53:53.615340Z,1697802833615
0.03648662567138672,0.06734848022460938,0.010361194610595703,2023-10-20T11:53:53.635774Z,1697802833635
0.06084775924682617,0.10880470275878906,0.015303373336791992,2023-10-20T11:53:53.658943Z,1697802833658
0.08393192291259766,0.14577007293701172,0.018673300743103027,2023-10-20T11:53:53.676079Z,1697802833676
0.10400724411010742,0.17597007751464844,0.020481526851654053,2023-10-20T11:53:53.696217Z,1697802833696
0.12015819549560547,0.19862651824951172,0.02099025249481201,2023-10-20T11:53:53.716402Z,1697802833716
0.13234663009643555,0.21430492401123047,0.020546913146972656,2023-10-20T11:53:53.736909Z,1697802833736
0.14069223403930664,0.22373104095458984,0.019388318061828613,2023-10-20T11:53:53.758792Z,1697802833758
0.14498662948608398,0.22699546813964844,0.017633020877838135,2023-10-20T11:53:53.777330Z,1697802833777
0.14533185958862305,0.2244710922241211,0.015434980392456055,2023-10-20T11:53:53.797230Z,1697802833797
0.1424579620361328,0.21725940704345703,0.012994647026062012,2023-10-20T11:53:53.818159Z,1697802833818
0.13753700256347656,0.2071676254272461,0.010486692190170288,2023-10-20T11:53:53.837940Z,1697802833837
0.13359737396240234,0.1986827850341797,0.008127152919769287,2023-10-20T11:53:53.858656Z,1697802833858
0.13425731658935547,0.1969738006591797,0.005939781665802002,2023-10-20T11:53:53.878262Z,1697802833878
0.14225482940673828,0.20566749572753906,0.0037027746438980103,2023-10-20T11:53:53.898996Z,1697802833898
0.15903425216674805,0.22638320922851562,9.504854679107666E-4,2023-10-20T11:53:53.919341Z,1697802833919
0.18468379974365234,0.2588210105895996,-0.0029076486825942993,2023-10-20T11:53:53.942115Z,1697802833942
0.21836137771606445,0.30142688751220703,-0.00844070315361023,2023-10-20T11:53:53.959587Z,1697802833959
0.25798845291137695,0.3510303497314453,-0.016118556261062622,2023-10-20T11:53:53.980194Z,1697802833980
0.300537109375,0.4033846855163574,-0.02608466148376465,2023-10-20T11:53:54.000115Z,1697802834000
0.34284067153930664,0.454434871673584,-0.03807801008224487,2023-10-20T11:53:54.020991Z,1697802834020
0.38241052627563477,0.5011758804321289,-0.0516124963760376,2023-10-20T11:53:54.041991Z,1697802834041
0.4165196418762207,0.5403585433959961,-0.06598281860351562,2023-10-20T11:53:54.061463Z,1697802834061
0.4426846504211426,0.5690479278564453,-0.08036863803863525,2023-10-20T11:53:54.081416Z,1697802834081
0.45883655548095703,0.5849575996398926,-0.09378290176391602,2023-10-20T11:53:54.101813Z,1697802834101
0.4636392593383789,0.5867757797241211,-0.10515761375427246,2023-10-20T11:53:54.125535Z,1697802834125
0.4567880630493164,0.5744466781616211,-0.11367511749267578,2023-10-20T11:53:54.141975Z,1697802834141
0.4403395652770996,0.5506572723388672,-0.11917734146118164,2023-10-20T11:53:54.162178Z,1697802834162
0.41898393630981445,0.5213632583618164,-0.12248599529266357,2023-10-20T11:53:54.182619Z,1697802834182
0.3977813720703125,0.49292612075805664,-0.12496089935302734,2023-10-20T11:53:54.202699Z,1697802834202
0.38043880462646484,0.46996259689331055,-0.1279895305633545,2023-10-20T11:53:54.224983Z,1697802834224
0.3683443069458008,0.4541640281677246,-0.13230490684509277,2023-10-20T11:53:54.242991Z,1697802834242
0.3614683151245117,0.44547462463378906,-0.13813257217407227,2023-10-20T11:53:54.263312Z,1697802834263
0.3592395782470703,0.44339895248413086,-0.14545154571533203,2023-10-20T11:53:54.284192Z,1697802834284
0.3606076240539551,0.4469623565673828,-0.15408825874328613,2023-10-20T11:53:54.304154Z,1697802834304
0.36440038681030273,0.4549870491027832,-0.16378211975097656,2023-10-20T11:53:54.324766Z,1697802834324
0.36914491653442383,0.4655427932739258,-0.17384004592895508,2023-10-20T11:53:54.344568Z,1697802834344
0.37151098251342773,0.47420406341552734,-0.18251538276672363,2023-10-20T11:53:54.365050Z,1697802834365
0.3668951988220215,0.4748082160949707,-0.18714547157287598,2023-10-20T11:53:54.385548Z,1697802834385
0.3521265983581543,0.4628024101257324,-0.18566393852233887,2023-10-20T11:53:54.408188Z,1697802834408
0.32598400115966797,0.43576860427856445,-0.17694616317749023,2023-10-20T11:53:54.425572Z,1697802834425
0.2894129753112793,0.39375972747802734,-0.16109371185302734,2023-10-20T11:53:54.445638Z,1697802834445
0.24445581436157227,0.3384890556335449,-0.13899922370910645,2023-10-20T11:53:54.466187Z,1697802834466
0.19376325607299805,0.2728571891784668,-0.11206197738647461,2023-10-20T11:53:54.486679Z,1697802834486
0.1414031982421875,0.20218610763549805,-0.08277082443237305,2023-10-20T11:53:54.508241Z,1697802834508
0.09131240844726562,0.1322336196899414,-0.05379915237426758,2023-10-20T11:53:54.526918Z,1697802834526
0.04684019088745117,0.06847095489501953,-0.02761673927307129,2023-10-20T11:53:54.547010Z,1697802834546
0.01051187515258789,0.015456199645996094,-0.006165742874145508,2023-10-20T11:53:54.567945Z,1697802834567
-0.015765666961669922,-0.02325153350830078,0.009143590927124023,2023-10-20T11:53:54.587650Z,1697802834587
-0.0303497314453125,-0.04478788375854492,0.01729750633239746,2023-10-20T11:53:54.608359Z,1697802834608
-0.031794071197509766,-0.04683494567871094,0.017685413360595703,2023-10-20T11:53:54.628235Z,1697802834628
-0.01977396011352539,-0.02902698516845703,0.010655879974365234,2023-10-20T11:53:54.648526Z,1697802834648
0.004001140594482422,0.005848407745361328,-0.0020728111267089844,2023-10-20T11:53:54.669067Z,1697802834668
0.03600358963012695,0.05235481262207031,-0.017813444137573242,2023-10-20T11:53:54.691849Z,1697802834691
0.07181549072265625,0.10391044616699219,-0.03373408317565918,2023-10-20T11:53:54.709690Z,1697802834709
0.10752248764038086,0.15481805801391602,-0.04768490791320801,2023-10-20T11:53:54.729184Z,1697802834729
0.14044713973999023,0.2013406753540039,-0.05850362777709961,2023-10-20T11:53:54.750275Z,1697802834750
0.16913700103759766,0.24161624908447266,-0.06581950187683105,2023-10-20T11:53:54.770476Z,1697802834770
0.19339752197265625,0.2753887176513672,-0.06989550590515137,2023-10-20T11:53:54.791709Z,1697802834791
0.21354103088378906,0.30306100845336914,-0.07123994827270508,2023-10-20T11:53:54.810840Z,1697802834810
0.22957611083984375,0.32479000091552734,-0.07030630111694336,2023-10-20T11:53:54.830832Z,1697802834830
0.2415480613708496,0.3409099578857422,-0.06760227680206299,2023-10-20T11:53:54.851392Z,1697802834851
0.25040197372436523,0.3530411720275879,-0.0638350248336792,2023-10-20T11:53:54.874264Z,1697802834874
0.25757837295532227,0.3633852005004883,-0.05962502956390381,2023-10-20T11:53:54.891935Z,1697802834891
0.2643427848815918,0.3739042282104492,-0.055319905281066895,2023-10-20T11:53:54.912517Z,1697802834912
0.27133941650390625,0.3857388496398926,-0.05102062225341797,2023-10-20T11:53:54.933124Z,1697802834933
0.278656005859375,0.3991556167602539,-0.046675264835357666,2023-10-20T11:53:54.952468Z,1697802834952
0.2862725257873535,0.4141864776611328,-0.04229646921157837,2023-10-20T11:53:54.974614Z,1697802834974
0.29342079162597656,0.43000125885009766,-0.03785020112991333,2023-10-20T11:53:54.993602Z,1697802834993
0.29779624938964844,0.4436779022216797,-0.0331386923789978,2023-10-20T11:53:55.013266Z,1697802835013
0.29700660705566406,0.4517068862915039,-0.02806764841079712,2023-10-20T11:53:55.034190Z,1697802835034
0.28932762145996094,0.4510183334350586,-0.02268218994140625,2023-10-20T11:53:55.053778Z,1697802835053
0.2750058174133301,0.44091224670410156,-0.017294228076934814,2023-10-20T11:53:55.074833Z,1697802835074
0.2552070617675781,0.4219179153442383,-0.012248128652572632,2023-10-20T11:53:55.094536Z,1697802835094
0.2304987907409668,0.3936281204223633,-0.0077895671129226685,2023-10-20T11:53:55.114216Z,1697802835114
0.20081186294555664,0.35458946228027344,-0.004115551710128784,2023-10-20T11:53:55.135126Z,1697802835135
0.16668462753295898,0.30451297760009766,-0.001439366489648819,2023-10-20T11:53:55.157728Z,1697802835157
0.13037872314453125,0.24645042419433594,1.308489590883255E-4,2023-10-20T11:53:55.175684Z,1697802835175
0.09483051300048828,0.1853494644165039,7.255375385284424E-4,2023-10-20T11:53:55.195786Z,1697802835195
0.0631570816040039,0.1273660659790039,6.696991622447968E-4,2023-10-20T11:53:55.216639Z,1697802835216
0.03801679611206055,0.07883453369140625,3.495924174785614E-4,2023-10-20T11:53:55.236835Z,1697802835236
0.0211334228515625,0.044864654541015625,5.5956654250621796E-5,2023-10-20T11:53:55.257724Z,1697802835257
0.01324605941772461,0.028647422790527344,-1.294948160648346E-4,2023-10-20T11:53:55.276480Z,1697802835276
0.013976573944091797,0.030658721923828125,-3.830716013908386E-4,2023-10-20T11:53:55.297281Z,1697802835297
0.022695541381835938,0.05026817321777344,-0.0011316239833831787,2023-10-20T11:53:55.317515Z,1697802835317
0.038533687591552734,0.08578205108642578,-0.0029205381870269775,2023-10-20T11:53:55.341178Z,1697802835341
0.06011152267456055,0.13384056091308594,-0.0062403082847595215,2023-10-20T11:53:55.358395Z,1697802835358
0.08474063873291016,0.18788433074951172,-0.01121211051940918,2023-10-20T11:53:55.377845Z,1697802835377
0.10936164855957031,0.24059486389160156,-0.017525911331176758,2023-10-20T11:53:55.398013Z,1697802835397
0.1310892105102539,0.2853584289550781,-0.024520277976989746,2023-10-20T11:53:55.418273Z,1697802835418
0.14769792556762695,0.3173084259033203,-0.0313568115234375,2023-10-20T11:53:55.439295Z,1697802835439
0.15817642211914062,0.33458614349365234,-0.03729987144470215,2023-10-20T11:53:55.458966Z,1697802835458
0.16201448440551758,0.33677101135253906,-0.041706085205078125,2023-10-20T11:53:55.479391Z,1697802835479
0.15979242324829102,0.3258094787597656,-0.04430079460144043,2023-10-20T11:53:55.500080Z,1697802835500
0.15328216552734375,0.3060274124145508,-0.0453035831451416,2023-10-20T11:53:55.519837Z,1697802835519
0.14524555206298828,0.2834758758544922,-0.04544210433959961,2023-10-20T11:53:55.541150Z,1697802835541
0.13878297805786133,0.2644367218017578,-0.04573547840118408,2023-10-20T11:53:55.560106Z,1697802835560
0.1367778778076172,0.2542552947998047,-0.047301530838012695,2023-10-20T11:53:55.581118Z,1697802835581
0.14133453369140625,0.2562828063964844,-0.05111074447631836,2023-10-20T11:53:55.600954Z,1697802835600
0.15393304824829102,0.2724466323852539,-0.058007001876831055,2023-10-20T11:53:55.622957Z,1697802835622
0.17503690719604492,0.30272674560546875,-0.06846010684967041,2023-10-20T11:53:55.641132Z,1697802835641
0.20351123809814453,0.34440040588378906,-0.08222770690917969,2023-10-20T11:53:55.661848Z,1697802835661
0.2371664047241211,0.39319515228271484,-0.09847688674926758,2023-10-20T11:53:55.682254Z,1697802835682
0.2729024887084961,0.44371986389160156,-0.11584353446960449,2023-10-20T11:53:55.702460Z,1697802835702
0.3067803382873535,0.4899005889892578,-0.1325235366821289,2023-10-20T11:53:55.724286Z,1697802835724
0.33455371856689453,0.5258150100708008,-0.14650440216064453,2023-10-20T11:53:55.742957Z,1697802835742
0.3522205352783203,0.5462656021118164,-0.15586495399475098,2023-10-20T11:53:55.763293Z,1697802835763
0.3569817543029785,0.5478086471557617,-0.159226655960083,2023-10-20T11:53:55.783741Z,1697802835783
0.347930908203125,0.5296192169189453,-0.1561872959136963,2023-10-20T11:53:55.803727Z,1697802835803
0.3254556655883789,0.49263858795166016,-0.1470189094543457,2023-10-20T11:53:55.824068Z,1697802835824
0.29142189025878906,0.4398326873779297,-0.13265252113342285,2023-10-20T11:53:55.844599Z,1697802835844
0.24915313720703125,0.3760566711425781,-0.11456513404846191,2023-10-20T11:53:55.864597Z,1697802835864
0.20340824127197266,0.30797576904296875,-0.09475541114807129,2023-10-20T11:53:55.885064Z,1697802835885
0.15915489196777344,0.2424173355102539,-0.07528042793273926,2023-10-20T11:53:55.907169Z,1697802835907
0.12053298950195312,0.18511390686035156,-0.05794572830200195,2023-10-20T11:53:55.924804Z,1697802835924
0.09004688262939453,0.13965892791748047,-0.043969154357910156,2023-10-20T11:53:55.945423Z,1697802835945
0.06863689422607422,0.10759925842285156,-0.03396201133728027,2023-10-20T11:53:55.966106Z,1697802835966
0.057071685791015625,0.09043598175048828,-0.028504371643066406,2023-10-20T11:53:55.986017Z,1697802835985
0.05599689483642578,0.08963871002197266,-0.028074264526367188,2023-10-20T11:53:56.007300Z,1697802836007
0.06559467315673828,0.10595321655273438,-0.03277707099914551,2023-10-20T11:53:56.026482Z,1697802836026
0.08403587341308594,0.13683795928955078,-0.041521549224853516,2023-10-20T11:53:56.046763Z,1697802836046
0.10782766342163086,0.17693614959716797,-0.05227303504943848,2023-10-20T11:53:56.066971Z,1697802836066
0.13259649276733398,0.21933460235595703,-0.06262969970703125,2023-10-20T11:53:56.089115Z,1697802836089
0.15517044067382812,0.2589759826660156,-0.0710141658782959,2023-10-20T11:53:56.107711Z,1697802836107
0.17432165145874023,0.29389286041259766,-0.07698535919189453,2023-10-20T11:53:56.127999Z,1697802836127
0.19002866744995117,0.32402706146240234,-0.08075904846191406,2023-10-20T11:53:56.148502Z,1697802836148
0.2028975486755371,0.35031795501708984,-0.08280491828918457,2023-10-20T11:53:56.168292Z,1697802836168
0.21293163299560547,0.37267208099365234,-0.0833050012588501,2023-10-20T11:53:56.190779Z,1697802836190
0.21930742263793945,0.3895244598388672,-0.08210241794586182,2023-10-20T11:53:56.208537Z,1697802836208
0.22109317779541016,0.3989439010620117,-0.07905101776123047,2023-10-20T11:53:56.229307Z,1697802836229
0.21841049194335938,0.4005556106567383,-0.07437801361083984,2023-10-20T11:53:56.249761Z,1697802836249
0.21254777908325195,0.39594459533691406,-0.06861960887908936,2023-10-20T11:53:56.269522Z,1697802836269
0.20548057556152344,0.3882589340209961,-0.062481045722961426,2023-10-20T11:53:56.290201Z,1697802836290
0.19870996475219727,0.38016223907470703,-0.056394100189208984,2023-10-20T11:53:56.310582Z,1697802836310
0.19259929656982422,0.3724956512451172,-0.050441861152648926,2023-10-20T11:53:56.330880Z,1697802836330
0.1872701644897461,0.36574840545654297,-0.04468667507171631,2023-10-20T11:53:56.351185Z,1697802836351
0.18242359161376953,0.35972118377685547,-0.039143264293670654,2023-10-20T11:53:56.373505Z,1697802836373
0.1778111457824707,0.35425758361816406,-0.033877432346343994,2023-10-20T11:53:56.391225Z,1697802836391
0.17352771759033203,0.3497304916381836,-0.029021143913269043,2023-10-20T11:53:56.411433Z,1697802836411
0.16950464248657227,0.34598636627197266,-0.02465289831161499,2023-10-20T11:53:56.431774Z,1697802836431
0.16573381423950195,0.3430213928222656,-0.020894408226013184,2023-10-20T11:53:56.451734Z,1697802836451
0.1615915298461914,0.3396577835083008,-0.01780030131340027,2023-10-20T11:53:56.473322Z,1697802836473
0.15566682815551758,0.3329505920410156,-0.015319585800170898,2023-10-20T11:53:56.492495Z,1697802836492
0.1463623046875,0.3191413879394531,-0.013361096382141113,2023-10-20T11:53:56.513020Z,1697802836512
0.13266277313232422,0.2951536178588867,-0.011839091777801514,2023-10-20T11:53:56.533494Z,1697802836533
0.11516737937927246,0.2612428665161133,-0.010697752237319946,2023-10-20T11:53:56.556844Z,1697802836556
0.09600067138671875,0.22139835357666016,-0.009873837232589722,2023-10-20T11:53:56.573484Z,1697802836573
0.07762408256530762,0.1811532974243164,-0.009259045124053955,2023-10-20T11:53:56.593791Z,1697802836593
0.06142020225524902,0.14423561096191406,-0.008692443370819092,2023-10-20T11:53:56.614565Z,1697802836614
0.04765796661376953,0.11200618743896484,-0.008028149604797363,2023-10-20T11:53:56.634564Z,1697802836634
0.03629350662231445,0.08496475219726562,-0.007218062877655029,2023-10-20T11:53:56.656455Z,1697802836656
0.02780771255493164,0.06458663940429688,-0.006447494029998779,2023-10-20T11:53:56.674627Z,1697802836674
0.023461580276489258,0.053856849670410156,-0.006256222724914551,2023-10-20T11:53:56.695622Z,1697802836695
0.024524450302124023,0.05546283721923828,-0.007409811019897461,2023-10-20T11:53:56.715698Z,1697802836715
0.031824588775634766,0.07074451446533203,-0.010738492012023926,2023-10-20T11:53:56.735943Z,1697802836735
0.04471254348754883,0.09762001037597656,-0.01662266254425049,2023-10-20T11:53:56.756480Z,1697802836756
0.06126546859741211,0.1314706802368164,-0.02482163906097412,2023-10-20T11:53:56.776411Z,1697802836776
0.07880163192749023,0.16651535034179688,-0.034503817558288574,2023-10-20T11:53:56.796934Z,1697802836796
0.09534072875976562,0.1988086700439453,-0.04484367370605469,2023-10-20T11:53:56.816955Z,1697802836816
0.11035013198852539,0.2274332046508789,-0.05547785758972168,2023-10-20T11:53:56.840380Z,1697802836840
0.12391376495361328,0.25254249572753906,-0.0662379264831543,2023-10-20T11:53:56.857267Z,1697802836857
0.13639497756958008,0.27455615997314453,-0.07700562477111816,2023-10-20T11:53:56.877759Z,1697802836877
0.14801597595214844,0.2934913635253906,-0.08755302429199219,2023-10-20T11:53:56.898047Z,1697802836897
0.1590557098388672,0.3095893859863281,-0.09775018692016602,2023-10-20T11:53:56.918061Z,1697802836918
0.16999101638793945,0.32366466522216797,-0.10766410827636719,2023-10-20T11:53:56.940123Z,1697802836940
0.1812267303466797,0.3364830017089844,-0.11736369132995605,2023-10-20T11:53:56.958318Z,1697802836958
0.1936168670654297,0.3495607376098633,-0.12720155715942383,2023-10-20T11:53:56.978655Z,1697802836978
0.20822525024414062,0.36473560333251953,-0.13774561882019043,2023-10-20T11:53:56.999598Z,1697802836999
0.22519826889038086,0.38224029541015625,-0.14897608757019043,2023-10-20T11:53:57.019286Z,1697802837019
0.24366044998168945,0.4007558822631836,-0.16026544570922852,2023-10-20T11:53:57.039694Z,1697802837039
0.2618904113769531,0.4179506301879883,-0.17049074172973633,2023-10-20T11:53:57.059670Z,1697802837059
0.27748537063598633,0.4308929443359375,-0.17823457717895508,2023-10-20T11:53:57.080436Z,1697802837080
0.2885098457336426,0.43767261505126953,-0.18249845504760742,2023-10-20T11:53:57.100246Z,1697802837100
0.29384708404541016,0.43732595443725586,-0.18272805213928223,2023-10-20T11:53:57.122959Z,1697802837122
0.29358768463134766,0.43021631240844727,-0.17906618118286133,2023-10-20T11:53:57.141117Z,1697802837141
0.2886219024658203,0.41762447357177734,-0.17216730117797852,2023-10-20T11:53:57.161655Z,1697802837161
0.27927350997924805,0.40000247955322266,-0.16242647171020508,2023-10-20T11:53:57.182256Z,1697802837182
0.26534032821655273,0.37705421447753906,-0.14996790885925293,2023-10-20T11:53:57.201865Z,1697802837201
0.2477107048034668,0.3499302864074707,-0.13558125495910645,2023-10-20T11:53:57.223012Z,1697802837222
0.2279343605041504,0.3205709457397461,-0.12029314041137695,2023-10-20T11:53:57.242434Z,1697802837242
0.20811128616333008,0.29155588150024414,-0.10530638694763184,2023-10-20T11:53:57.262574Z,1697802837262
0.19040250778198242,0.26563549041748047,-0.0917215347290039,2023-10-20T11:53:57.283268Z,1697802837283
0.17627620697021484,0.24461984634399414,-0.08016681671142578,2023-10-20T11:53:57.306272Z,1697802837306
0.16686630249023438,0.23006343841552734,-0.07103347778320312,2023-10-20T11:53:57.323380Z,1697802837323
0.16219139099121094,0.22202348709106445,-0.06410527229309082,2023-10-20T11:53:57.344302Z,1697802837344
0.16144180297851562,0.21942949295043945,-0.05877804756164551,2023-10-20T11:53:57.363998Z,1697802837363
0.1634202003479004,0.22071552276611328,-0.05437159538269043,2023-10-20T11:53:57.384245Z,1697802837384
0.16706514358520508,0.22447872161865234,-0.050377726554870605,2023-10-20T11:53:57.406023Z,1697802837405
0.1716008186340332,0.22969627380371094,-0.0464935302734375,2023-10-20T11:53:57.424799Z,1697802837424
0.17702484130859375,0.2363748550415039,-0.042726874351501465,2023-10-20T11:53:57.444925Z,1697802837444
0.18368959426879883,0.24499893188476562,-0.03918170928955078,2023-10-20T11:53:57.465426Z,1697802837465
0.19201135635375977,0.2561683654785156,-0.03593337535858154,2023-10-20T11:53:57.485207Z,1697802837485
0.20181846618652344,0.2697148323059082,-0.03293132781982422,2023-10-20T11:53:57.506164Z,1697802837506
0.21285390853881836,0.28535938262939453,-0.030158281326293945,2023-10-20T11:53:57.526320Z,1697802837526
0.2248210906982422,0.3027639389038086,-0.027617573738098145,2023-10-20T11:53:57.546238Z,1697802837546
0.23722457885742188,0.32115745544433594,-0.025297105312347412,2023-10-20T11:53:57.566487Z,1697802837566
0.2497081756591797,0.33975887298583984,-0.023197710514068604,2023-10-20T11:53:57.589541Z,1697802837589
0.26178407669067383,0.35747623443603516,-0.021333009004592896,2023-10-20T11:53:57.606786Z,1697802837606
0.2729191780090332,0.37329959869384766,-0.01982763409614563,2023-10-20T11:53:57.627488Z,1697802837627
0.2821226119995117,0.38580322265625,-0.018831610679626465,2023-10-20T11:53:57.647774Z,1697802837647
0.288144588470459,0.39330291748046875,-0.018447279930114746,2023-10-20T11:53:57.668050Z,1697802837668
0.2897763252258301,0.3942241668701172,-0.018706023693084717,2023-10-20T11:53:57.689501Z,1697802837689
0.28687524795532227,0.38847875595092773,-0.01961657404899597,2023-10-20T11:53:57.708933Z,1697802837708
0.2795858383178711,0.3764076232910156,-0.021099179983139038,2023-10-20T11:53:57.728627Z,1697802837728
0.26856040954589844,0.35909366607666016,-0.0230749249458313,2023-10-20T11:53:57.748889Z,1697802837748
0.2546687126159668,0.33806800842285156,-0.02545112371444702,2023-10-20T11:53:57.773050Z,1697802837773
0.23873329162597656,0.31478452682495117,-0.028097569942474365,2023-10-20T11:53:57.788983Z,1697802837788
0.22220849990844727,0.2914113998413086,-0.030926227569580078,2023-10-20T11:53:57.809634Z,1697802837809
0.20616865158081055,0.2693519592285156,-0.03379237651824951,2023-10-20T11:53:57.830058Z,1697802837830
0.19177818298339844,0.24996280670166016,-0.03667402267456055,2023-10-20T11:53:57.850411Z,1697802837850
0.17995500564575195,0.23430109024047852,-0.039699673652648926,2023-10-20T11:53:57.871378Z,1697802837871
0.1716604232788086,0.2235245704650879,-0.043206095695495605,2023-10-20T11:53:57.890669Z,1697802837890
0.16751909255981445,0.21842527389526367,-0.047600626945495605,2023-10-20T11:53:57.910997Z,1697802837910
0.16765832901000977,0.2191939353942871,-0.053247809410095215,2023-10-20T11:53:57.932018Z,1697802837931
0.17140674591064453,0.22500848770141602,-0.060244083404541016,2023-10-20T11:53:57.951672Z,1697802837951
0.17781972885131836,0.2346811294555664,-0.06851530075073242,2023-10-20T11:53:57.972500Z,1697802837972
0.18601560592651367,0.24704885482788086,-0.07787919044494629,2023-10-20T11:53:57.992250Z,1697802837992
0.19518709182739258,0.26101255416870117,-0.08805346488952637,2023-10-20T11:53:58.012834Z,1697802838012
0.20485782623291016,0.27584028244018555,-0.09876847267150879,2023-10-20T11:53:58.032800Z,1697802838032
0.2144932746887207,0.2907242774963379,-0.10962915420532227,2023-10-20T11:53:58.055928Z,1697802838055
0.22378301620483398,0.30516862869262695,-0.12028741836547852,2023-10-20T11:53:58.073300Z,1697802838073
0.23231220245361328,0.3186187744140625,-0.13033246994018555,2023-10-20T11:53:58.092997Z,1697802838092
0.23932361602783203,0.3300604820251465,-0.13914060592651367,2023-10-20T11:53:58.113830Z,1697802838113
0.24381494522094727,0.3381185531616211,-0.14587664604187012,2023-10-20T11:53:58.134152Z,1697802838134
0.24509239196777344,0.3417849540710449,-0.14986801147460938,2023-10-20T11:53:58.155913Z,1697802838155
0.24324989318847656,0.3410983085632324,-0.15096592903137207,2023-10-20T11:53:58.174352Z,1697802838174
0.23889875411987305,0.3368830680847168,-0.14944958686828613,2023-10-20T11:53:58.194681Z,1697802838194
0.23248052597045898,0.3298015594482422,-0.14565014839172363,2023-10-20T11:53:58.215375Z,1697802838215
0.22436952590942383,0.32047367095947266,-0.13993096351623535,2023-10-20T11:53:58.235129Z,1697802838235
0.21495676040649414,0.3094925880432129,-0.13268518447875977,2023-10-20T11:53:58.255679Z,1697802838255
0.20469903945922852,0.29746341705322266,-0.12433457374572754,2023-10-20T11:53:58.275917Z,1697802838275
0.19402790069580078,0.2848663330078125,-0.11523818969726562,2023-10-20T11:53:58.296440Z,1697802838296
0.1835165023803711,0.2724037170410156,-0.10583829879760742,2023-10-20T11:53:58.316914Z,1697802838316
0.17411518096923828,0.2613706588745117,-0.09678125381469727,2023-10-20T11:53:58.339335Z,1697802838339
0.16679000854492188,0.25319337844848633,-0.08865165710449219,2023-10-20T11:53:58.356965Z,1697802838356
0.16205501556396484,0.24871063232421875,-0.0816810131072998,2023-10-20T11:53:58.377026Z,1697802838376
0.15961742401123047,0.2475748062133789,-0.07562541961669922,2023-10-20T11:53:58.397558Z,1697802838397
0.15906381607055664,0.24918842315673828,-0.07017970085144043,2023-10-20T11:53:58.417553Z,1697802838417
0.15985679626464844,0.2527017593383789,-0.06503081321716309,2023-10-20T11:53:58.438594Z,1697802838438
0.16155242919921875,0.2573881149291992,-0.05997800827026367,2023-10-20T11:53:58.458071Z,1697802838458
0.16371917724609375,0.2625284194946289,-0.054891347885131836,2023-10-20T11:53:58.478560Z,1697802838478
0.16605472564697266,0.26764678955078125,-0.04974675178527832,2023-10-20T11:53:58.499063Z,1697802838498
0.16855573654174805,0.2727823257446289,-0.04466426372528076,2023-10-20T11:53:58.522146Z,1697802838522
0.17095279693603516,0.2776203155517578,-0.039703369140625,2023-10-20T11:53:58.539283Z,1697802838539
0.17319250106811523,0.28218746185302734,-0.03500080108642578,2023-10-20T11:53:58.559399Z,1697802838559
0.17525100708007812,0.2865142822265625,-0.030681490898132324,2023-10-20T11:53:58.580017Z,1697802838579
0.1775970458984375,0.29137325286865234,-0.026907026767730713,2023-10-20T11:53:58.600144Z,1697802838600
0.18120670318603516,0.2983407974243164,-0.023873507976531982,2023-10-20T11:53:58.622400Z,1697802838622
0.18679428100585938,0.3086662292480469,-0.021690011024475098,2023-10-20T11:53:58.640659Z,1697802838640
0.19445085525512695,0.32262325286865234,-0.020403563976287842,2023-10-20T11:53:58.660910Z,1697802838660
0.20343637466430664,0.3391456604003906,-0.020004570484161377,2023-10-20T11:53:58.680994Z,1697802838680
0.2127971649169922,0.35662364959716797,-0.020502924919128418,2023-10-20T11:53:58.701205Z,1697802838701
0.22202253341674805,0.3739509582519531,-0.021963834762573242,2023-10-20T11:53:58.722021Z,1697802838721
0.23103904724121094,0.3906106948852539,-0.02447110414505005,2023-10-20T11:53:58.742178Z,1697802838742
0.2393321990966797,0.4053945541381836,-0.02801412343978882,2023-10-20T11:53:58.762065Z,1697802838762
0.24612760543823242,0.41680431365966797,-0.03251117467880249,2023-10-20T11:53:58.782772Z,1697802838782
0.25065040588378906,0.42353057861328125,-0.037819623947143555,2023-10-20T11:53:58.805214Z,1697802838805
0.25189781188964844,0.4240379333496094,-0.04366344213485718,2023-10-20T11:53:58.822580Z,1697802838822
0.24917316436767578,0.4173469543457031,-0.049628615379333496,2023-10-20T11:53:58.842875Z,1697802838842
0.24218511581420898,0.40311622619628906,-0.05520963668823242,2023-10-20T11:53:58.863790Z,1697802838863
0.23154640197753906,0.3824930191040039,-0.06004202365875244,2023-10-20T11:53:58.883889Z,1697802838883
0.21865510940551758,0.3580350875854492,-0.06404507160186768,2023-10-20T11:53:58.905416Z,1697802838905
0.2045879364013672,0.3318920135498047,-0.06722652912139893,2023-10-20T11:53:58.923875Z,1697802838923
0.19046401977539062,0.30617809295654297,-0.06973350048065186,2023-10-20T11:53:58.944672Z,1697802838944
0.17760467529296875,0.28310489654541016,-0.07193994522094727,2023-10-20T11:53:58.964499Z,1697802838964
0.16750621795654297,0.26497459411621094,-0.07450628280639648,2023-10-20T11:53:58.984646Z,1697802838984
0.16116619110107422,0.25321292877197266,-0.07808351516723633,2023-10-20T11:53:59.005173Z,1697802839005
0.1589345932006836,0.24819469451904297,-0.08315014839172363,2023-10-20T11:53:59.025493Z,1697802839025
0.1609644889831543,0.2499713897705078,-0.09010815620422363,2023-10-20T11:53:59.046176Z,1697802839046
0.16701984405517578,0.25803422927856445,-0.0991368293762207,2023-10-20T11:53:59.066231Z,1697802839066
0.17641925811767578,0.27126216888427734,-0.11005783081054688,2023-10-20T11:53:59.088260Z,1697802839088
0.18743324279785156,0.2870206832885742,-0.12187433242797852,2023-10-20T11:53:59.106691Z,1697802839106
0.19772624969482422,0.30177783966064453,-0.13295292854309082,2023-10-20T11:53:59.126812Z,1697802839126
0.2052145004272461,0.31235599517822266,-0.14159131050109863,2023-10-20T11:53:59.147561Z,1697802839147
0.20875215530395508,0.3169541358947754,-0.14664816856384277,2023-10-20T11:53:59.167528Z,1697802839167
0.20833921432495117,0.3154897689819336,-0.14786076545715332,2023-10-20T11:53:59.188575Z,1697802839188
0.2046818733215332,0.3090372085571289,-0.14565157890319824,2023-10-20T11:53:59.208421Z,1697802839208
0.19834613800048828,0.2986273765563965,-0.1405324935913086,2023-10-20T11:53:59.228324Z,1697802839228
0.18928956985473633,0.2844367027282715,-0.13271760940551758,2023-10-20T11:53:59.248592Z,1697802839248
0.17740297317504883,0.26644468307495117,-0.12239527702331543,2023-10-20T11:53:59.271871Z,1697802839271
0.16324281692504883,0.2454667091369629,-0.11023163795471191,2023-10-20T11:53:59.288918Z,1697802839288
0.1485142707824707,0.22390365600585938,-0.09761571884155273,2023-10-20T11:53:59.309353Z,1697802839309
0.13576936721801758,0.20545625686645508,-0.08635735511779785,2023-10-20T11:53:59.329886Z,1697802839329
0.12715911865234375,0.19336366653442383,-0.07781648635864258,2023-10-20T11:53:59.349916Z,1697802839349
0.123504638671875,0.1889820098876953,-0.07231688499450684,2023-10-20T11:53:59.371592Z,1697802839371
0.12408304214477539,0.19135141372680664,-0.06914424896240234,2023-10-20T11:53:59.389980Z,1697802839389
0.1274857521057129,0.19835615158081055,-0.06719970703125,2023-10-20T11:53:59.410515Z,1697802839410
0.13268232345581055,0.2082967758178711,-0.06567502021789551,2023-10-20T11:53:59.430774Z,1697802839430
0.13922834396362305,0.22028541564941406,-0.06415176391601562,2023-10-20T11:53:59.450755Z,1697802839450
0.14709806442260742,0.23414134979248047,-0.06250905990600586,2023-10-20T11:53:59.471365Z,1697802839471
0.15592288970947266,0.24920272827148438,-0.06052279472351074,2023-10-20T11:53:59.492139Z,1697802839492
0.16498994827270508,0.2643260955810547,-0.05795276165008545,2023-10-20T11:53:59.512445Z,1697802839512
0.17346429824829102,0.2781991958618164,-0.05465376377105713,2023-10-20T11:53:59.532424Z,1697802839532
0.1805424690246582,0.2896003723144531,-0.05063748359680176,2023-10-20T11:53:59.555272Z,1697802839555
0.18575048446655273,0.2978658676147461,-0.046097755432128906,2023-10-20T11:53:59.572775Z,1697802839572
0.18905258178710938,0.30307579040527344,-0.04136252403259277,2023-10-20T11:53:59.593383Z,1697802839593
0.19090747833251953,0.30611228942871094,-0.036841630935668945,2023-10-20T11:53:59.613662Z,1697802839613
0.19234991073608398,0.3088064193725586,-0.03297567367553711,2023-10-20T11:53:59.633474Z,1697802839633
0.19488048553466797,0.31365394592285156,-0.030163288116455078,2023-10-20T11:53:59.654450Z,1697802839654
0.19960689544677734,0.3224782943725586,-0.028608322143554688,2023-10-20T11:53:59.673897Z,1697802839673
0.20675992965698242,0.33567237854003906,-0.028354406356811523,2023-10-20T11:53:59.694467Z,1697802839694
0.21538877487182617,0.35172176361083984,-0.029282987117767334,2023-10-20T11:53:59.714451Z,1697802839714
0.22408199310302734,0.36821746826171875,-0.03121161460876465,2023-10-20T11:53:59.737914Z,1697802839737
0.2318878173828125,0.383331298828125,-0.03401106595993042,2023-10-20T11:53:59.755052Z,1697802839755
0.23851776123046875,0.3962249755859375,-0.03765261173248291,2023-10-20T11:53:59.775087Z,1697802839775
0.2436385154724121,0.40601539611816406,-0.042066335678100586,2023-10-20T11:53:59.795705Z,1697802839795
0.24635839462280273,0.41103553771972656,-0.04701685905456543,2023-10-20T11:53:59.815962Z,1697802839815
0.2452254295349121,0.40882110595703125,-0.052028656005859375,2023-10-20T11:53:59.838298Z,1697802839838
0.23904705047607422,0.3974647521972656,-0.05647730827331543,2023-10-20T11:53:59.856640Z,1697802839856
0.22783660888671875,0.3771991729736328,-0.05988597869873047,2023-10-20T11:53:59.876576Z,1697802839876
0.2131028175354004,0.35083675384521484,-0.06215715408325195,2023-10-20T11:53:59.897093Z,1697802839897
0.19735288619995117,0.3228282928466797,-0.0636519193649292,2023-10-20T11:53:59.917102Z,1697802839917
0.1830768585205078,0.29752349853515625,-0.06502270698547363,2023-10-20T11:53:59.938355Z,1697802839938
0.17192935943603516,0.2777557373046875,-0.06692028045654297,2023-10-20T11:53:59.958007Z,1697802839957
0.16462182998657227,0.26465797424316406,-0.06981110572814941,2023-10-20T11:53:59.978097Z,1697802839978
0.16158580780029297,0.2588176727294922,-0.07414603233337402,2023-10-20T11:53:59.998608Z,1697802839998
0.16314029693603516,0.26059627532958984,-0.08036160469055176,2023-10-20T11:54:00.020019Z,1697802840019
0.1691913604736328,0.2696714401245117,-0.08866429328918457,2023-10-20T11:54:00.038476Z,1697802840038
0.17889738082885742,0.28455162048339844,-0.09877371788024902,2023-10-20T11:54:00.059189Z,1697802840059
0.19091081619262695,0.30290794372558594,-0.10993528366088867,2023-10-20T11:54:00.079624Z,1697802840079
0.20336341857910156,0.3216266632080078,-0.12094449996948242,2023-10-20T11:54:00.099663Z,1697802840099
0.2142934799194336,0.33749961853027344,-0.13040828704833984,2023-10-20T11:54:00.121363Z,1697802840121
0.2218770980834961,0.3476448059082031,-0.1369919776916504,2023-10-20T11:54:00.140141Z,1697802840140
0.22474384307861328,0.35002803802490234,-0.13969898223876953,2023-10-20T11:54:00.160734Z,1697802840160
0.2223653793334961,0.3440403938293457,-0.13819646835327148,2023-10-20T11:54:00.181193Z,1697802840181
0.21509408950805664,0.33051109313964844,-0.132859468460083,2023-10-20T11:54:00.204209Z,1697802840204
0.20387649536132812,0.3111996650695801,-0.12451720237731934,2023-10-20T11:54:00.221079Z,1697802840221
0.19005632400512695,0.2884330749511719,-0.1143035888671875,2023-10-20T11:54:00.241614Z,1697802840241
0.17508649826049805,0.2646160125732422,-0.10335230827331543,2023-10-20T11:54:00.261840Z,1697802840261
0.1602931022644043,0.24178647994995117,-0.09261894226074219,2023-10-20T11:54:00.281631Z,1697802840281
0.14694499969482422,0.221771240234375,-0.08289074897766113,2023-10-20T11:54:00.304663Z,1697802840304
0.13634967803955078,0.20640945434570312,-0.07488155364990234,2023-10-20T11:54:00.322574Z,1697802840322
0.1299304962158203,0.19771862030029297,-0.0692589282989502,2023-10-20T11:54:00.342643Z,1697802840342
0.12864065170288086,0.19710254669189453,-0.06634187698364258,2023-10-20T11:54:00.363108Z,1697802840363
0.13245344161987305,0.20457029342651367,-0.0658714771270752,2023-10-20T11:54:00.383101Z,1697802840383
0.14022207260131836,0.21848106384277344,-0.06706905364990234,2023-10-20T11:54:00.404275Z,1697802840404
0.15009784698486328,0.23606014251708984,-0.06892275810241699,2023-10-20T11:54:00.424143Z,1697802840424
0.1604781150817871,0.2548341751098633,-0.07071733474731445,2023-10-20T11:54:00.444235Z,1697802840444
0.17012882232666016,0.2728385925292969,-0.07203459739685059,2023-10-20T11:54:00.464468Z,1697802840464
0.17778825759887695,0.28804588317871094,-0.07253861427307129,2023-10-20T11:54:00.487329Z,1697802840487
0.182220458984375,0.2984170913696289,-0.07196259498596191,2023-10-20T11:54:00.504706Z,1697802840504
0.18192625045776367,0.3014078140258789,-0.06989860534667969,2023-10-20T11:54:00.524939Z,1697802840524
0.1762537956237793,0.2956571578979492,-0.06624674797058105,2023-10-20T11:54:00.545695Z,1697802840545
0.16535663604736328,0.28106689453125,-0.061147093772888184,2023-10-20T11:54:00.565720Z,1697802840565
0.1502699851989746,0.2589244842529297,-0.05494201183319092,2023-10-20T11:54:00.587523Z,1697802840587
0.13280963897705078,0.23185348510742188,-0.04817044734954834,2023-10-20T11:54:00.606Z,1697802840605
0.11522769927978516,0.20350170135498047,-0.04151129722595215,2023-10-20T11:54:00.626509Z,1697802840626
0.09942007064819336,0.17716312408447266,-0.03551650047302246,2023-10-20T11:54:00.646833Z,1697802840646
0.08645105361938477,0.1548748016357422,-0.030484795570373535,2023-10-20T11:54:00.666794Z,1697802840666
0.07663393020629883,0.13745784759521484,-0.026506781578063965,2023-10-20T11:54:00.687632Z,1697802840687
0.0699625015258789,0.12512779235839844,-0.023575663566589355,2023-10-20T11:54:00.708258Z,1697802840708
0.06678152084350586,0.11863040924072266,-0.02180922031402588,2023-10-20T11:54:00.727996Z,1697802840727
0.0669403076171875,0.11773681640625,-0.021132588386535645,2023-10-20T11:54:00.748529Z,1697802840748
0.07017850875854492,0.1219186782836914,-0.021421432495117188,2023-10-20T11:54:00.771060Z,1697802840771
0.07616281509399414,0.13052940368652344,-0.022559285163879395,2023-10-20T11:54:00.788811Z,1697802840788
0.08432626724243164,0.14253616333007812,-0.02437877655029297,2023-10-20T11:54:00.808654Z,1697802840808
0.09345483779907227,0.1558685302734375,-0.02653360366821289,2023-10-20T11:54:00.829395Z,1697802840829
0.1018838882446289,0.16776752471923828,-0.028560519218444824,2023-10-20T11:54:00.849529Z,1697802840849
0.1083064079284668,0.17611217498779297,-0.030105233192443848,2023-10-20T11:54:00.870979Z,1697802840870
0.11260414123535156,0.1806640625,-0.031162142753601074,2023-10-20T11:54:00.889685Z,1697802840889
0.11539649963378906,0.1822805404663086,-0.03190326690673828,2023-10-20T11:54:00.910642Z,1697802840910
0.1183023452758789,0.18329429626464844,-0.03273463249206543,2023-10-20T11:54:00.930701Z,1697802840930
0.12330341339111328,0.18643951416015625,-0.034124135971069336,2023-10-20T11:54:00.950139Z,1697802840950
0.13219881057739258,0.1938943862915039,-0.03646504878997803,2023-10-20T11:54:00.970539Z,1697802840970
0.14533138275146484,0.2055048942565918,-0.03978848457336426,2023-10-20T11:54:00.991055Z,1697802840991
0.16249799728393555,0.22024822235107422,-0.044043540954589844,2023-10-20T11:54:01.011771Z,1697802841011
0.18477773666381836,0.23883819580078125,-0.049701571464538574,2023-10-20T11:54:01.032105Z,1697802841032
0.21409177780151367,0.26294755935668945,-0.057618141174316406,2023-10-20T11:54:01.053752Z,1697802841053
0.2536616325378418,0.29544878005981445,-0.06914889812469482,2023-10-20T11:54:01.071888Z,1697802841071
0.30545997619628906,0.33740234375,-0.08549249172210693,2023-10-20T11:54:01.092186Z,1697802841092
0.36997318267822266,0.38825511932373047,-0.10756754875183105,2023-10-20T11:54:01.113094Z,1697802841113
0.44548702239990234,0.44542455673217773,-0.13577747344970703,2023-10-20T11:54:01.136687Z,1697802841136
0.5273957252502441,0.5044360160827637,-0.16976165771484375,2023-10-20T11:54:01.153815Z,1697802841153
0.6103348731994629,0.5609860420227051,-0.20879530906677246,2023-10-20T11:54:01.173464Z,1697802841173
0.6918768882751465,0.6134786605834961,-0.2526259422302246,2023-10-20T11:54:01.193730Z,1697802841193
0.7727594375610352,0.6622791290283203,-0.30130863189697266,2023-10-20T11:54:01.214503Z,1697802841214
0.8568387031555176,0.709014892578125,-0.3552083969116211,2023-10-20T11:54:01.236832Z,1697802841236
0.9497451782226562,0.7556157112121582,-0.41495752334594727,2023-10-20T11:54:01.254258Z,1697802841254
1.0556354522705078,0.8023614883422852,-0.48072123527526855,2023-10-20T11:54:01.274502Z,1697802841274
1.179276943206787,0.8492588996887207,-0.5529360771179199,2023-10-20T11:54:01.295026Z,1697802841294
1.3264856338500977,0.8966975212097168,-0.6332798004150391,2023-10-20T11:54:01.315660Z,1697802841315
1.50358247756958,0.9450950622558594,-0.723677396774292,2023-10-20T11:54:01.336985Z,1697802841336
1.7192425727844238,0.9957852363586426,-0.8268651962280273,2023-10-20T11:54:01.356325Z,1697802841356
1.9789981842041016,1.048689365386963,-0.9430277347564697,2023-10-20T11:54:01.376152Z,1697802841376
2.285161018371582,1.1028766632080078,-1.0691323280334473,2023-10-20T11:54:01.396718Z,1697802841396
2.6357288360595703,1.158346176147461,-1.2003405094146729,2023-10-20T11:54:01.421182Z,1697802841421
3.0171003341674805,1.2144508361816406,-1.3279674053192139,2023-10-20T11:54:01.437779Z,1697802841437
3.40828800201416,1.271535873413086,-1.442361831665039,2023-10-20T11:54:01.457204Z,1697802841457
3.7900400161743164,1.3315930366516113,-1.5345454216003418,2023-10-20T11:54:01.477593Z,1697802841477
4.151251792907715,1.3985538482666016,-1.597470760345459,2023-10-20T11:54:01.497788Z,1697802841497
4.488173484802246,1.476513385772705,-1.625373125076294,2023-10-20T11:54:01.520355Z,1697802841520
4.793485641479492,1.5671515464782715,-1.6126346588134766,2023-10-20T11:54:01.537898Z,1697802841537
5.050032615661621,1.666616439819336,-1.5527126789093018,2023-10-20T11:54:01.558688Z,1697802841558
5.243978500366211,1.7677357196807861,-1.444622278213501,2023-10-20T11:54:01.578499Z,1697802841578
5.367185592651367,1.8627865314483643,-1.2948203086853027,2023-10-20T11:54:01.599217Z,1697802841599
5.417970657348633,1.9435997009277344,-1.1163325309753418,2023-10-20T11:54:01.619861Z,1697802841619
5.394025802612305,2.0027525424957275,-0.9223766326904297,2023-10-20T11:54:01.639936Z,1697802841639
5.29389762878418,2.036879777908325,-0.7244614362716675,2023-10-20T11:54:01.660441Z,1697802841660
5.115166664123535,2.0480093955993652,-0.5320702791213989,2023-10-20T11:54:01.679977Z,1697802841679
4.859619140625,2.0395636558532715,-0.35546648502349854,2023-10-20T11:54:01.703310Z,1697802841703
4.536737442016602,2.010183334350586,-0.20586180686950684,2023-10-20T11:54:01.721121Z,1697802841721
4.1561279296875,1.9533991813659668,-0.08874905109405518,2023-10-20T11:54:01.740792Z,1697802841740
3.728952407836914,1.8636698722839355,-0.00457649864256382,2023-10-20T11:54:01.761782Z,1697802841761
3.260592460632324,1.7395939826965332,0.05079972743988037,2023-10-20T11:54:01.781348Z,1697802841781
2.7522506713867188,1.5792570114135742,0.08211535215377808,2023-10-20T11:54:01.803373Z,1697802841803
2.220597267150879,1.384629726409912,0.09473031759262085,2023-10-20T11:54:01.821619Z,1697802841821
1.6926851272583008,1.159010410308838,0.09390914440155029,2023-10-20T11:54:01.842415Z,1697802841842
1.195655345916748,0.9058170318603516,0.08345967531204224,2023-10-20T11:54:01.862643Z,1697802841862
0.7313146591186523,0.6162714958190918,0.06426823139190674,2023-10-20T11:54:01.886510Z,1697802841886
0.29044437408447266,0.2734365463256836,0.03220134973526001,2023-10-20T11:54:01.903732Z,1697802841903
-0.12943363189697266,-0.13706016540527344,-0.0183526873588562,2023-10-20T11:54:01.923582Z,1697802841923
-0.5085411071777344,-0.6096701622009277,-0.09258162975311279,2023-10-20T11:54:01.943466Z,1697802841943
-0.8293819427490234,-1.1284217834472656,-0.19162476062774658,2023-10-20T11:54:01.963703Z,1697802841963
-1.0938992500305176,-1.6808605194091797,-0.3120056390762329,2023-10-20T11:54:01.986543Z,1697802841986
-1.321533203125,-2.2640461921691895,-0.44882071018218994,2023-10-20T11:54:02.004629Z,1697802842004
-1.5327014923095703,-2.8841323852539062,-0.6006358861923218,2023-10-20T11:54:02.024940Z,1697802842024
-1.7357475757598877,-3.5388808250427246,-0.7670047283172607,2023-10-20T11:54:02.045233Z,1697802842045
-1.943375825881958,-4.206886291503906,-0.9396524429321289,2023-10-20T11:54:02.065233Z,1697802842065
-2.2154641151428223,-4.835986137390137,-1.0848345756530762,2023-10-20T11:54:02.086216Z,1697802842086
-2.6620216369628906,-5.338650703430176,-1.1674489974975586,2023-10-20T11:54:02.105776Z,1697802842105
-3.3932323455810547,-5.580996513366699,-1.1558310985565186,2023-10-20T11:54:02.125827Z,1697802842125
-4.405842304229736,-5.387669086456299,-1.0510951280593872,2023-10-20T11:54:02.146519Z,1697802842146
-5.495105743408203,-4.637674331665039,-0.9062165021896362,2023-10-20T11:54:02.169561Z,1697802842169
-6.3134074211120605,-3.444973945617676,-0.800507664680481,2023-10-20T11:54:02.186805Z,1697802842186
-6.622785568237305,-2.1862258911132812,-0.7858160734176636,2023-10-20T11:54:02.207097Z,1697802842207
-6.472342491149902,-1.2061073780059814,-0.8605678081512451,2023-10-20T11:54:02.227560Z,1697802842227
-6.039583206176758,-0.5857394337654114,-0.9530693292617798,2023-10-20T11:54:02.247636Z,1697802842247
-5.4679951667785645,-0.2569998502731323,-1.0111727714538574,2023-10-20T11:54:02.269375Z,1697802842269
-4.8367438316345215,-0.10733503103256226,-1.0120905637741089,2023-10-20T11:54:02.288715Z,1697802842288
-4.178203105926514,-0.055095501244068146,-0.9545257091522217,2023-10-20T11:54:02.308427Z,1697802842308
-3.5030517578125,-0.04573135823011398,-0.8473987579345703,2023-10-20T11:54:02.328215Z,1697802842328
-2.826378345489502,-0.04905986040830612,-0.7047545909881592,2023-10-20T11:54:02.349107Z,1697802842349
-2.1801204681396484,-0.05582787096500397,-0.5478670597076416,2023-10-20T11:54:02.369501Z,1697802842369
-1.573204517364502,-0.06207042932510376,-0.3882793188095093,2023-10-20T11:54:02.389827Z,1697802842389
-0.9821090698242188,-0.05928987264633179,-0.23204636573791504,2023-10-20T11:54:02.409935Z,1697802842409
-0.37381839752197266,-0.03234708309173584,-0.08203339576721191,2023-10-20T11:54:02.429970Z,1697802842429
0.24125194549560547,0.02788102626800537,0.04803287982940674,2023-10-20T11:54:02.452922Z,1697802842452
0.8258485794067383,0.12084996700286865,0.1474839448928833,2023-10-20T11:54:02.470044Z,1697802842470
1.3433446884155273,0.24004030227661133,0.21505653858184814,2023-10-20T11:54:02.490589Z,1697802842490
1.7775793075561523,0.377361536026001,0.2556746006011963,2023-10-20T11:54:02.511114Z,1697802842511
2.13137149810791,0.5255985260009766,0.27364087104797363,2023-10-20T11:54:02.531033Z,1697802842530
2.4200210571289062,0.6800377368927002,0.2713429927825928,2023-10-20T11:54:02.552643Z,1697802842552
2.6573572158813477,0.8370373249053955,0.25087153911590576,2023-10-20T11:54:02.572305Z,1697802842572
2.829801559448242,0.9865360260009766,0.21619552373886108,2023-10-20T11:54:02.592577Z,1697802842592
2.921299934387207,1.1155598163604736,0.16962862014770508,2023-10-20T11:54:02.612581Z,1697802842612
2.934903144836426,1.2169451713562012,0.11467781662940979,2023-10-20T11:54:02.635723Z,1697802842635
2.8983230590820312,1.2922921180725098,0.053112924098968506,2023-10-20T11:54:02.652713Z,1697802842652
2.838435173034668,1.3460230827331543,-0.014650650322437286,2023-10-20T11:54:02.672782Z,1697802842672
2.7752838134765625,1.3844327926635742,-0.08725634217262268,2023-10-20T11:54:02.693877Z,1697802842693
2.7222719192504883,1.4129891395568848,-0.162095844745636,2023-10-20T11:54:02.713661Z,1697802842713
2.6889724731445312,1.4370574951171875,-0.2365817427635193,2023-10-20T11:54:02.736065Z,1697802842736
2.6626996994018555,1.454519271850586,-0.30572056770324707,2023-10-20T11:54:02.753717Z,1697802842753
2.6293764114379883,1.4612517356872559,-0.36495113372802734,2023-10-20T11:54:02.774025Z,1697802842773
2.5848121643066406,1.4558424949645996,-0.4119439125061035,2023-10-20T11:54:02.794962Z,1697802842794
2.529003143310547,1.4365582466125488,-0.44543230533599854,2023-10-20T11:54:02.814927Z,1697802842814
2.454026222229004,1.399439811706543,-0.4639430046081543,2023-10-20T11:54:02.835774Z,1697802842835
2.355471611022949,1.3444833755493164,-0.4668617248535156,2023-10-20T11:54:02.855958Z,1697802842855
2.2359275817871094,1.2735214233398438,-0.45447707176208496,2023-10-20T11:54:02.876023Z,1697802842875
2.0969438552856445,1.1868157386779785,-0.42788076400756836,2023-10-20T11:54:02.896291Z,1697802842896
1.926229476928711,1.0797200202941895,-0.3875138759613037,2023-10-20T11:54:02.919609Z,1697802842919
1.7108402252197266,0.949427604675293,-0.3344517946243286,2023-10-20T11:54:02.936596Z,1697802842936
1.4589195251464844,0.8021702766418457,-0.2733711004257202,2023-10-20T11:54:02.956908Z,1697802842956
1.1924629211425781,0.6499528884887695,-0.2111530303955078,2023-10-20T11:54:02.977160Z,1697802842977
0.9343023300170898,0.5053319931030273,-0.1541980504989624,2023-10-20T11:54:02.997180Z,1697802842997
0.7015047073364258,0.3780055046081543,-0.10678040981292725,2023-10-20T11:54:03.019389Z,1697802843019
0.5097274780273438,0.2752223014831543,-0.07106804847717285,2023-10-20T11:54:03.038086Z,1697802843038
0.36647796630859375,0.19921350479125977,-0.04662609100341797,2023-10-20T11:54:03.058166Z,1697802843058
0.2714424133300781,0.1491098403930664,-0.03163647651672363,2023-10-20T11:54:03.078205Z,1697802843078
0.22056961059570312,0.1230463981628418,-0.023931026458740234,2023-10-20T11:54:03.098417Z,1697802843098
0.21535778045654297,0.12270545959472656,-0.022387266159057617,2023-10-20T11:54:03.118493Z,1697802843118
0.2543220520019531,0.14868927001953125,-0.026249408721923828,2023-10-20T11:54:03.139037Z,1697802843138
0.3275432586669922,0.19702768325805664,-0.03476601839065552,2023-10-20T11:54:03.159344Z,1697802843159
0.41940784454345703,0.2599210739135742,-0.04710102081298828,2023-10-20T11:54:03.179732Z,1697802843179
0.5127735137939453,0.3276052474975586,-0.06215393543243408,2023-10-20T11:54:03.202317Z,1697802843202
0.5916023254394531,0.38968324661254883,-0.07836711406707764,2023-10-20T11:54:03.220645Z,1697802843220
0.6425418853759766,0.43633508682250977,-0.09369981288909912,2023-10-20T11:54:03.240340Z,1697802843240
0.6608076095581055,0.46275806427001953,-0.10651159286499023,2023-10-20T11:54:03.260608Z,1697802843260
0.6494083404541016,0.4691953659057617,-0.1157604455947876,2023-10-20T11:54:03.280738Z,1697802843280
0.6137962341308594,0.45757389068603516,-0.12054705619812012,2023-10-20T11:54:03.301844Z,1697802843301
0.558845043182373,0.4296846389770508,-0.12005472183227539,2023-10-20T11:54:03.321152Z,1697802843321
0.49072933197021484,0.38881635665893555,-0.11430478096008301,2023-10-20T11:54:03.342074Z,1697802843342
0.41695117950439453,0.34004974365234375,-0.10438323020935059,2023-10-20T11:54:03.362110Z,1697802843362
0.34569406509399414,0.2897458076477051,-0.09222745895385742,2023-10-20T11:54:03.385851Z,1697802843385
0.28353214263916016,0.2437305450439453,-0.07991671562194824,2023-10-20T11:54:03.402538Z,1697802843402
0.23478460311889648,0.20647192001342773,-0.06924700736999512,2023-10-20T11:54:03.422657Z,1697802843422
0.2018570899963379,0.18107891082763672,-0.061638593673706055,2023-10-20T11:54:03.443203Z,1697802843443
0.1860213279724121,0.16971158981323242,-0.058151960372924805,2023-10-20T11:54:03.463673Z,1697802843463
0.18620681762695312,0.17226409912109375,-0.05893349647521973,2023-10-20T11:54:03.485455Z,1697802843485
0.19919204711914062,0.18641901016235352,-0.06317281723022461,2023-10-20T11:54:03.503917Z,1697802843503
0.21879148483276367,0.20680999755859375,-0.0688776969909668,2023-10-20T11:54:03.524049Z,1697802843523
0.2380685806274414,0.22698450088500977,-0.07373309135437012,2023-10-20T11:54:03.544744Z,1697802843544
0.25054931640625,0.24067354202270508,-0.07570290565490723,2023-10-20T11:54:03.564508Z,1697802843564
0.25153064727783203,0.24313926696777344,-0.07355928421020508,2023-10-20T11:54:03.585619Z,1697802843585
0.2378840446472168,0.23108482360839844,-0.06677913665771484,2023-10-20T11:54:03.605536Z,1697802843605
0.20841503143310547,0.20313453674316406,-0.055663228034973145,2023-10-20T11:54:03.625346Z,1697802843625
0.1658787727355957,0.16182518005371094,-0.04173910617828369,2023-10-20T11:54:03.646052Z,1697802843646
0.11451339721679688,0.1114659309387207,-0.026889920234680176,2023-10-20T11:54:03.669442Z,1697802843669
0.058530330657958984,0.05663585662841797,-0.012719392776489258,2023-10-20T11:54:03.686102Z,1697802843686
0.0016007423400878906,0.00153350830078125,-3.2007694244384766E-4,2023-10-20T11:54:03.706646Z,1697802843706
-0.051672935485839844,-0.04884815216064453,0.009477376937866211,2023-10-20T11:54:03.726889Z,1697802843726
-0.09478616714477539,-0.0881509780883789,0.015986323356628418,2023-10-20T11:54:03.747080Z,1697802843747
-0.12059497833251953,-0.11011028289794922,0.018879055976867676,2023-10-20T11:54:03.768551Z,1697802843768
-0.12432146072387695,-0.1113271713256836,0.018374919891357422,2023-10-20T11:54:03.788120Z,1697802843788
-0.10413122177124023,-0.09141921997070312,0.014881610870361328,2023-10-20T11:54:03.808180Z,1697802843808
-0.060819149017333984,-0.05236005783081055,0.008645892143249512,2023-10-20T11:54:03.828170Z,1697802843828
0.0013737678527832031,0.0011610984802246094,-1.996755599975586E-4,2023-10-20T11:54:03.848375Z,1697802843848
0.07570075988769531,0.06280088424682617,-0.011526942253112793,2023-10-20T11:54:03.868507Z,1697802843868
0.15520095825195312,0.12648773193359375,-0.025113701820373535,2023-10-20T11:54:03.888622Z,1697802843888
0.23546886444091797,0.18848752975463867,-0.04076588153839111,2023-10-20T11:54:03.909077Z,1697802843909
0.31523847579956055,0.24764060974121094,-0.058513760566711426,2023-10-20T11:54:03.929316Z,1697802843929
0.3940434455871582,0.3032855987548828,-0.0783013105392456,2023-10-20T11:54:03.951922Z,1697802843951
0.4689044952392578,0.3527407646179199,-0.09937179088592529,2023-10-20T11:54:03.969591Z,1697802843969
0.5361833572387695,0.39299631118774414,-0.12047708034515381,2023-10-20T11:54:03.990114Z,1697802843990
0.5926370620727539,0.4218425750732422,-0.1401667594909668,2023-10-20T11:54:04.010601Z,1697802844010
0.6383123397827148,0.4398937225341797,-0.157609224319458,2023-10-20T11:54:04.030389Z,1697802844030
0.6766633987426758,0.4504365921020508,-0.17304039001464844,2023-10-20T11:54:04.051812Z,1697802844051
0.7146358489990234,0.45900487899780273,-0.18789339065551758,2023-10-20T11:54:04.070658Z,1697802844070
0.7577104568481445,0.4697718620300293,-0.20336484909057617,2023-10-20T11:54:04.091874Z,1697802844091
0.8064413070678711,0.48354625701904297,-0.2192230224609375,2023-10-20T11:54:04.111861Z,1697802844111
0.8568325042724609,0.4981551170349121,-0.23351573944091797,2023-10-20T11:54:04.135368Z,1697802844135
0.9026708602905273,0.5104060173034668,-0.24353313446044922,2023-10-20T11:54:04.152527Z,1697802844152
0.9404191970825195,0.5190939903259277,-0.24755430221557617,2023-10-20T11:54:04.172410Z,1697802844172
0.9687509536743164,0.5246124267578125,-0.24477005004882812,2023-10-20T11:54:04.192958Z,1697802844192
0.9899654388427734,0.5289335250854492,-0.2353980541229248,2023-10-20T11:54:04.212728Z,1697802844212
1.007314682006836,0.533848762512207,-0.21989870071411133,2023-10-20T11:54:04.235412Z,1697802844235
1.0192584991455078,0.5382494926452637,-0.1976689100265503,2023-10-20T11:54:04.253437Z,1697802844253
1.0183372497558594,0.5380430221557617,-0.16752994060516357,2023-10-20T11:54:04.273778Z,1697802844273
0.9974117279052734,0.5296025276184082,-0.12972307205200195,2023-10-20T11:54:04.294036Z,1697802844293
0.9570398330688477,0.5134353637695312,-0.08711129426956177,2023-10-20T11:54:04.314269Z,1697802844314
0.9030055999755859,0.49275636672973633,-0.043592095375061035,2023-10-20T11:54:04.334580Z,1697802844334
0.8412342071533203,0.4708375930786133,-0.0024760253727436066,2023-10-20T11:54:04.355569Z,1697802844355
0.777003288269043,0.4504270553588867,0.034339308738708496,2023-10-20T11:54:04.375149Z,1697802844375
0.7173042297363281,0.43506479263305664,0.06631028652191162,2023-10-20T11:54:04.396008Z,1697802844395
0.6693649291992188,0.42936229705810547,0.09435069561004639,2023-10-20T11:54:04.418186Z,1697802844418
0.6357564926147461,0.43644142150878906,0.12008142471313477,2023-10-20T11:54:04.436037Z,1697802844435
0.6163768768310547,0.4589118957519531,0.1450105905532837,2023-10-20T11:54:04.456421Z,1697802844456
0.6190662384033203,0.5057735443115234,0.17217469215393066,2023-10-20T11:54:04.476582Z,1697802844476
0.6568217277526855,0.5921883583068848,0.20632266998291016,2023-10-20T11:54:04.497025Z,1697802844496
0.7421426773071289,0.7347350120544434,0.25261855125427246,2023-10-20T11:54:04.517954Z,1697802844517
0.8685641288757324,0.9326324462890625,0.30856871604919434,2023-10-20T11:54:04.537369Z,1697802844537
1.01617431640625,1.1701784133911133,0.3650810718536377,2023-10-20T11:54:04.557050Z,1697802844557
1.1645288467407227,1.4271965026855469,0.41202545166015625,2023-10-20T11:54:04.577936Z,1697802844577
1.302825927734375,1.6896905899047852,0.4423065185546875,2023-10-20T11:54:04.600989Z,1697802844600
1.427476406097412,1.9414987564086914,0.45375514030456543,2023-10-20T11:54:04.618414Z,1697802844618
1.5335712432861328,2.161949634552002,0.44480276107788086,2023-10-20T11:54:04.638332Z,1697802844638
1.6141862869262695,2.332808494567871,0.41550683975219727,2023-10-20T11:54:04.658812Z,1697802844658
1.6620988845825195,2.439361572265625,0.3697030544281006,2023-10-20T11:54:04.679226Z,1697802844679
1.6704583168029785,2.4704694747924805,0.31321537494659424,2023-10-20T11:54:04.700980Z,1697802844700
1.6269092559814453,2.419351577758789,0.24826312065124512,2023-10-20T11:54:04.720206Z,1697802844720
1.5310497283935547,2.2938766479492188,0.17772585153579712,2023-10-20T11:54:04.740254Z,1697802844740
1.4028124809265137,2.1148147583007812,0.10679745674133301,2023-10-20T11:54:04.760314Z,1697802844760
1.2685132026672363,1.9096336364746094,0.041063398122787476,2023-10-20T11:54:04.780549Z,1697802844780
1.143073558807373,1.697678565979004,-0.01530911773443222,2023-10-20T11:54:04.801055Z,1697802844801
1.029252052307129,1.4927358627319336,-0.0623759925365448,2023-10-20T11:54:04.821080Z,1697802844821
0.9302592277526855,1.3059730529785156,-0.09990161657333374,2023-10-20T11:54:04.841390Z,1697802844841
0.8541407585144043,1.1470937728881836,-0.12856435775756836,2023-10-20T11:54:04.861619Z,1697802844861
0.8080415725708008,1.0242242813110352,-0.15120446681976318,2023-10-20T11:54:04.884067Z,1697802844884
0.7922244071960449,0.9379901885986328,-0.17054831981658936,2023-10-20T11:54:04.902109Z,1697802844902
0.8017892837524414,0.879889965057373,-0.18721890449523926,2023-10-20T11:54:04.922235Z,1697802844922
0.8317413330078125,0.8393731117248535,-0.20021438598632812,2023-10-20T11:54:04.943174Z,1697802844943
0.876274585723877,0.8057012557983398,-0.20780086517333984,2023-10-20T11:54:04.963006Z,1697802844962
0.9213933944702148,0.7655682563781738,-0.20675837993621826,2023-10-20T11:54:04.984305Z,1697802844984
0.9445805549621582,0.706209659576416,-0.1931743621826172,2023-10-20T11:54:05.003232Z,1697802845003
0.9195261001586914,0.6197857856750488,-0.16590666770935059,2023-10-20T11:54:05.023348Z,1697802845023
0.8367605209350586,0.5110416412353516,-0.12862062454223633,2023-10-20T11:54:05.043997Z,1697802845043
0.7090921401977539,0.39349937438964844,-0.0882570743560791,2023-10-20T11:54:05.063724Z,1697802845063
0.5559978485107422,0.28032350540161133,-0.05147409439086914,2023-10-20T11:54:05.084679Z,1697802845084
0.39171600341796875,0.17909669876098633,-0.022790908813476562,2023-10-20T11:54:05.104937Z,1697802845104
0.22206783294677734,0.09243941307067871,-0.0052039772272109985,2023-10-20T11:54:05.124837Z,1697802845124
0.05475616455078125,0.021010160446166992,5.495250225067139E-4,2023-10-20T11:54:05.145352Z,1697802845145
-0.09580612182617188,-0.03451704978942871,-0.003983795642852783,2023-10-20T11:54:05.167988Z,1697802845167
-0.21152210235595703,-0.07322096824645996,-0.014784038066864014,2023-10-20T11:54:05.185571Z,1697802845185
-0.27135181427001953,-0.09248566627502441,-0.025288045406341553,2023-10-20T11:54:05.206405Z,1697802845206
-0.2424154281616211,-0.08285832405090332,-0.026847541332244873,2023-10-20T11:54:05.226846Z,1697802845226
-0.11636638641357422,-0.04037594795227051,-0.014223456382751465,2023-10-20T11:54:05.246592Z,1697802845246
0.07683372497558594,0.027391910552978516,0.009820103645324707,2023-10-20T11:54:05.267586Z,1697802845267
0.29404544830322266,0.1090238094329834,0.03757619857788086,2023-10-20T11:54:05.286933Z,1697802845286
0.5072860717773438,0.19759297370910645,0.061831116676330566,2023-10-20T11:54:05.307900Z,1697802845307
0.7135953903198242,0.2926321029663086,0.07934796810150146,2023-10-20T11:54:05.327484Z,1697802845327
0.9053421020507812,0.38966798782348633,0.0874108076095581,2023-10-20T11:54:05.350697Z,1697802845350
1.0592775344848633,0.4775528907775879,0.0832986831665039,2023-10-20T11:54:05.367917Z,1697802845367
1.1571168899536133,0.5455799102783203,0.0673213005065918,2023-10-20T11:54:05.388802Z,1697802845388
1.1918249130249023,0.5857133865356445,0.042365312576293945,2023-10-20T11:54:05.409037Z,1697802845408
1.1593360900878906,0.5915050506591797,0.012286514043807983,2023-10-20T11:54:05.428619Z,1697802845428
1.0610780715942383,0.5599727630615234,-0.017891809344291687,2023-10-20T11:54:05.450814Z,1697802845450
0.9104633331298828,0.49541473388671875,-0.042495012283325195,2023-10-20T11:54:05.469047Z,1697802845469
0.7340192794799805,0.41037893295288086,-0.057273924350738525,2023-10-20T11:54:05.490055Z,1697802845490
0.5586709976196289,0.3196578025817871,-0.06152188777923584,2023-10-20T11:54:05.510272Z,1697802845510
0.40299415588378906,0.23518610000610352,-0.05741262435913086,2023-10-20T11:54:05.530001Z,1697802845529
0.2755727767944336,0.1636977195739746,-0.048092007637023926,2023-10-20T11:54:05.550604Z,1697802845550
0.1836261749267578,0.11074304580688477,-0.037664055824279785,2023-10-20T11:54:05.570886Z,1697802845570
0.13158226013183594,0.08023452758789062,-0.030607104301452637,2023-10-20T11:54:05.591328Z,1697802845591
0.1192617416381836,0.07318782806396484,-0.03047013282775879,2023-10-20T11:54:05.611567Z,1697802845611
0.14331340789794922,0.08812904357910156,-0.03910970687866211,2023-10-20T11:54:05.633737Z,1697802845633
0.1995229721069336,0.1225137710571289,-0.05681204795837402,2023-10-20T11:54:05.652323Z,1697802845652
0.28493690490722656,0.17420387268066406,-0.08319759368896484,2023-10-20T11:54:05.672405Z,1697802845672
0.39228057861328125,0.23816537857055664,-0.11606740951538086,2023-10-20T11:54:05.692674Z,1697802845692
0.5074396133422852,0.3052978515625,-0.15082693099975586,2023-10-20T11:54:05.712719Z,1697802845712
0.6134719848632812,0.36505746841430664,-0.1818242073059082,2023-10-20T11:54:05.733100Z,1697802845733
0.7032976150512695,0.4125041961669922,-0.20618462562561035,2023-10-20T11:54:05.753200Z,1697802845753
0.7770614624023438,0.44721174240112305,-0.2237834930419922,2023-10-20T11:54:05.773293Z,1697802845773
0.8407087326049805,0.4726696014404297,-0.23656654357910156,2023-10-20T11:54:05.793522Z,1697802845793
0.9019975662231445,0.49339914321899414,-0.24672245979309082,2023-10-20T11:54:05.816885Z,1697802845816
0.9665813446044922,0.5123867988586426,-0.25533509254455566,2023-10-20T11:54:05.834003Z,1697802845833
1.0395336151123047,0.5320234298706055,-0.2630589008331299,2023-10-20T11:54:05.854365Z,1697802845854
1.1242485046386719,0.5534911155700684,-0.2698678970336914,2023-10-20T11:54:05.874606Z,1697802845874
1.223393440246582,0.577847957611084,-0.2759416103363037,2023-10-20T11:54:05.895368Z,1697802845895
1.3428239822387695,0.6074151992797852,-0.28206753730773926,2023-10-20T11:54:05.917238Z,1697802845917
1.4893522262573242,0.6442193984985352,-0.2889077663421631,2023-10-20T11:54:05.935816Z,1697802845935
1.6614437103271484,0.6871185302734375,-0.2953537702560425,2023-10-20T11:54:05.956130Z,1697802845956
1.8482704162597656,0.7318367958068848,-0.29834842681884766,2023-10-20T11:54:05.976153Z,1697802845976
2.033872604370117,0.7726297378540039,-0.29391300678253174,2023-10-20T11:54:05.996341Z,1697802845996
2.2021474838256836,0.804497241973877,-0.27829408645629883,2023-10-20T11:54:06.017195Z,1697802846017
2.3401079177856445,0.8248271942138672,-0.24939560890197754,2023-10-20T11:54:06.036487Z,1697802846036
2.435617446899414,0.8323216438293457,-0.20735198259353638,2023-10-20T11:54:06.057621Z,1697802846057
2.4730911254882812,0.8248636722564697,-0.15379250049591064,2023-10-20T11:54:06.077425Z,1697802846077
2.442934036254883,0.8008756637573242,-0.09174814820289612,2023-10-20T11:54:06.100101Z,1697802846100
2.344249725341797,0.7598936557769775,-0.025435447692871094,2023-10-20T11:54:06.117727Z,1697802846117
2.181589126586914,0.703054666519165,0.03960689902305603,2023-10-20T11:54:06.138218Z,1697802846138
1.9621286392211914,0.6323168277740479,0.0967971682548523,2023-10-20T11:54:06.158965Z,1697802846158
1.6906661987304688,0.548722505569458,0.13937079906463623,2023-10-20T11:54:06.178721Z,1697802846178
1.3688726425170898,0.4518003463745117,0.16121327877044678,2023-10-20T11:54:06.199715Z,1697802846199
1.0020160675048828,0.34046316146850586,0.15663611888885498,2023-10-20T11:54:06.219350Z,1697802846219
0.6028690338134766,0.2138080596923828,0.12006771564483643,2023-10-20T11:54:06.239214Z,1697802846239
0.18647193908691406,0.07012486457824707,0.046140432357788086,2023-10-20T11:54:06.260283Z,1697802846260
-0.22747039794921875,-0.09230756759643555,-0.06874775886535645,2023-10-20T11:54:06.282883Z,1697802846282
-0.6210293769836426,-0.2768862247467041,-0.22698140144348145,2023-10-20T11:54:06.300136Z,1697802846300
-0.9795365333557129,-0.48780202865600586,-0.43105125427246094,2023-10-20T11:54:06.320209Z,1697802846320
-1.2788643836975098,-0.7202780246734619,-0.6739273071289062,2023-10-20T11:54:06.341126Z,1697802846341
-1.4906010627746582,-0.9525034427642822,-0.9319758415222168,2023-10-20T11:54:06.360974Z,1697802846360
-1.609269142150879,-1.1597895622253418,-1.1742949485778809,2023-10-20T11:54:06.382016Z,1697802846381
-1.6534209251403809,-1.3214714527130127,-1.3735871315002441,2023-10-20T11:54:06.401850Z,1697802846401
-1.662339687347412,-1.4419138431549072,-1.5227012634277344,2023-10-20T11:54:06.421484Z,1697802846421
-1.667088508605957,-1.532470941543579,-1.620913028717041,2023-10-20T11:54:06.442197Z,1697802846442
-1.6871747970581055,-1.5974469184875488,-1.66713285446167,2023-10-20T11:54:06.462372Z,1697802846462
-1.73248291015625,-1.6373486518859863,-1.6626543998718262,2023-10-20T11:54:06.482995Z,1697802846482
-1.802884578704834,-1.6528449058532715,-1.606428623199463,2023-10-20T11:54:06.502763Z,1697802846502
-1.8852710723876953,-1.6409780979156494,-1.4920964241027832,2023-10-20T11:54:06.523052Z,1697802846523
-1.9569153785705566,-1.598726749420166,-1.326843500137329,2023-10-20T11:54:06.543744Z,1697802846543
-2.0023627281188965,-1.5362248420715332,-1.1323308944702148,2023-10-20T11:54:06.566785Z,1697802846566
-2.0168662071228027,-1.4624500274658203,-0.9287362098693848,2023-10-20T11:54:06.584466Z,1697802846584
-2.0021605491638184,-1.3850791454315186,-0.7263631820678711,2023-10-20T11:54:06.604105Z,1697802846604
-1.95192289352417,-1.295518159866333,-0.5281026363372803,2023-10-20T11:54:06.624159Z,1697802846624
-1.864394187927246,-1.1873669624328613,-0.34347426891326904,2023-10-20T11:54:06.644992Z,1697802846644
-1.7454962730407715,-1.0627098083496094,-0.18388748168945312,2023-10-20T11:54:06.666711Z,1697802846666
-1.5968146324157715,-0.9231367111206055,-0.05578073859214783,2023-10-20T11:54:06.685559Z,1697802846685
-1.4124860763549805,-0.7676875591278076,0.03793907165527344,2023-10-20T11:54:06.705688Z,1697802846705
-1.1843342781066895,-0.5982303619384766,0.09504950046539307,2023-10-20T11:54:06.725867Z,1697802846725
-0.9070301055908203,-0.4208180904388428,0.11358988285064697,2023-10-20T11:54:06.745880Z,1697802846745
-0.5819940567016602,-0.24498915672302246,0.09419608116149902,2023-10-20T11:54:06.766497Z,1697802846766
-0.21888446807861328,-0.08255791664123535,0.04161512851715088,2023-10-20T11:54:06.787714Z,1697802846787
0.17423248291015625,0.0581669807434082,-0.03674733638763428,2023-10-20T11:54:06.806719Z,1697802846806
0.5961399078369141,0.17459559440612793,-0.13416790962219238,2023-10-20T11:54:06.827048Z,1697802846827
1.0303535461425781,0.2640540599822998,-0.24009490013122559,2023-10-20T11:54:06.848610Z,1697802846848
1.4370746612548828,0.3251802921295166,-0.34050798416137695,2023-10-20T11:54:06.867494Z,1697802846867
1.7755889892578125,0.3615924119949341,-0.42342448234558105,2023-10-20T11:54:06.888084Z,1697802846888
2.0163726806640625,0.38004088401794434,-0.48159003257751465,2023-10-20T11:54:06.908533Z,1697802846908
2.1641368865966797,0.38889408111572266,-0.5134508609771729,2023-10-20T11:54:06.928116Z,1697802846928
2.2320709228515625,0.39312314987182617,-0.5197420120239258,2023-10-20T11:54:06.948690Z,1697802846948
2.226224899291992,0.39536476135253906,-0.5027339458465576,2023-10-20T11:54:06.968999Z,1697802846968
2.1565465927124023,0.39781105518341064,-0.46767711639404297,2023-10-20T11:54:06.988723Z,1697802846988
2.0297536849975586,0.39902687072753906,-0.41895341873168945,2023-10-20T11:54:07.009193Z,1697802847009
1.8466672897338867,0.3931305408477783,-0.35923242568969727,2023-10-20T11:54:07.031460Z,1697802847031
1.6263599395751953,0.37722277641296387,-0.2958190441131592,2023-10-20T11:54:07.049431Z,1697802847049
1.4126758575439453,0.355055570602417,-0.23748302459716797,2023-10-20T11:54:07.069723Z,1697802847069
1.2421331405639648,0.3340890407562256,-0.19031846523284912,2023-10-20T11:54:07.090455Z,1697802847090
1.1294403076171875,0.3198678493499756,-0.15482628345489502,2023-10-20T11:54:07.111028Z,1697802847110
1.0535087585449219,0.3102753162384033,-0.12701714038848877,2023-10-20T11:54:07.132830Z,1697802847132
0.9937582015991211,0.30246925354003906,-0.10395562648773193,2023-10-20T11:54:07.151039Z,1697802847150
0.944035530090332,0.2961087226867676,-0.08436757326126099,2023-10-20T11:54:07.171523Z,1697802847171
0.9000062942504883,0.290302038192749,-0.06717735528945923,2023-10-20T11:54:07.191781Z,1697802847191
0.8590898513793945,0.28458309173583984,-0.05186241865158081,2023-10-20T11:54:07.211857Z,1697802847211
0.8220958709716797,0.27954792976379395,-0.038731157779693604,2023-10-20T11:54:07.232102Z,1697802847232
0.790252685546875,0.2761197090148926,-0.028166115283966064,2023-10-20T11:54:07.252324Z,1697802847252
0.7637414932250977,0.27490711212158203,-0.0202653706073761,2023-10-20T11:54:07.272649Z,1697802847272
0.7446746826171875,0.2771437168121338,-0.015003621578216553,2023-10-20T11:54:07.293318Z,1697802847293
0.7381162643432617,0.2850198745727539,-0.012186065316200256,2023-10-20T11:54:07.316349Z,1697802847316
0.7488613128662109,0.30080270767211914,-0.011800095438957214,2023-10-20T11:54:07.333298Z,1697802847333
0.7769403457641602,0.32520222663879395,-0.013996794819831848,2023-10-20T11:54:07.353458Z,1697802847353
0.8200912475585938,0.35792112350463867,-0.019077599048614502,2023-10-20T11:54:07.374085Z,1697802847374
0.8749990463256836,0.3978891372680664,-0.027565717697143555,2023-10-20T11:54:07.394223Z,1697802847394
0.9352273941040039,0.44225215911865234,-0.03993022441864014,2023-10-20T11:54:07.414876Z,1697802847414
0.9900579452514648,0.48583412170410156,-0.0560762882232666,2023-10-20T11:54:07.434372Z,1697802847434
1.0263586044311523,0.5215554237365723,-0.07491135597229004,2023-10-20T11:54:07.454920Z,1697802847454
1.0364618301391602,0.5438928604125977,-0.09457892179489136,2023-10-20T11:54:07.475499Z,1697802847475
1.0168676376342773,0.548802375793457,-0.11283361911773682,2023-10-20T11:54:07.495494Z,1697802847495
0.9695978164672852,0.5353975296020508,-0.12756597995758057,2023-10-20T11:54:07.516142Z,1697802847516
0.8995590209960938,0.505073070526123,-0.13718152046203613,2023-10-20T11:54:07.536278Z,1697802847536
0.8127202987670898,0.46087646484375,-0.14089882373809814,2023-10-20T11:54:07.557023Z,1697802847556
0.7129669189453125,0.4056720733642578,-0.13845562934875488,2023-10-20T11:54:07.576809Z,1697802847576
0.604853630065918,0.3431692123413086,-0.1301034688949585,2023-10-20T11:54:07.597410Z,1697802847597
0.4960594177246094,0.27881622314453125,-0.11695170402526855,2023-10-20T11:54:07.617278Z,1697802847617
0.3969125747680664,0.21930313110351562,-0.10135984420776367,2023-10-20T11:54:07.637690Z,1697802847637
0.31806182861328125,0.17123031616210938,-0.08684420585632324,2023-10-20T11:54:07.658075Z,1697802847658
0.2661905288696289,0.13844585418701172,-0.07679939270019531,2023-10-20T11:54:07.678066Z,1697802847677
0.24535369873046875,0.12242555618286133,-0.07408857345581055,2023-10-20T11:54:07.698344Z,1697802847698
0.25467491149902344,0.12128639221191406,-0.07988715171813965,2023-10-20T11:54:07.718375Z,1697802847718
0.28938865661621094,0.13103914260864258,-0.09365725517272949,2023-10-20T11:54:07.738904Z,1697802847738
0.34236621856689453,0.14693546295166016,-0.1135563850402832,2023-10-20T11:54:07.759469Z,1697802847759
0.40711402893066406,0.16512203216552734,-0.13736605644226074,2023-10-20T11:54:07.781497Z,1697802847781
0.47711753845214844,0.18236541748046875,-0.16233181953430176,2023-10-20T11:54:07.799705Z,1697802847799
0.5464410781860352,0.19635725021362305,-0.18563079833984375,2023-10-20T11:54:07.819700Z,1697802847819
0.6120281219482422,0.20641613006591797,-0.20535063743591309,2023-10-20T11:54:07.840683Z,1697802847840
0.6717624664306641,0.21256613731384277,-0.21992182731628418,2023-10-20T11:54:07.860935Z,1697802847860
0.7223997116088867,0.2147066593170166,-0.22731947898864746,2023-10-20T11:54:07.882221Z,1697802847882
0.7599506378173828,0.21251583099365234,-0.22536373138427734,2023-10-20T11:54:07.900726Z,1697802847900
0.7828998565673828,0.20648813247680664,-0.21352648735046387,2023-10-20T11:54:07.921262Z,1697802847921
0.7931270599365234,0.19803905487060547,-0.19330549240112305,2023-10-20T11:54:07.942042Z,1697802847941
0.7933540344238281,0.18876075744628906,-0.16692805290222168,2023-10-20T11:54:07.961489Z,1697802847961
0.7843122482299805,0.17947649955749512,-0.13636183738708496,2023-10-20T11:54:07.981987Z,1697802847981
0.7677202224731445,0.17092061042785645,-0.10383641719818115,2023-10-20T11:54:08.002226Z,1697802848002
0.7440633773803711,0.1632225513458252,-0.07101821899414062,2023-10-20T11:54:08.022604Z,1697802848022
0.7125768661499023,0.15607357025146484,-0.03924298286437988,2023-10-20T11:54:08.042885Z,1697802848042
0.6715736389160156,0.14894342422485352,-0.009764879941940308,2023-10-20T11:54:08.064317Z,1697802848064
0.616917610168457,0.141038179397583,0.015779584646224976,2023-10-20T11:54:08.082900Z,1697802848082
0.5440673828125,0.13128948211669922,0.03525710105895996,2023-10-20T11:54:08.103501Z,1697802848103
0.4571666717529297,0.1195526123046875,0.04716932773590088,2023-10-20T11:54:08.123478Z,1697802848123
0.3744487762451172,0.1083993911743164,0.0527644157409668,2023-10-20T11:54:08.143948Z,1697802848143
0.3229055404663086,0.10452008247375488,0.05735373497009277,2023-10-20T11:54:08.165224Z,1697802848165
0.3159475326538086,0.11421346664428711,0.06693494319915771,2023-10-20T11:54:08.184289Z,1697802848184
0.3494987487792969,0.1400308609008789,0.08475065231323242,2023-10-20T11:54:08.204970Z,1697802848204
0.41548633575439453,0.1828136444091797,0.11217904090881348,2023-10-20T11:54:08.224980Z,1697802848224
0.5065374374389648,0.24297761917114258,0.14953303337097168,2023-10-20T11:54:08.248781Z,1697802848248
0.6014108657836914,0.31366968154907227,0.19156670570373535,2023-10-20T11:54:08.265959Z,1697802848265
0.6854410171508789,0.3876619338989258,0.2327899932861328,2023-10-20T11:54:08.285663Z,1697802848285
0.7534503936767578,0.4588637351989746,0.2681612968444824,2023-10-20T11:54:08.305838Z,1697802848305
0.8079814910888672,0.5236501693725586,0.29659533500671387,2023-10-20T11:54:08.326494Z,1697802848326
0.8465585708618164,0.5766053199768066,0.31621861457824707,2023-10-20T11:54:08.348243Z,1697802848348
0.8477120399475098,0.6029453277587891,0.31965041160583496,2023-10-20T11:54:08.367339Z,1697802848367
0.8054685592651367,0.597419261932373,0.3049182891845703,2023-10-20T11:54:08.387123Z,1697802848387
0.7315878868103027,0.5657267570495605,0.2761967182159424,2023-10-20T11:54:08.407583Z,1697802848407
0.6358251571655273,0.5119853019714355,0.2364823818206787,2023-10-20T11:54:08.430632Z,1697802848430
0.5219287872314453,0.43627405166625977,0.18787407875061035,2023-10-20T11:54:08.447928Z,1697802848447
0.40534353256225586,0.3486604690551758,0.13786005973815918,2023-10-20T11:54:08.468367Z,1697802848468
0.30036020278930664,0.2625589370727539,0.09377145767211914,2023-10-20T11:54:08.489105Z,1697802848489
0.2136373519897461,0.18750858306884766,0.05972576141357422,2023-10-20T11:54:08.509233Z,1697802848509
0.1416463851928711,0.12371826171875,0.03442859649658203,2023-10-20T11:54:08.530656Z,1697802848530
0.07813787460327148,0.06753301620483398,0.015906214714050293,2023-10-20T11:54:08.548968Z,1697802848548
0.030439376831054688,0.025849342346191406,0.004928231239318848,2023-10-20T11:54:08.569489Z,1697802848569
0.0025606155395507812,0.0021181106567382812,3.0922889709472656E-4,2023-10-20T11:54:08.589813Z,1697802848589
-0.011215686798095703,-0.008945941925048828,-9.276270866394043E-4,2023-10-20T11:54:08.610291Z,1697802848610
-0.019333362579345703,-0.014726638793945312,-9.444057941436768E-4,2023-10-20T11:54:08.630402Z,1697802848630
-0.029630184173583984,-0.021368980407714844,-5.674511194229126E-4,2023-10-20T11:54:08.650316Z,1697802848650
-0.05217552185058594,-0.03543710708618164,3.2280758023262024E-4,2023-10-20T11:54:08.670876Z,1697802848670
-0.09251022338867188,-0.05907917022705078,0.0024074018001556396,2023-10-20T11:54:08.691329Z,1697802848691
-0.1499471664428711,-0.09006643295288086,0.005890458822250366,2023-10-20T11:54:08.714997Z,1697802848714
-0.22191810607910156,-0.12537288665771484,0.01038089394569397,2023-10-20T11:54:08.732253Z,1697802848732
-0.30437183380126953,-0.16124439239501953,0.015128105878829956,2023-10-20T11:54:08.752428Z,1697802848752
-0.37688732147216797,-0.18532180786132812,0.018313050270080566,2023-10-20T11:54:08.772325Z,1697802848772
-0.4241752624511719,-0.19133877754211426,0.01861235499382019,2023-10-20T11:54:08.792354Z,1697802848792
-0.4465465545654297,-0.18367767333984375,0.015551388263702393,2023-10-20T11:54:08.815802Z,1697802848815
-0.4528779983520508,-0.17036867141723633,0.010244250297546387,2023-10-20T11:54:08.833317Z,1697802848833
-0.44942760467529297,-0.15575766563415527,0.003566831350326538,2023-10-20T11:54:08.853463Z,1697802848853
-0.4140176773071289,-0.13248944282531738,-0.0036026760935783386,2023-10-20T11:54:08.874063Z,1697802848874
-0.3396883010864258,-0.10008478164672852,-0.008871808648109436,2023-10-20T11:54:08.893858Z,1697802848893
-0.24205970764160156,-0.0654287338256836,-0.01027756929397583,2023-10-20T11:54:08.913796Z,1697802848913
-0.13706111907958984,-0.03396296501159668,-0.007877767086029053,2023-10-20T11:54:08.934425Z,1697802848934
-0.03276538848876953,-0.007487297058105469,-0.002340376377105713,2023-10-20T11:54:08.955129Z,1697802848955
0.047804832458496094,0.010261774063110352,0.004040837287902832,2023-10-20T11:54:08.975178Z,1697802848975
0.09322643280029297,0.019289135932922363,0.00904005765914917,2023-10-20T11:54:08.996779Z,1697802848996
0.11138248443603516,0.02278459072113037,0.011962890625,2023-10-20T11:54:09.015402Z,1697802849015
0.12267398834228516,0.02533280849456787,0.014235854148864746,2023-10-20T11:54:09.035590Z,1697802849035
0.14558124542236328,0.030902624130249023,0.017853140830993652,2023-10-20T11:54:09.056654Z,1697802849056
0.16907405853271484,0.03763151168823242,0.021384119987487793,2023-10-20T11:54:09.076276Z,1697802849076
0.19029521942138672,0.04519534111022949,0.024022817611694336,2023-10-20T11:54:09.096630Z,1697802849096
0.22148990631103516,0.05669736862182617,0.026848435401916504,2023-10-20T11:54:09.117141Z,1697802849117
0.2705869674682617,0.07493114471435547,0.030176162719726562,2023-10-20T11:54:09.137155Z,1697802849137
0.33498382568359375,0.10039305686950684,0.0327417254447937,2023-10-20T11:54:09.157599Z,1697802849157
0.4045696258544922,0.13117337226867676,0.0325314998626709,2023-10-20T11:54:09.180338Z,1697802849180
0.4683856964111328,0.1642017364501953,0.027994632720947266,2023-10-20T11:54:09.199147Z,1697802849199
0.5174236297607422,0.19581031799316406,0.018684834241867065,2023-10-20T11:54:09.217977Z,1697802849217
0.5478992462158203,0.22321462631225586,0.005407467484474182,2023-10-20T11:54:09.238385Z,1697802849238
0.5596599578857422,0.2445392608642578,-0.010263025760650635,2023-10-20T11:54:09.258923Z,1697802849258
0.5549039840698242,0.2590360641479492,-0.026244759559631348,2023-10-20T11:54:09.281830Z,1697802849281
0.5394182205200195,0.2677731513977051,-0.040855467319488525,2023-10-20T11:54:09.299288Z,1697802849299
0.5192461013793945,0.27265119552612305,-0.05337458848953247,2023-10-20T11:54:09.319630Z,1697802849319
0.4998931884765625,0.27599573135375977,-0.06415832042694092,2023-10-20T11:54:09.340265Z,1697802849340
0.4838905334472656,0.2791762351989746,-0.07375884056091309,2023-10-20T11:54:09.360309Z,1697802849360
0.4732208251953125,0.2834339141845703,-0.0827721357345581,2023-10-20T11:54:09.380176Z,1697802849380
0.4728984832763672,0.2916731834411621,-0.09233379364013672,2023-10-20T11:54:09.400171Z,1697802849400
0.4883747100830078,0.30724525451660156,-0.10397231578826904,2023-10-20T11:54:09.420896Z,1697802849420
0.5227689743041992,0.33206987380981445,-0.11899387836456299,2023-10-20T11:54:09.441428Z,1697802849441
0.5739631652832031,0.3645052909851074,-0.1374223232269287,2023-10-20T11:54:09.463232Z,1697802849463
0.6373090744018555,0.40099143981933594,-0.15883326530456543,2023-10-20T11:54:09.481501Z,1697802849481
0.7080307006835938,0.43804502487182617,-0.18279671669006348,2023-10-20T11:54:09.501784Z,1697802849501
0.7832145690917969,0.473569393157959,-0.20917987823486328,2023-10-20T11:54:09.522542Z,1697802849522
0.8623332977294922,0.5069398880004883,-0.2378067970275879,2023-10-20T11:54:09.542767Z,1697802849542
0.946843147277832,0.5381875038146973,-0.2682201862335205,2023-10-20T11:54:09.563341Z,1697802849563
1.0402565002441406,0.5681209564208984,-0.3003201484680176,2023-10-20T11:54:09.582713Z,1697802849582
1.143113136291504,0.5964374542236328,-0.3334507942199707,2023-10-20T11:54:09.603359Z,1697802849603
1.2536201477050781,0.622474193572998,-0.36666154861450195,2023-10-20T11:54:09.624042Z,1697802849624
1.3685636520385742,0.6451578140258789,-0.39824414253234863,2023-10-20T11:54:09.643849Z,1697802849643
1.48785400390625,0.6645941734313965,-0.4269115924835205,2023-10-20T11:54:09.664267Z,1697802849664
1.6148605346679688,0.6818757057189941,-0.4517650604248047,2023-10-20T11:54:09.684510Z,1697802849684
1.7528457641601562,0.6979255676269531,-0.47153449058532715,2023-10-20T11:54:09.704676Z,1697802849704
1.902998924255371,0.7131426334381104,-0.48459339141845703,2023-10-20T11:54:09.724513Z,1697802849724
2.0627565383911133,0.7272024154663086,-0.4889841079711914,2023-10-20T11:54:09.746409Z,1697802849746
2.2288284301757812,0.7405955791473389,-0.4842259883880615,2023-10-20T11:54:09.765362Z,1697802849765
2.394707679748535,0.7535464763641357,-0.4700613021850586,2023-10-20T11:54:09.785249Z,1697802849785
2.547506332397461,0.764657735824585,-0.44531917572021484,2023-10-20T11:54:09.806422Z,1697802849806
2.6729345321655273,0.7715160846710205,-0.4082906246185303,2023-10-20T11:54:09.826009Z,1697802849825
2.761751174926758,0.7725787162780762,-0.35858166217803955,2023-10-20T11:54:09.846483Z,1697802849846
2.81105899810791,0.7688055038452148,-0.2987234592437744,2023-10-20T11:54:09.866300Z,1697802849866
2.816523551940918,0.7615272998809814,-0.23156404495239258,2023-10-20T11:54:09.887701Z,1697802849887
2.7707443237304688,0.7510268688201904,-0.1595238447189331,2023-10-20T11:54:09.907723Z,1697802849907
2.6657791137695312,0.7360599040985107,-0.08510109782218933,2023-10-20T11:54:09.930646Z,1697802849930
2.498690605163574,0.7148857116699219,-0.012107238173484802,2023-10-20T11:54:09.947788Z,1697802849947
2.2742652893066406,0.6855294704437256,0.053630977869033813,2023-10-20T11:54:09.967867Z,1697802849967
1.9999256134033203,0.6443648338317871,0.10646402835845947,2023-10-20T11:54:09.988370Z,1697802849988
1.6915655136108398,0.5879220962524414,0.1430184245109558,2023-10-20T11:54:10.008675Z,1697802850008
1.3701820373535156,0.5150718688964844,0.1615060567855835,2023-10-20T11:54:10.029389Z,1697802850029
1.0490779876708984,0.42606496810913086,0.16081452369689941,2023-10-20T11:54:10.049111Z,1697802850049
0.7312030792236328,0.3206636905670166,0.13966131210327148,2023-10-20T11:54:10.069441Z,1697802850069
0.41818714141845703,0.19828414916992188,0.09707927703857422,2023-10-20T11:54:10.089496Z,1697802850089
0.10736465454101562,0.055185794830322266,0.02990436553955078,2023-10-20T11:54:10.112565Z,1697802850112
-0.1984262466430664,-0.11072921752929688,-0.0655372142791748,2023-10-20T11:54:10.130480Z,1697802850130
-0.48404979705810547,-0.2915802001953125,-0.18635058403015137,2023-10-20T11:54:10.150051Z,1697802850150
-0.7379894256591797,-0.47439050674438477,-0.32472753524780273,2023-10-20T11:54:10.170773Z,1697802850170
-0.950836181640625,-0.6412091255187988,-0.46802592277526855,2023-10-20T11:54:10.191227Z,1697802850191
-1.1280326843261719,-0.7837796211242676,-0.6073997020721436,2023-10-20T11:54:10.212553Z,1697802850212
-1.2842025756835938,-0.9086103439331055,-0.7390227317810059,2023-10-20T11:54:10.231459Z,1697802850231
-1.4276108741760254,-1.0200138092041016,-0.8571698665618896,2023-10-20T11:54:10.251883Z,1697802850251
-1.5645623207092285,-1.1194469928741455,-0.9585726261138916,2023-10-20T11:54:10.272306Z,1697802850272
-1.7028264999389648,-1.2069799900054932,-1.0393867492675781,2023-10-20T11:54:10.291887Z,1697802850291
-1.8426365852355957,-1.274407148361206,-1.0859546661376953,2023-10-20T11:54:10.312542Z,1697802850312
-1.9750962257385254,-1.3118839263916016,-1.085179090499878,2023-10-20T11:54:10.333240Z,1697802850333
-2.090810775756836,-1.3240423202514648,-1.0385961532592773,2023-10-20T11:54:10.353300Z,1697802850353
-2.18809175491333,-1.32002854347229,-0.9583890438079834,2023-10-20T11:54:10.373367Z,1697802850373
-2.273805618286133,-1.3102240562438965,-0.857501745223999,2023-10-20T11:54:10.393323Z,1697802850393
-2.35044527053833,-1.2967705726623535,-0.7388672828674316,2023-10-20T11:54:10.413919Z,1697802850413
-2.407303810119629,-1.267899751663208,-0.6031554937362671,2023-10-20T11:54:10.434210Z,1697802850434
-2.435575008392334,-1.2174937725067139,-0.4562346935272217,2023-10-20T11:54:10.454435Z,1697802850454
-2.423236846923828,-1.1382598876953125,-0.3067789673805237,2023-10-20T11:54:10.474456Z,1697802850474
-2.355778694152832,-1.0247912406921387,-0.16664019227027893,2023-10-20T11:54:10.495691Z,1697802850495
-2.228649139404297,-0.8855814933776855,-0.04748274385929108,2023-10-20T11:54:10.515100Z,1697802850515
-2.0463714599609375,-0.7364778518676758,0.04227277636528015,2023-10-20T11:54:10.535448Z,1697802850535
-1.8185396194458008,-0.5896329879760742,0.09918326139450073,2023-10-20T11:54:10.556049Z,1697802850556
-1.5496187210083008,-0.44914960861206055,0.1246301531791687,2023-10-20T11:54:10.575967Z,1697802850575
-1.2410955429077148,-0.3181281089782715,0.12372678518295288,2023-10-20T11:54:10.596072Z,1697802850596
-0.8838272094726562,-0.1981745958328247,0.1004335880279541,2023-10-20T11:54:10.616207Z,1697802850616
-0.47844696044921875,-0.09323740005493164,0.0581737756729126,2023-10-20T11:54:10.636573Z,1697802850636
-0.05250835418701172,-0.008956313133239746,0.006473064422607422,2023-10-20T11:54:10.657065Z,1697802850657
0.3616905212402344,0.05502915382385254,-0.04348158836364746,2023-10-20T11:54:10.678692Z,1697802850678
0.7228412628173828,0.10126447677612305,-0.08310401439666748,2023-10-20T11:54:10.697430Z,1697802850697
1.0103254318237305,0.13522982597351074,-0.11012876033782959,2023-10-20T11:54:10.717840Z,1697802850717
1.2296247482299805,0.16117990016937256,-0.12521207332611084,2023-10-20T11:54:10.738326Z,1697802850738
1.3838748931884766,0.18071496486663818,-0.12923800945281982,2023-10-20T11:54:10.758821Z,1697802850758
1.4785194396972656,0.1959824562072754,-0.1246069073677063,2023-10-20T11:54:10.778887Z,1697802850778
1.5175542831420898,0.20864951610565186,-0.11262500286102295,2023-10-20T11:54:10.798552Z,1697802850798
1.494898796081543,0.21721899509429932,-0.09334456920623779,2023-10-20T11:54:10.818954Z,1697802850818
1.4134302139282227,0.21943271160125732,-0.0699847936630249,2023-10-20T11:54:10.839489Z,1697802850839
1.300161361694336,0.21544170379638672,-0.047524601221084595,2023-10-20T11:54:10.859816Z,1697802850859
1.182297706604004,0.20785033702850342,-0.02879372239112854,2023-10-20T11:54:10.879877Z,1697802850879
1.0905609130859375,0.2013852596282959,-0.014137864112854004,2023-10-20T11:54:10.900100Z,1697802850900
1.0409069061279297,0.19907259941101074,-0.002154262736439705,2023-10-20T11:54:10.920896Z,1697802850920
1.0329294204711914,0.2022085189819336,0.007645443081855774,2023-10-20T11:54:10.940978Z,1697802850940
1.069605827331543,0.212141752243042,0.015706852078437805,2023-10-20T11:54:10.962555Z,1697802850962
1.1421566009521484,0.22811508178710938,0.022430554032325745,2023-10-20T11:54:10.981227Z,1697802850981
1.2347564697265625,0.24844861030578613,0.02740877866744995,2023-10-20T11:54:11.001313Z,1697802851001
1.3329944610595703,0.2720329761505127,0.02967342734336853,2023-10-20T11:54:11.022029Z,1697802851021
1.4232540130615234,0.2978975772857666,0.0277106910943985,2023-10-20T11:54:11.041827Z,1697802851041
1.4969673156738281,0.3257310390472412,0.02009962499141693,2023-10-20T11:54:11.062234Z,1697802851062
1.549952507019043,0.3555002212524414,0.006142493337392807,2023-10-20T11:54:11.082088Z,1697802851082
1.5830373764038086,0.386979341506958,-0.013803370296955109,2023-10-20T11:54:11.102623Z,1697802851102
1.5972356796264648,0.41898465156555176,-0.03880786895751953,2023-10-20T11:54:11.123320Z,1697802851123
1.591506004333496,0.44954490661621094,-0.0678282380104065,2023-10-20T11:54:11.146621Z,1697802851146
1.5612602233886719,0.47572755813598633,-0.09868961572647095,2023-10-20T11:54:11.163438Z,1697802851163
1.503291130065918,0.4940810203552246,-0.1283065676689148,2023-10-20T11:54:11.184151Z,1697802851184
1.423100471496582,0.50258469581604,-0.1537184715270996,2023-10-20T11:54:11.204186Z,1697802851204
1.330702781677246,0.5009965896606445,-0.173539400100708,2023-10-20T11:54:11.224643Z,1697802851224
1.2354316711425781,0.4908933639526367,-0.1877840757369995,2023-10-20T11:54:11.246583Z,1697802851246
1.1426153182983398,0.4738647937774658,-0.19695830345153809,2023-10-20T11:54:11.265326Z,1697802851265
1.0539531707763672,0.45084142684936523,-0.20146608352661133,2023-10-20T11:54:11.285197Z,1697802851285
0.9712190628051758,0.4234592914581299,-0.2022101879119873,2023-10-20T11:54:11.305725Z,1697802851305
0.897435188293457,0.39453935623168945,-0.2005910873413086,2023-10-20T11:54:11.325471Z,1697802851325
0.8350963592529297,0.3666656017303467,-0.1977524757385254,2023-10-20T11:54:11.346811Z,1697802851346
0.7876405715942383,0.34229278564453125,-0.19520282745361328,2023-10-20T11:54:11.366085Z,1697802851366
0.7600860595703125,0.3240642547607422,-0.1949758529663086,2023-10-20T11:54:11.386328Z,1697802851386
0.754237174987793,0.3131890296936035,-0.19859695434570312,2023-10-20T11:54:11.407055Z,1697802851406
0.7684078216552734,0.30931520462036133,-0.20641875267028809,2023-10-20T11:54:11.430390Z,1697802851430
0.7974739074707031,0.31030821800231934,-0.2173781394958496,2023-10-20T11:54:11.447306Z,1697802851447
0.8357982635498047,0.31366395950317383,-0.22981691360473633,2023-10-20T11:54:11.467585Z,1697802851467
0.8814220428466797,0.318129301071167,-0.2428417205810547,2023-10-20T11:54:11.488080Z,1697802851488
0.9336910247802734,0.323030948638916,-0.2559182643890381,2023-10-20T11:54:11.507903Z,1697802851507
0.9918355941772461,0.327800989151001,-0.26843786239624023,2023-10-20T11:54:11.529753Z,1697802851529
1.0547237396240234,0.331834077835083,-0.2796006202697754,2023-10-20T11:54:11.549011Z,1697802851548
1.1196908950805664,0.3340625762939453,-0.28821229934692383,2023-10-20T11:54:11.569124Z,1697802851569
1.1843605041503906,0.33373117446899414,-0.29340386390686035,2023-10-20T11:54:11.588989Z,1697802851588
1.2472171783447266,0.33061790466308594,-0.29480409622192383,2023-10-20T11:54:11.611584Z,1697802851611
1.3074398040771484,0.3250300884246826,-0.2924504280090332,2023-10-20T11:54:11.629207Z,1697802851629
1.3651561737060547,0.31757640838623047,-0.2865777015686035,2023-10-20T11:54:11.649564Z,1697802851649
1.4216289520263672,0.30887460708618164,-0.27750062942504883,2023-10-20T11:54:11.670250Z,1697802851670
1.4764738082885742,0.29917192459106445,-0.26517045497894287,2023-10-20T11:54:11.690516Z,1697802851690
1.5268526077270508,0.288287878036499,-0.24915385246276855,2023-10-20T11:54:11.711774Z,1697802851711
1.5694475173950195,0.2760031223297119,-0.22905874252319336,2023-10-20T11:54:11.730933Z,1697802851730
1.6020326614379883,0.2624012231826782,-0.2049192190170288,2023-10-20T11:54:11.751005Z,1697802851750
1.6240425109863281,0.2480682134628296,-0.17718768119812012,2023-10-20T11:54:11.771541Z,1697802851771
1.6330280303955078,0.23328614234924316,-0.14609992504119873,2023-10-20T11:54:11.791551Z,1697802851791
1.6256999969482422,0.21813690662384033,-0.11202222108840942,2023-10-20T11:54:11.812374Z,1697802851812
1.5996017456054688,0.20273125171661377,-0.07553660869598389,2023-10-20T11:54:11.832367Z,1697802851832
1.553421974182129,0.18747997283935547,-0.03757026791572571,2023-10-20T11:54:11.852828Z,1697802851852
1.4852676391601562,0.17290222644805908,5.739210173487663E-4,2023-10-20T11:54:11.873148Z,1697802851873
1.3916444778442383,0.15910208225250244,0.03702479600906372,2023-10-20T11:54:11.894498Z,1697802851894
1.2693586349487305,0.14556670188903809,0.0692136287689209,2023-10-20T11:54:11.912943Z,1697802851912
1.1160497665405273,0.13133561611175537,0.09406715631484985,2023-10-20T11:54:11.934071Z,1697802851934
0.9313392639160156,0.1148916482925415,0.10824048519134521,2023-10-20T11:54:11.954122Z,1697802851954
0.7183589935302734,0.09458601474761963,0.10839533805847168,2023-10-20T11:54:11.974384Z,1697802851974
0.48328685760498047,0.06898033618927002,0.09130072593688965,2023-10-20T11:54:11.996560Z,1697802851996
0.23334121704101562,0.0365833044052124,0.05394411087036133,2023-10-20T11:54:12.014624Z,1697802852014
-0.02435779571533203,-0.004242539405822754,-0.0067844390869140625,2023-10-20T11:54:12.035274Z,1697802852035
-0.28360748291015625,-0.05542254447937012,-0.09392428398132324,2023-10-20T11:54:12.054969Z,1697802852054
-0.5324602127075195,-0.1176755428314209,-0.20736336708068848,2023-10-20T11:54:12.075188Z,1697802852075
-0.7495622634887695,-0.1880866289138794,-0.34003376960754395,2023-10-20T11:54:12.096187Z,1697802852096
-0.9127449989318848,-0.26077747344970703,-0.47944164276123047,2023-10-20T11:54:12.116256Z,1697802852116
-1.0139131546020508,-0.3320004940032959,-0.6148123741149902,2023-10-20T11:54:12.136905Z,1697802852136
-1.0585570335388184,-0.4031810760498047,-0.7397079467773438,2023-10-20T11:54:12.156924Z,1697802852156
-1.0569028854370117,-0.47810912132263184,-0.8491225242614746,2023-10-20T11:54:12.179386Z,1697802852179
-1.0116915702819824,-0.5523951053619385,-0.9274721145629883,2023-10-20T11:54:12.196814Z,1697802852196
-0.9173879623413086,-0.6039993762969971,-0.9448270797729492,2023-10-20T11:54:12.217711Z,1697802852217
-0.7907247543334961,-0.6164417266845703,-0.8909673690795898,2023-10-20T11:54:12.237576Z,1697802852237
-0.6482458114624023,-0.5825953483581543,-0.7740592956542969,2023-10-20T11:54:12.257975Z,1697802852257
-0.5064272880554199,-0.5100870132446289,-0.6198363304138184,2023-10-20T11:54:12.279405Z,1697802852279
-0.36901140213012695,-0.4067854881286621,-0.4484367370605469,2023-10-20T11:54:12.298079Z,1697802852298
-0.23626708984375,-0.2781095504760742,-0.2758188247680664,2023-10-20T11:54:12.318858Z,1697802852318
-0.10828399658203125,-0.13249969482421875,-0.11727428436279297,2023-10-20T11:54:12.339564Z,1697802852339
0.018254756927490234,0.022605419158935547,0.017728805541992188,2023-10-20T11:54:12.362543Z,1697802852362
0.1529831886291504,0.18690156936645508,0.1292133331298828,2023-10-20T11:54:12.379759Z,1697802852379
0.30588197708129883,0.36167001724243164,0.21950340270996094,2023-10-20T11:54:12.399865Z,1697802852399
0.4725356101989746,0.5368795394897461,0.2832062244415283,2023-10-20T11:54:12.420151Z,1697802852420
0.6458086967468262,0.706057071685791,0.31888699531555176,2023-10-20T11:54:12.440356Z,1697802852440
0.8195033073425293,0.8643941879272461,0.32729291915893555,2023-10-20T11:54:12.462373Z,1697802852462
0.9989209175109863,1.0172557830810547,0.31486034393310547,2023-10-20T11:54:12.481365Z,1697802852481
1.184502124786377,1.162217140197754,0.2846413850784302,2023-10-20T11:54:12.501023Z,1697802852500
1.3715424537658691,1.2951626777648926,0.2384711503982544,2023-10-20T11:54:12.521511Z,1697802852521
1.5611796379089355,1.4178156852722168,0.18005990982055664,2023-10-20T11:54:12.541524Z,1697802852541
1.7616181373596191,1.5347909927368164,0.113686203956604,2023-10-20T11:54:12.561996Z,1697802852561
1.9750123023986816,1.645608901977539,0.041446536779403687,2023-10-20T11:54:12.582136Z,1697802852582
2.186514377593994,1.7400121688842773,-0.03639607131481171,2023-10-20T11:54:12.602609Z,1697802852602
2.378762722015381,1.8068103790283203,-0.12020212411880493,2023-10-20T11:54:12.622805Z,1697802852622
2.549428939819336,1.8428220748901367,-0.2087610363960266,2023-10-20T11:54:12.645785Z,1697802852645
2.7068252563476562,1.8494582176208496,-0.2990453243255615,2023-10-20T11:54:12.662961Z,1697802852662
2.858816146850586,1.8288536071777344,-0.3866565227508545,2023-10-20T11:54:12.683945Z,1697802852683
2.992995262145996,1.778648853302002,-0.46527183055877686,2023-10-20T11:54:12.704099Z,1697802852704
3.0762720108032227,1.6963739395141602,-0.5319747924804688,2023-10-20T11:54:12.724101Z,1697802852724
3.0828943252563477,1.585869312286377,-0.5804500579833984,2023-10-20T11:54:12.745457Z,1697802852745
3.0066070556640625,1.4541716575622559,-0.6076276302337646,2023-10-20T11:54:12.764804Z,1697802852764
2.862274169921875,1.311790943145752,-0.6106340885162354,2023-10-20T11:54:12.785164Z,1697802852785
2.669687271118164,1.165071725845337,-0.589564323425293,2023-10-20T11:54:12.805205Z,1697802852805
2.4388551712036133,1.0206165313720703,-0.5456435680389404,2023-10-20T11:54:12.828724Z,1697802852828
2.174736976623535,0.8839349746704102,-0.4806640148162842,2023-10-20T11:54:12.846142Z,1697802852846
1.8869247436523438,0.7585887908935547,-0.4006619453430176,2023-10-20T11:54:12.865970Z,1697802852865
1.5862646102905273,0.6443028450012207,-0.31525635719299316,2023-10-20T11:54:12.885997Z,1697802852885
1.293665885925293,0.5410404205322266,-0.23533976078033447,2023-10-20T11:54:12.906498Z,1697802852906
1.046396255493164,0.4548380374908447,-0.1685636043548584,2023-10-20T11:54:12.929340Z,1697802852929
0.8737602233886719,0.39456844329833984,-0.11931049823760986,2023-10-20T11:54:12.946801Z,1697802852946
0.7822465896606445,0.3655428886413574,-0.08524036407470703,2023-10-20T11:54:12.966989Z,1697802852966
0.7564477920532227,0.364349365234375,-0.061187148094177246,2023-10-20T11:54:12.987558Z,1697802852987
0.7783870697021484,0.3860650062561035,-0.04216092824935913,2023-10-20T11:54:13.007550Z,1697802853007
0.8385248184204102,0.4273233413696289,-0.024791598320007324,2023-10-20T11:54:13.028986Z,1697802853028
0.9226322174072266,0.48137903213500977,-0.007360242307186127,2023-10-20T11:54:13.048329Z,1697802853048
1.0077247619628906,0.537205696105957,0.01001855731010437,2023-10-20T11:54:13.068426Z,1697802853068
1.0780410766601562,0.5870490074157715,0.02660273015499115,2023-10-20T11:54:13.088473Z,1697802853088
1.133458137512207,0.630772590637207,0.0421602725982666,2023-10-20T11:54:13.112504Z,1697802853112
1.1793508529663086,0.6710357666015625,0.05677655339241028,2023-10-20T11:54:13.129529Z,1697802853129
1.2163324356079102,0.7079048156738281,0.06991159915924072,2023-10-20T11:54:13.149640Z,1697802853149
1.244807243347168,0.7408652305603027,0.0807110071182251,2023-10-20T11:54:13.169912Z,1697802853169
1.2696523666381836,0.7716469764709473,0.0887221097946167,2023-10-20T11:54:13.189932Z,1697802853189
1.2991504669189453,0.8039932250976562,0.09416306018829346,2023-10-20T11:54:13.211878Z,1697802853211
1.3395709991455078,0.8405599594116211,0.09752005338668823,2023-10-20T11:54:13.230639Z,1697802853230
1.3910160064697266,0.8809847831726074,0.09864133596420288,2023-10-20T11:54:13.250779Z,1697802853250
1.4515419006347656,0.9240274429321289,0.09680032730102539,2023-10-20T11:54:13.271010Z,1697802853270
1.515700340270996,0.9667501449584961,0.09089624881744385,2023-10-20T11:54:13.291341Z,1697802853291
1.57659912109375,1.0051202774047852,0.08004173636436462,2023-10-20T11:54:13.311836Z,1697802853311
1.6253318786621094,1.0337533950805664,0.06397965550422668,2023-10-20T11:54:13.332107Z,1697802853332
1.6550273895263672,1.0486078262329102,0.042585670948028564,2023-10-20T11:54:13.352332Z,1697802853352
1.6594963073730469,1.0468297004699707,0.016063988208770752,2023-10-20T11:54:13.372586Z,1697802853372
1.6337003707885742,1.0264973640441895,-0.014549732208251953,2023-10-20T11:54:13.395041Z,1697802853394
1.5754938125610352,0.9867749214172363,-0.04685771465301514,2023-10-20T11:54:13.413222Z,1697802853413
1.4853515625,0.9278435707092285,-0.07792478799819946,2023-10-20T11:54:13.433341Z,1697802853433
1.3656797409057617,0.85113525390625,-0.10488861799240112,2023-10-20T11:54:13.453774Z,1697802853453
1.2202224731445312,0.7592301368713379,-0.12507480382919312,2023-10-20T11:54:13.473846Z,1697802853473
1.0564041137695312,0.6566891670227051,-0.13662457466125488,2023-10-20T11:54:13.495281Z,1697802853495
0.8854703903198242,0.5500693321228027,-0.13895392417907715,2023-10-20T11:54:13.513911Z,1697802853513
0.7200250625610352,0.4467287063598633,-0.13315629959106445,2023-10-20T11:54:13.534241Z,1697802853534
0.5698318481445312,0.3525400161743164,-0.12115049362182617,2023-10-20T11:54:13.554985Z,1697802853554
0.4418668746948242,0.2718014717102051,-0.10555911064147949,2023-10-20T11:54:13.578155Z,1697802853578
0.3404407501220703,0.207366943359375,-0.08952093124389648,2023-10-20T11:54:13.595135Z,1697802853595
0.26834583282470703,0.16108989715576172,-0.07633352279663086,2023-10-20T11:54:13.615588Z,1697802853615
0.22601890563964844,0.13308238983154297,-0.06861472129821777,2023-10-20T11:54:13.636207Z,1697802853636
0.21277904510498047,0.12228679656982422,-0.06818246841430664,2023-10-20T11:54:13.656239Z,1697802853656
0.22557735443115234,0.12587356567382812,-0.07557559013366699,2023-10-20T11:54:13.678152Z,1697802853678
0.25843334197998047,0.13927602767944336,-0.08978700637817383,2023-10-20T11:54:13.696778Z,1697802853696
0.30392932891845703,0.15736913681030273,-0.10872054100036621,2023-10-20T11:54:13.717229Z,1697802853717
0.35616111755371094,0.17627191543579102,-0.1304032802581787,2023-10-20T11:54:13.737302Z,1697802853737
0.4128293991088867,0.19421768188476562,-0.15398025512695312,2023-10-20T11:54:13.757294Z,1697802853757
0.4736804962158203,0.21052289009094238,-0.1793065071105957,2023-10-20T11:54:13.778144Z,1697802853778
0.539484977722168,0.22495174407958984,-0.20649385452270508,2023-10-20T11:54:13.797816Z,1697802853797
0.6107978820800781,0.23728203773498535,-0.235487699508667,2023-10-20T11:54:13.818435Z,1697802853818
0.6888246536254883,0.24764561653137207,-0.2662699222564697,2023-10-20T11:54:13.838599Z,1697802853838
0.7739124298095703,0.25600242614746094,-0.29828882217407227,2023-10-20T11:54:13.861678Z,1697802853861
0.8667402267456055,0.26244640350341797,-0.3309142589569092,2023-10-20T11:54:13.878672Z,1697802853878
0.9691781997680664,0.2674436569213867,-0.36380696296691895,2023-10-20T11:54:13.899221Z,1697802853899
1.0825204849243164,0.2715950012207031,-0.39656829833984375,2023-10-20T11:54:13.919886Z,1697802853919
1.2050743103027344,0.27524781227111816,-0.42769718170166016,2023-10-20T11:54:13.939902Z,1697802853939
1.3311166763305664,0.278552770614624,-0.4542827606201172,2023-10-20T11:54:13.961108Z,1697802853961
1.4538354873657227,0.28191423416137695,-0.47330307960510254,2023-10-20T11:54:13.980694Z,1697802853980
1.5657844543457031,0.2858635187149048,-0.4821605682373047,2023-10-20T11:54:14.000754Z,1697802854000
1.659505844116211,0.2906118631362915,-0.47902345657348633,2023-10-20T11:54:14.021009Z,1697802854020
1.727055549621582,0.2959519624710083,-0.4627342224121094,2023-10-20T11:54:14.041002Z,1697802854040
1.7613143920898438,0.3014167547225952,-0.43315672874450684,2023-10-20T11:54:14.061380Z,1697802854061
1.7576732635498047,0.3066411018371582,-0.39156031608581543,2023-10-20T11:54:14.082128Z,1697802854082
1.7117242813110352,0.3109169006347656,-0.33980798721313477,2023-10-20T11:54:14.102008Z,1697802854101
1.619584083557129,0.3130977153778076,-0.28031206130981445,2023-10-20T11:54:14.122059Z,1697802854122
1.4821338653564453,0.31171727180480957,-0.2170165777206421,2023-10-20T11:54:14.144730Z,1697802854144
1.307830810546875,0.3054466247558594,-0.15517854690551758,2023-10-20T11:54:14.162173Z,1697802854162
1.1142606735229492,0.2938389778137207,-0.10003650188446045,2023-10-20T11:54:14.182717Z,1697802854182
0.9292898178100586,0.279177188873291,-0.055306851863861084,2023-10-20T11:54:14.203189Z,1697802854203
0.7808561325073242,0.2673654556274414,-0.02186480164527893,2023-10-20T11:54:14.223256Z,1697802854223
0.6886844635009766,0.2667505741119385,0.0026756860315799713,2023-10-20T11:54:14.244632Z,1697802854244
0.6529674530029297,0.2828049659729004,0.022934526205062866,2023-10-20T11:54:14.264171Z,1697802854264
0.6650457382202148,0.31804895401000977,0.0433582067489624,2023-10-20T11:54:14.284221Z,1697802854284
0.7218990325927734,0.37661027908325195,0.06850427389144897,2023-10-20T11:54:14.304469Z,1697802854304
0.8190317153930664,0.46070098876953125,0.10126602649688721,2023-10-20T11:54:14.328127Z,1697802854328
0.9215631484985352,0.555150032043457,0.13801050186157227,2023-10-20T11:54:14.345298Z,1697802854345
1.007237434387207,0.6467070579528809,0.17233991622924805,2023-10-20T11:54:14.365709Z,1697802854365
1.0594301223754883,0.7220520973205566,0.19795238971710205,2023-10-20T11:54:14.385760Z,1697802854385
1.085444450378418,0.7809724807739258,0.21530914306640625,2023-10-20T11:54:14.406288Z,1697802854406
1.0878491401672363,0.8224811553955078,0.2252340316772461,2023-10-20T11:54:14.427938Z,1697802854427
1.0530738830566406,0.8380870819091797,0.2261730432510376,2023-10-20T11:54:14.446051Z,1697802854446
0.9872026443481445,0.8302984237670898,0.21884512901306152,2023-10-20T11:54:14.466354Z,1697802854466
0.9069371223449707,0.8075652122497559,0.20540368556976318,2023-10-20T11:54:14.486860Z,1697802854486
0.8165903091430664,0.7692756652832031,0.18506193161010742,2023-10-20T11:54:14.507020Z,1697802854506
0.7168893814086914,0.7124791145324707,0.1584872007369995,2023-10-20T11:54:14.527818Z,1697802854527
0.6269512176513672,0.6507711410522461,0.13173246383666992,2023-10-20T11:54:14.548120Z,1697802854548
0.5563716888427734,0.5942749977111816,0.10894191265106201,2023-10-20T11:54:14.568104Z,1697802854568
0.5112357139587402,0.5522632598876953,0.09166157245635986,2023-10-20T11:54:14.588649Z,1697802854588
0.48172998428344727,0.5190820693969727,0.07670211791992188,2023-10-20T11:54:14.610570Z,1697802854610
0.46232032775878906,0.4911184310913086,0.06236255168914795,2023-10-20T11:54:14.628862Z,1697802854628
0.4612255096435547,0.4755229949951172,0.04933673143386841,2023-10-20T11:54:14.649158Z,1697802854649
0.4803743362426758,0.47269582748413086,0.0375484824180603,2023-10-20T11:54:14.669257Z,1697802854669
0.5135054588317871,0.4758920669555664,0.02603459358215332,2023-10-20T11:54:14.689763Z,1697802854689
0.5544500350952148,0.48004961013793945,0.014106020331382751,2023-10-20T11:54:14.710606Z,1697802854710
0.597783088684082,0.48206329345703125,0.0017230082303285599,2023-10-20T11:54:14.730307Z,1697802854730
0.638275146484375,0.48002195358276367,-0.010144993662834167,2023-10-20T11:54:14.750522Z,1697802854750
0.6740818023681641,0.4747467041015625,-0.020310401916503906,2023-10-20T11:54:14.771197Z,1697802854771
0.6995115280151367,0.4642801284790039,-0.02782014012336731,2023-10-20T11:54:14.794349Z,1697802854794
0.7003307342529297,0.44132328033447266,-0.03254464268684387,2023-10-20T11:54:14.811804Z,1697802854811
0.6650943756103516,0.4008936882019043,-0.033681899309158325,2023-10-20T11:54:14.831803Z,1697802854831
0.6156959533691406,0.35590267181396484,-0.03144913911819458,2023-10-20T11:54:14.851797Z,1697802854851
0.567692756652832,0.3148937225341797,-0.02613997459411621,2023-10-20T11:54:14.872019Z,1697802854871
0.5353899002075195,0.28510570526123047,-0.01873081922531128,2023-10-20T11:54:14.894368Z,1697802854894
0.5109996795654297,0.26190948486328125,-0.010330215096473694,2023-10-20T11:54:14.912109Z,1697802854912
0.4919900894165039,0.24320268630981445,-0.0019020549952983856,2023-10-20T11:54:14.933193Z,1697802854933
0.4987602233886719,0.23676490783691406,0.005960442125797272,2023-10-20T11:54:14.953141Z,1697802854953
0.5313730239868164,0.2404632568359375,0.013927921652793884,2023-10-20T11:54:14.972953Z,1697802854972
0.5773391723632812,0.24743938446044922,0.022482573986053467,2023-10-20T11:54:14.993639Z,1697802854993
0.6373844146728516,0.2574765682220459,0.03293067216873169,2023-10-20T11:54:15.013649Z,1697802855013
0.7176151275634766,0.27272987365722656,0.046374499797821045,2023-10-20T11:54:15.033960Z,1697802855033
0.79144287109375,0.2847762107849121,0.06049144268035889,2023-10-20T11:54:15.054696Z,1697802855054
0.8431663513183594,0.2906532287597656,0.07151341438293457,2023-10-20T11:54:15.077590Z,1697802855077
0.8625545501708984,0.28889942169189453,0.0764613151550293,2023-10-20T11:54:15.094520Z,1697802855094
0.8732290267944336,0.28715062141418457,0.07790541648864746,2023-10-20T11:54:15.115251Z,1697802855115
0.8928337097167969,0.29041314125061035,0.07816004753112793,2023-10-20T11:54:15.135719Z,1697802855135
0.9081668853759766,0.2952256202697754,0.07640707492828369,2023-10-20T11:54:15.155754Z,1697802855155
0.9162197113037109,0.30095767974853516,0.07192766666412354,2023-10-20T11:54:15.177405Z,1697802855177
0.9274196624755859,0.31026625633239746,0.0650758147239685,2023-10-20T11:54:15.196438Z,1697802855196
0.9450807571411133,0.3235592842102051,0.0557018518447876,2023-10-20T11:54:15.216587Z,1697802855216
0.9632196426391602,0.3385648727416992,0.04317408800125122,2023-10-20T11:54:15.236800Z,1697802855236
0.9713068008422852,0.3517575263977051,0.02691742777824402,2023-10-20T11:54:15.256917Z,1697802855256
0.9609718322753906,0.3598024845123291,0.007385708391666412,2023-10-20T11:54:15.277261Z,1697802855277
0.9314346313476562,0.36132383346557617,-0.013986438512802124,2023-10-20T11:54:15.297603Z,1697802855297
0.8854207992553711,0.3562889099121094,-0.03546065092086792,2023-10-20T11:54:15.317944Z,1697802855317
0.8256454467773438,0.3449063301086426,-0.05533623695373535,2023-10-20T11:54:15.338327Z,1697802855338
0.7531023025512695,0.3266944885253906,-0.07184714078903198,2023-10-20T11:54:15.360599Z,1697802855360
0.6674022674560547,0.3006777763366699,-0.08321881294250488,2023-10-20T11:54:15.378634Z,1697802855378
0.5686101913452148,0.2661581039428711,-0.08797359466552734,2023-10-20T11:54:15.399151Z,1697802855399
0.4602079391479492,0.22409582138061523,-0.08531391620635986,2023-10-20T11:54:15.418972Z,1697802855418
0.3505058288574219,0.17777347564697266,-0.07586407661437988,2023-10-20T11:54:15.439251Z,1697802855439
0.24990272521972656,0.1320023536682129,-0.061753273010253906,2023-10-20T11:54:15.459979Z,1697802855459
0.16699600219726562,0.09172916412353516,-0.04618501663208008,2023-10-20T11:54:15.480317Z,1697802855480
0.10542774200439453,0.06011772155761719,-0.03206372261047363,2023-10-20T11:54:15.500283Z,1697802855500
0.06679630279541016,0.0394744873046875,-0.021998167037963867,2023-10-20T11:54:15.520508Z,1697802855520
0.05174541473388672,0.03162527084350586,-0.018196821212768555,2023-10-20T11:54:15.543891Z,1697802855543
0.060019493103027344,0.037815093994140625,-0.022235870361328125,2023-10-20T11:54:15.560994Z,1697802855560
0.08846235275268555,0.057215213775634766,-0.03404378890991211,2023-10-20T11:54:15.581078Z,1697802855581
0.13213157653808594,0.08726167678833008,-0.052015066146850586,2023-10-20T11:54:15.601601Z,1697802855601
0.18440485000610352,0.12358665466308594,-0.07309889793395996,2023-10-20T11:54:15.622013Z,1697802855621
0.23751592636108398,0.16052722930908203,-0.0933988094329834,2023-10-20T11:54:15.643652Z,1697802855643
0.2828364372253418,0.19164276123046875,-0.1088571548461914,2023-10-20T11:54:15.662492Z,1697802855662
0.3128995895385742,0.2113943099975586,-0.11642599105834961,2023-10-20T11:54:15.682888Z,1697802855682
0.32273006439208984,0.21614599227905273,-0.11471819877624512,2023-10-20T11:54:15.702676Z,1697802855702
0.31001949310302734,0.20444393157958984,-0.10405683517456055,2023-10-20T11:54:15.726817Z,1697802855726
0.27512168884277344,0.1772465705871582,-0.08620595932006836,2023-10-20T11:54:15.743977Z,1697802855743
0.2213592529296875,0.13810443878173828,-0.0640876293182373,2023-10-20T11:54:15.763697Z,1697802855763
0.15634632110595703,0.09359502792358398,-0.041501760482788086,2023-10-20T11:54:15.783973Z,1697802855783
0.09221267700195312,0.052486419677734375,-0.02240443229675293,2023-10-20T11:54:15.803866Z,1697802855803
0.04537010192871094,0.02434539794921875,-0.010156512260437012,2023-10-20T11:54:15.826500Z,1697802855826
0.031327247619628906,0.015731334686279297,-0.00655817985534668,2023-10-20T11:54:15.844650Z,1697802855844
0.0639200210571289,0.029863357543945312,-0.01278543472290039,2023-10-20T11:54:15.865026Z,1697802855864
0.1513528823852539,0.06550025939941406,-0.029595017433166504,2023-10-20T11:54:15.885441Z,1697802855885
0.29792022705078125,0.11905193328857422,-0.05814015865325928,2023-10-20T11:54:15.905267Z,1697802855905
0.503748893737793,0.18555378913879395,-0.09966838359832764,2023-10-20T11:54:15.926636Z,1697802855926
0.7638034820556641,0.25920534133911133,-0.15479159355163574,2023-10-20T11:54:15.946017Z,1697802855945
1.0684690475463867,0.33432817459106445,-0.22313642501831055,2023-10-20T11:54:15.965939Z,1697802855965
1.4071540832519531,0.40654850006103516,-0.3036341667175293,2023-10-20T11:54:15.986327Z,1697802855986
1.7688894271850586,0.4724609851837158,-0.3938770294189453,2023-10-20T11:54:16.009725Z,1697802856009
2.140504837036133,0.5287268161773682,-0.48934268951416016,2023-10-20T11:54:16.026657Z,1697802856026
2.507838249206543,0.5727279186248779,-0.5841038227081299,2023-10-20T11:54:16.046929Z,1697802856046
2.8538131713867188,0.6029782295227051,-0.6712746620178223,2023-10-20T11:54:16.067609Z,1697802856067
3.166717529296875,0.6211535930633545,-0.7456576824188232,2023-10-20T11:54:16.088376Z,1697802856088
3.4389801025390625,0.6312583684921265,-0.8043415546417236,2023-10-20T11:54:16.109982Z,1697802856109
3.663632392883301,0.6381494998931885,-0.8455691337585449,2023-10-20T11:54:16.128549Z,1697802856128
3.8343772888183594,0.6466467380523682,-0.8674492835998535,2023-10-20T11:54:16.148230Z,1697802856148
3.9443531036376953,0.6594176292419434,-0.8665757179260254,2023-10-20T11:54:16.168939Z,1697802856168
3.987553596496582,0.6766712665557861,-0.8393733501434326,2023-10-20T11:54:16.189338Z,1697802856189
3.9617443084716797,0.6970816850662231,-0.7850592136383057,2023-10-20T11:54:16.209606Z,1697802856209
3.867487907409668,0.7203311920166016,-0.7078349590301514,2023-10-20T11:54:16.229754Z,1697802856229
3.7106895446777344,0.7468471527099609,-0.6154196262359619,2023-10-20T11:54:16.249995Z,1697802856249
3.5016660690307617,0.7759509086608887,-0.5165611505508423,2023-10-20T11:54:16.270262Z,1697802856270
3.2484540939331055,0.80368971824646,-0.4186924695968628,2023-10-20T11:54:16.293494Z,1697802856293
2.955967903137207,0.8231821060180664,-0.3251088857650757,2023-10-20T11:54:16.310301Z,1697802856310
2.630037307739258,0.8274846076965332,-0.23703062534332275,2023-10-20T11:54:16.330843Z,1697802856330
2.2781801223754883,0.8107137680053711,-0.15682923793792725,2023-10-20T11:54:16.351520Z,1697802856351
1.9081707000732422,0.7672698497772217,-0.08865517377853394,2023-10-20T11:54:16.371648Z,1697802856371
1.5310096740722656,0.6932721138000488,-0.03736868500709534,2023-10-20T11:54:16.393866Z,1697802856393
1.1579809188842773,0.5869908332824707,-0.00410451740026474,2023-10-20T11:54:16.412161Z,1697802856412
0.7959394454956055,0.448514461517334,0.014159411191940308,2023-10-20T11:54:16.432806Z,1697802856432
0.45220470428466797,0.2812509536743164,0.018611878156661987,2023-10-20T11:54:16.452451Z,1697802856452
0.13920307159423828,0.0948190689086914,0.009316742420196533,2023-10-20T11:54:16.476389Z,1697802856476
-0.14037418365478516,-0.10379266738891602,-0.013528108596801758,2023-10-20T11:54:16.493721Z,1697802856493
-0.37709617614746094,-0.2987380027770996,-0.04748678207397461,2023-10-20T11:54:16.513475Z,1697802856513
-0.5795326232910156,-0.48497581481933594,-0.08979570865631104,2023-10-20T11:54:16.533706Z,1697802856533
-0.7574357986450195,-0.6598453521728516,-0.1369624137878418,2023-10-20T11:54:16.553931Z,1697802856553
-0.9147820472717285,-0.8187804222106934,-0.18432092666625977,2023-10-20T11:54:16.576564Z,1697802856576
-1.0583205223083496,-0.9653549194335938,-0.23043906688690186,2023-10-20T11:54:16.594431Z,1697802856594
-1.1862411499023438,-1.099029541015625,-0.27205073833465576,2023-10-20T11:54:16.614306Z,1697802856614
-1.2976045608520508,-1.2156968116760254,-0.30179643630981445,2023-10-20T11:54:16.635277Z,1697802856635
