ACC_X,ACC_Y,ACC_Z,DATE,UNIX_TIMESTAMP,norm,Line_Number
0.124424934387207,0.1550440788269043,-0.059023380279541,2023-10-21T15:00:07.251243Z,1697900407251,0.2073740342862803,0
0.1216864585876464,0.1506829261779785,-0.0584883689880371,2023-10-21T15:00:07.271539Z,1697900407271,0.2023211006100003,1
0.1205344200134277,0.1481490135192871,-0.058671236038208,2023-10-21T15:00:07.291647Z,1697900407291,0.1997973737389018,2
0.1208829879760742,0.1473197937011718,-0.0595538616180419,2023-10-21T15:00:07.312390Z,1697900407312,0.199655906077933,3
0.1223640441894531,0.1477189064025879,-0.0609645843505859,2023-10-21T15:00:07.332264Z,1697900407332,0.2012722414149916,4
0.1245689392089843,0.1488199234008789,-0.0627129077911377,2023-10-21T15:00:07.352511Z,1697900407352,0.2039551397251729,5
0.1273345947265625,0.1503686904907226,-0.0647006034851074,2023-10-21T15:00:07.372743Z,1697900407372,0.207390959748514,6
0.1308798789978027,0.15256929397583,-0.067018985748291,2023-10-21T15:00:07.395800Z,1697900407395,0.2118926063870383,7
0.1351723670959472,0.1553430557250976,-0.0696282386779785,2023-10-21T15:00:07.413273Z,1697900407413,0.217373239865743,8
0.1399259567260742,0.158360481262207,-0.0723693370819091,2023-10-21T15:00:07.433561Z,1697900407433,0.2233710731965533,9
0.1446943283081054,0.1611409187316894,-0.0750057697296142,2023-10-21T15:00:07.453813Z,1697900407453,0.2291914261637172,10
0.1489930152893066,0.1631879806518554,-0.0772812366485595,2023-10-21T15:00:07.474033Z,1697900407473,0.2340974693843582,11
0.1528253555297851,0.16453218460083,-0.0791974067687988,2023-10-21T15:00:07.495586Z,1697900407495,0.2381148006765421,12
0.1563620567321777,0.1653823852539062,-0.0808565616607666,2023-10-21T15:00:07.514665Z,1697900407514,0.2415330405998102,13
0.1599221229553222,0.1660661697387695,-0.0824370384216308,2023-10-21T15:00:07.534900Z,1697900407534,0.244844692501129,14
0.2165884971618652,0.2194862365722656,-0.110145092010498,2023-10-21T15:00:13.228950Z,1697900413228,0.3274396531293864,15
0.2261757850646972,0.2266645431518554,-0.1194386482238769,2023-10-21T15:00:13.249180Z,1697900413249,0.3417570651229005,16
0.2399063110351562,0.2370738983154297,-0.1310205459594726,2023-10-21T15:00:13.269452Z,1697900413269,0.361836226489955,17
0.2578291893005371,0.2504539489746094,-0.1448450088500976,2023-10-21T15:00:13.291521Z,1697900413291,0.3875347055440755,18
0.2807097434997558,0.2671895027160644,-0.1612544059753418,2023-10-21T15:00:13.309991Z,1697900413309,0.4197513238857226,19
0.3097023963928222,0.2878899574279785,-0.1807866096496582,2023-10-21T15:00:13.330296Z,1697900413330,0.4598695468803712,20
0.3458881378173828,0.3129487037658691,-0.2039306163787841,2023-10-21T15:00:13.350525Z,1697900413350,0.5090807316802958,21
0.3892979621887207,0.3417286872863769,-0.2304911613464355,2023-10-21T15:00:13.370747Z,1697900413370,0.5669722872747746,22
0.4391803741455078,0.3729143142700195,-0.259775161743164,2023-10-21T15:00:13.391425Z,1697900413391,0.6320028650890391,23
0.4943947792053222,0.4050235748291015,-0.2908267974853515,2023-10-21T15:00:13.411371Z,1697900413411,0.7021755620985465,24
0.554542064666748,0.4373092651367187,-0.3231430053710937,2023-10-21T15:00:13.431649Z,1697900413431,0.7766451549965012,25
0.6193146705627441,0.4692187309265136,-0.3562769889831543,2023-10-21T15:00:13.451827Z,1697900413451,0.8547807739446595,26
0.6883354187011719,0.4999995231628418,-0.3895988464355469,2023-10-21T15:00:13.474Z,1697900413473,0.9357309618397244,27
0.7611446380615234,0.5287389755249023,-0.4223470687866211,2023-10-21T15:00:13.492428Z,1697900413492,1.0184709670882042,28
0.8370561599731445,0.5543766021728516,-0.4536080360412597,2023-10-21T15:00:13.512779Z,1697900413512,1.1017062595569254,29
0.9156618118286132,0.576289176940918,-0.4828882217407226,2023-10-21T15:00:13.532965Z,1697900413532,1.1847897719833744,30
0.9972162246704102,0.5944428443908691,-0.5100791454315186,2023-10-21T15:00:13.553136Z,1697900413553,1.2680627857474414,31
1.0827021598815918,0.609276294708252,-0.5352840423583984,2023-10-21T15:00:13.574751Z,1697900413574,1.3527714427460495,32
1.1726408004760742,0.6210212707519531,-0.5579943656921387,2023-10-21T15:00:13.593737Z,1697900413593,1.43948309396523,33
1.2667980194091797,0.6295127868652344,-0.5772557258605957,2023-10-21T15:00:13.613980Z,1697900413613,1.527837603884882,34
1.3650436401367188,0.6347384452819824,-0.5923941135406494,2023-10-21T15:00:13.634167Z,1697900413634,1.61776630548244,35
1.467111587524414,0.6367926597595215,-0.6030855178833008,2023-10-21T15:00:13.654381Z,1697900413654,1.70927863253847,36
1.5709857940673828,0.6354928016662598,-0.6086657047271729,2023-10-21T15:00:13.674703Z,1697900413674,1.8006447196052262,37
1.6730432510375977,0.6304752826690674,-0.6080074310302734,2023-10-21T15:00:13.695031Z,1697900413694,1.8884506448639653,38
1.7684974670410156,0.6212503910064697,-0.5997593402862549,2023-10-21T15:00:13.715310Z,1697900413715,1.9680565554670384,39
1.853902816772461,0.607633113861084,-0.5830380916595459,2023-10-21T15:00:13.735497Z,1697900413735,2.036199172827498,40
1.9253005981445312,0.5894730091094971,-0.5570437908172607,2023-10-21T15:00:13.757983Z,1697900413757,2.089152604902849,41
1.9792509078979488,0.5669965744018555,-0.5215785503387451,2023-10-21T15:00:13.776048Z,1697900413776,2.1239028828954867,42
2.0135631561279297,0.5408024787902832,-0.4774119853973388,2023-10-21T15:00:13.796354Z,1697900413796,2.138884313978344,43
2.02718448638916,0.5114090442657471,-0.4260249137878418,2023-10-21T15:00:13.816576Z,1697900413816,2.133661964693945,44
2.0162296295166016,0.4784660339355469,-0.3689062595367431,2023-10-21T15:00:13.836789Z,1697900413836,2.104804858626105,45
1.9744834899902344,0.4413628578186035,-0.3077443838119507,2023-10-21T15:00:13.857805Z,1697900413857,2.046483039332019,46
1.894622802734375,0.3998818397521972,-0.2450584173202514,2023-10-21T15:00:13.877419Z,1697900413877,1.9518080536528604,47
1.7719974517822266,0.3543291091918945,-0.1837477684020996,2023-10-21T15:00:13.897704Z,1697900413897,1.816394045667453,48
1.6066522598266602,0.3052186965942383,-0.1267517209053039,2023-10-21T15:00:13.917984Z,1697900413917,1.6402914178612458,49
1.4003067016601562,0.2530566453933716,-0.0765088200569152,2023-10-21T15:00:13.941483Z,1697900413941,1.4250439024951456,50
1.1576433181762695,0.1987119913101196,-0.0357778072357177,2023-10-21T15:00:13.958397Z,1697900413958,1.1751189552973744,51
0.8824653625488281,0.1432830095291137,-0.0069984942674636,2023-10-21T15:00:13.978793Z,1697900413978,0.8940492804315467,52
0.5758457183837891,0.0879487991333007,0.00815249979496,2023-10-21T15:00:13.998996Z,1697900413998,0.5825802484661136,53
0.2346582412719726,0.0335297584533691,0.008501797914505,2023-10-21T15:00:14.019239Z,1697900414019,0.2371940460183932,54
-0.1350221633911132,-0.017948031425476,-0.0079938769340515,2023-10-21T15:00:14.041482Z,1697900414041,0.1364441955793763,55
-0.5225849151611328,-0.0643047094345092,-0.0441812276840209,2023-10-21T15:00:14.059736Z,1697900414059,0.5283768258441056,56
-0.9136981964111328,-0.1033072471618652,-0.1041688323020935,2023-10-21T15:00:14.079996Z,1697900414079,0.9254014950627114,57
-1.2926244735717771,-0.133014976978302,-0.1909102201461792,2023-10-21T15:00:14.100234Z,1697900414100,1.3133993017865948,58
-1.6591033935546875,-0.1558157801628112,-0.3081303834915161,2023-10-21T15:00:14.120451Z,1697900414120,1.694652460265247,59
-2.001039505004883,-0.1747492551803589,-0.4526742696762085,2023-10-21T15:00:14.140957Z,1697900414140,2.059031422101947,60
-2.308833122253418,-0.1958732008934021,-0.6193656921386719,2023-10-21T15:00:14.161041Z,1697900414161,2.39847671613487,61
-2.571049690246582,-0.2234541773796081,-0.8013215065002441,2023-10-21T15:00:14.181340Z,1697900414181,2.702285039718287,62
-2.78261137008667,-0.2600716352462768,-0.9908246994018556,2023-10-21T15:00:14.201574Z,1697900414201,2.9651807495227107,63
-2.949524402618408,-0.310590386390686,-1.1802573204040527,2023-10-21T15:00:14.224369Z,1697900414224,3.192047608060874,64
-3.079785823822021,-0.3810544610023498,-1.3638818264007568,2023-10-21T15:00:14.242104Z,1697900414242,3.3897576401936376,65
-3.178950309753418,-0.4747008681297302,-1.529953956604004,2023-10-21T15:00:14.262402Z,1697900414262,3.5597507069193366,66
-3.2521743774414062,-0.592545747756958,-1.6630241870880127,2023-10-21T15:00:14.282666Z,1697900414282,3.700459173036638,67
-3.3011341094970703,-0.7329435348510742,-1.7549552917480469,2023-10-21T15:00:14.302946Z,1697900414302,3.809797988109012,68
-3.323507308959961,-0.887047290802002,-1.7967982292175293,2023-10-21T15:00:14.324137Z,1697900414324,3.880855267250855,69
-3.316333293914795,-1.048020601272583,-1.798006296157837,2023-10-21T15:00:14.343474Z,1697900414343,3.915257378262983,70
-3.276872158050537,-1.2052319049835205,-1.766430377960205,2023-10-21T15:00:14.363724Z,1697900414363,3.912895521883714,71
-3.2011308670043945,-1.3498320579528809,-1.7059447765350342,2023-10-21T15:00:14.383974Z,1697900414383,3.8703401650181584,72
-3.08382511138916,-1.4717364311218262,-1.616048812866211,2023-10-21T15:00:14.407511Z,1697900414407,3.7798940733692343,73
-2.9231176376342773,-1.5572748184204102,-1.4940261840820312,2023-10-21T15:00:14.424536Z,1697900414424,3.633433062856344,74
-2.722553253173828,-1.5990612506866455,-1.344451904296875,2023-10-21T15:00:14.444779Z,1697900414444,3.4317406695119645,75
-2.486449718475342,-1.5965025424957275,-1.1793572902679443,2023-10-21T15:00:14.465036Z,1697900414465,3.181530479000567,76
-2.2203660011291504,-1.5509064197540283,-1.0109107494354248,2023-10-21T15:00:14.485338Z,1697900414485,2.89089544002003,77
-1.932636260986328,-1.4637236595153809,-0.8472611904144287,2023-10-21T15:00:14.507502Z,1697900414507,2.568155251048267,78
-1.6325130462646484,-1.3350367546081543,-0.6889007091522217,2023-10-21T15:00:14.525816Z,1697900414525,2.218559480710262,79
-1.3281164169311523,-1.1683950424194336,-0.5379314422607422,2023-10-21T15:00:14.546130Z,1697900414546,1.8488943800674704,80
-1.0260906219482422,-0.968198299407959,-0.3956489562988281,2023-10-21T15:00:14.566327Z,1697900414566,1.4651989653446205,81
-0.7315382957458496,-0.7390198707580566,-0.2644932270050049,2023-10-21T15:00:14.586570Z,1697900414586,1.0729656633133784,82
-0.4499049186706543,-0.486307144165039,-0.1500406265258789,2023-10-21T15:00:14.607294Z,1697900414607,0.6792799598974508,83
-0.1851515769958496,-0.213442325592041,-0.0558147430419921,2023-10-21T15:00:14.627192Z,1697900414627,0.2880173924592618,84
0.0559711456298828,0.0686049461364746,0.015033483505249,2023-10-21T15:00:14.647485Z,1697900414647,0.0898076466889803,85
0.2672524452209472,0.3469691276550293,0.063089370727539,2023-10-21T15:00:14.667668Z,1697900414667,0.4424835745212067,86
0.4471449851989746,0.612945556640625,0.0909678936004638,2023-10-21T15:00:14.690584Z,1697900414690,0.7641439987726019,87
0.5986113548278809,0.8642187118530273,0.1019157171249389,2023-10-21T15:00:14.708186Z,1697900414708,1.0562179459954597,88
0.725311279296875,1.0989437103271484,0.0997211337089538,2023-10-21T15:00:14.728494Z,1697900414728,1.320491588330296,89
0.8291659355163574,1.312211990356445,0.0877836942672729,2023-10-21T15:00:14.748750Z,1697900414748,1.5547097585193028,90
0.9087910652160645,1.4963693618774414,0.0697866380214691,2023-10-21T15:00:14.768962Z,1697900414768,1.7521109103673744,91
0.9611430168151855,1.6431961059570312,0.0493250489234924,2023-10-21T15:00:14.790514Z,1697900414790,1.904290498284401,92
0.986851692199707,1.7503061294555664,0.0278107225894927,2023-10-21T15:00:14.809546Z,1697900414809,2.009532593788441,93
0.9871454238891602,1.819598197937012,0.0063241384923458,2023-10-21T15:00:14.829834Z,1697900414829,2.070128905302421,94
0.9698357582092284,1.8586311340332031,-0.0166133865714073,2023-10-21T15:00:14.850052Z,1697900414850,2.096513080071811,95
0.9422369003295898,1.8766469955444336,-0.0421115905046463,2023-10-21T15:00:14.870283Z,1697900414870,2.100330380745728,96
0.9083976745605468,1.8763971328735352,-0.069968044757843,2023-10-21T15:00:14.890560Z,1697900414890,2.085892629712821,97
0.8696484565734863,1.856971740722656,-0.0994080901145935,2023-10-21T15:00:14.910902Z,1697900414910,2.052928262809836,98
0.8257193565368652,1.8188648223876955,-0.1292141079902649,2023-10-21T15:00:14.931069Z,1697900414931,2.0016937786741504,99
0.7781591415405273,1.7648944854736328,-0.1584547162055969,2023-10-21T15:00:14.951339Z,1697900414951,1.935327386130348,100
0.7290942668914795,1.6975345611572266,-0.1862874031066894,2023-10-21T15:00:14.973801Z,1697900414973,1.856853530274673,101
0.6805229187011719,1.6191482543945312,-0.211559772491455,2023-10-21T15:00:14.991878Z,1697900414991,1.7690421277977115,102
0.6346158981323242,1.532719612121582,-0.2330927848815918,2023-10-21T15:00:15.012203Z,1697900415012,1.6752011801298032,103
0.5928871631622314,1.4415950775146484,-0.2501003742218017,2023-10-21T15:00:15.032423Z,1697900415032,1.5786898849815023,104
0.5559811592102051,1.347855567932129,-0.2621681690216064,2023-10-21T15:00:15.052644Z,1697900415052,1.4814053564944696,105
0.5221459865570068,1.249345779418945,-0.2682986259460449,2023-10-21T15:00:15.073634Z,1697900415073,1.3803932267705668,106
0.4896192550659179,1.1449098587036133,-0.2677836418151855,2023-10-21T15:00:15.093403Z,1697900415093,1.273677226895353,107
0.4576101303100586,1.0361528396606443,-0.2607126235961914,2023-10-21T15:00:15.113513Z,1697900415113,1.1623213026532788,108
0.4258584976196289,0.9261360168457032,-0.2480340003967285,2023-10-21T15:00:15.133719Z,1697900415133,1.049096872098319,109
0.3933453559875488,0.8172521591186523,-0.2308471202850341,2023-10-21T15:00:15.156916Z,1697900415156,0.9359017328784917,110
0.3592667579650879,0.7118949890136719,-0.2104158401489257,2023-10-21T15:00:15.174201Z,1697900415174,0.8247071629051729,111
0.3237991333007812,0.6125850677490234,-0.1881320476531982,2023-10-21T15:00:15.194535Z,1697900415194,0.7179832945895036,112
0.2876567840576172,0.5207405090332031,-0.1652102470397949,2023-10-21T15:00:15.214787Z,1697900415214,0.6174232979807939,113
0.2521319389343261,0.4377117156982422,-0.1429853439331054,2023-10-21T15:00:15.235016Z,1697900415234,0.5249827323540747,114
0.2187342643737793,0.3649740219116211,-0.1226675510406494,2023-10-21T15:00:15.256815Z,1697900415256,0.4428295870420055,115
0.1891703605651855,0.3041133880615234,-0.1051852703094482,2023-10-21T15:00:15.275594Z,1697900415275,0.3732751253495104,116
0.1639909744262695,0.254793643951416,-0.0906574726104736,2023-10-21T15:00:15.295911Z,1697900415295,0.3162777545630377,117
0.1417989730834961,0.2136287689208984,-0.0780746936798095,2023-10-21T15:00:15.316065Z,1697900415316,0.2680295832019084,118
0.1214919090270996,0.1780142784118652,-0.0666713714599609,2023-10-21T15:00:15.336286Z,1697900415336,0.2255979588779521,119
0.1043572425842285,0.1489534378051757,-0.0570189952850341,2023-10-21T15:00:15.356688Z,1697900415356,0.1906009615324083,120
0.0924940109252929,0.1285696029663086,-0.0501506328582763,2023-10-21T15:00:15.376891Z,1697900415376,0.166133593352001,121
0.0871763229370117,0.1178236007690429,-0.0467054843902587,2023-10-21T15:00:15.397166Z,1697900415397,0.153829497987641,122
0.0869278907775878,0.1140727996826171,-0.0458250045776367,2023-10-21T15:00:15.417432Z,1697900415417,0.1505622557848119,123
0.0881729125976562,0.1123189926147461,-0.0455434322357177,2023-10-21T15:00:15.439879Z,1697900415439,0.1498806953471817,124
0.0875582695007324,0.1083650588989257,-0.0441005229949951,2023-10-21T15:00:15.457926Z,1697900415457,0.1461310804605324,125
0.0845484733581543,0.1018004417419433,-0.041306734085083,2023-10-21T15:00:15.478232Z,1697900415478,0.138629075474177,126
0.0812830924987793,0.0953273773193359,-0.0383312702178955,2023-10-21T15:00:15.498552Z,1697900415498,0.1310096800593966,127
0.0808939933776855,0.0925612449645996,-0.0367100238800048,2023-10-21T15:00:15.518685Z,1697900415518,0.1282928216513151,128
0.0846853256225586,0.0947909355163574,-0.0369520187377929,2023-10-21T15:00:15.539807Z,1697900415539,0.1323721176104061,129
0.0916380882263183,0.1007075309753418,-0.0385029315948486,2023-10-21T15:00:15.559316Z,1697900415559,0.141499193461735,130
0.0998568534851074,0.1082124710083007,-0.04052734375,2023-10-21T15:00:15.579596Z,1697900415579,0.1527213006135659,131
0.1070084571838378,0.1149063110351562,-0.0421445369720459,2023-10-21T15:00:15.599821Z,1697900415599,0.1625743898071324,132
0.1121330261230468,0.1199002265930175,-0.0430879592895507,2023-10-21T15:00:15.623150Z,1697900415623,0.1697246361619515,133
0.1160087585449218,0.1240792274475097,-0.043752908706665,2023-10-21T15:00:15.640456Z,1697900415640,0.1754081063217962,134
0.1209926605224609,0.1299009323120117,-0.0450618267059326,2023-10-21T15:00:15.660677Z,1697900415660,0.1831503326284416,135
0.1284165382385254,0.1387257575988769,-0.0475189685821533,2023-10-21T15:00:15.680864Z,1697900415680,0.194919715497588,136
0.1373891830444336,0.1495313644409179,-0.0508232116699218,2023-10-21T15:00:15.701084Z,1697900415701,0.2093284868660383,137
0.1457810401916504,0.1599621772766113,-0.0542478561401367,2023-10-21T15:00:15.723195Z,1697900415723,0.2231206842366583,138
0.1519370079040527,0.1681494712829589,-0.0572211742401123,2023-10-21T15:00:15.741651Z,1697900415741,0.2337378057674712,139
-1.0887088775634766,-0.4051170349121094,-0.1592718362808227,2023-10-21T15:00:19.554387Z,1697900419554,1.1725077184794006,140
-1.0685439109802246,-0.4040243625640869,-0.1872625350952148,2023-10-21T15:00:19.571468Z,1697900419571,1.1576221457317226,141
-1.0271291732788086,-0.3965024948120117,-0.2061147689819336,2023-10-21T15:00:19.591771Z,1697900419591,1.1201302892900602,142
-0.9683609008789062,-0.3831872940063476,-0.2152411937713623,2023-10-21T15:00:19.612026Z,1697900419611,1.063430349451733,143
-0.8985710144042969,-0.365410566329956,-0.2158763408660888,2023-10-21T15:00:19.632217Z,1697900419632,0.9937591984273042,144
-0.8295803070068359,-0.3475358486175537,-0.2123723030090332,2023-10-21T15:00:19.653825Z,1697900419653,0.9241680837018988,145
-0.7688055038452148,-0.3324220180511474,-0.207587718963623,2023-10-21T15:00:19.672791Z,1697900419672,0.8629362443960806,146
-0.7130565643310547,-0.318047285079956,-0.2012367248535156,2023-10-21T15:00:19.693101Z,1697900419693,0.8062877643323803,147
-0.6506867408752441,-0.2979116439819336,-0.1891326904296875,2023-10-21T15:00:19.713342Z,1697900419713,0.7402133185508334,148
-0.5779180526733398,-0.2695715427398681,-0.1700248718261718,2023-10-21T15:00:19.733537Z,1697900419733,0.6599746580743869,149
-0.5017499923706055,-0.2368607521057129,-0.1473186016082763,2023-10-21T15:00:19.753815Z,1697900419753,0.5740721567118585,150
-0.4264650344848633,-0.2028195858001709,-0.1237449645996093,2023-10-21T15:00:19.774161Z,1697900419774,0.4881813456965424,151
-0.3508119583129883,-0.1674823760986328,-0.0999283790588378,2023-10-21T15:00:19.794445Z,1697900419794,0.4013789448144539,152
-0.2733335494995117,-0.1306068897247314,-0.0760095119476318,2023-10-21T15:00:19.814645Z,1697900419814,0.3123248866678532,153
-0.1970710754394531,-0.0941348075866699,-0.0532019138336181,2023-10-21T15:00:19.837022Z,1697900419836,0.2247861526202219,154
-0.1261720657348632,-0.0603561401367187,-0.0328590869903564,2023-10-21T15:00:19.855277Z,1697900419855,0.1436731478803387,155
-0.0594186782836914,-0.0286002159118652,-0.0148146152496337,2023-10-21T15:00:19.875499Z,1697900419875,0.0675871622734732,156
0.0049142837524414,0.0023951530456542,0.0011637210845947,2023-10-21T15:00:19.895749Z,1697900419895,0.0055893818687173,157
0.0636186599731445,0.0316352844238281,0.0141749382019042,2023-10-21T15:00:19.915863Z,1697900419915,0.0724503553502871,158
0.1062517166137695,0.0543403625488281,0.02207612991333,2023-10-21T15:00:19.936930Z,1697900419936,0.1213658015969123,159
0.1225271224975586,0.0650477409362793,0.023599624633789,2023-10-21T15:00:19.956479Z,1697900419956,0.1407161917879416,160
0.1157293319702148,0.0642967224121093,0.0205379724502563,2023-10-21T15:00:19.976767Z,1697900419976,0.1339744569072011,161
0.0992670059204101,0.0580062866210937,0.0161099433898925,2023-10-21T15:00:19.996944Z,1697900419996,0.116095641726969,162
0.086893081665039,0.0534629821777343,0.0126662254333496,2023-10-21T15:00:20.020177Z,1697900420020,0.1028062807970033,163
0.0814447402954101,0.0526623725891113,0.0103566646575927,2023-10-21T15:00:20.037573Z,1697900420037,0.0975388728217166,164
0.0761852264404296,0.0515942573547363,0.0081679224967956,2023-10-21T15:00:20.057836Z,1697900420057,0.0923735410043371,165
0.0672483444213867,0.0474529266357421,0.0058652758598327,2023-10-21T15:00:20.078062Z,1697900420078,0.0825137657280681,166
0.0555696487426757,0.0405726432800293,0.0037817955017089,2023-10-21T15:00:20.098271Z,1697900420098,0.068908832680068,167
0.0418176651000976,0.0313448905944824,0.0020915865898132,2023-10-21T15:00:20.120147Z,1697900420120,0.0523029063749489,168
0.0299944877624511,0.0228891372680664,0.0009843111038208,2023-10-21T15:00:20.138914Z,1697900420138,0.0377432215021097,169
0.0286345481872558,0.0220332145690917,0.000443585216999,2023-10-21T15:00:20.159240Z,1697900420159,0.0361330411393872,170
0.0425477027893066,0.0326743125915527,-0.0001035220921039,2023-10-21T15:00:20.179447Z,1697900420179,0.0536463273002096,171
0.0689678192138671,0.0524263381958007,-0.0014568865299224,2023-10-21T15:00:20.199692Z,1697900420199,0.0866441200665007,172
0.0966811180114746,0.0724391937255859,-0.0038381814956665,2023-10-21T15:00:20.220002Z,1697900420219,0.1208693799303831,173
0.1212444305419921,0.0894145965576171,-0.0069837272167205,2023-10-21T15:00:20.240251Z,1697900420240,0.1508109891912752,174
0.1497449874877929,0.1085948944091796,-0.0112502574920654,2023-10-21T15:00:20.260472Z,1697900420260,0.185318592329798,175
0.1874971389770507,0.1335821151733398,-0.0173956155776977,2023-10-21T15:00:20.280697Z,1697900420280,0.2308721855488225,176
0.2341909408569336,0.1639275550842285,-0.0259521007537841,2023-10-21T15:00:20.303470Z,1697900420303,0.2870385890936671,177
0.2866458892822265,0.1973404884338379,-0.0369024276733398,2023-10-21T15:00:20.321267Z,1697900420321,0.3499584595146833,178
0.3424892425537109,0.2321290969848632,-0.04990816116333,2023-10-21T15:00:20.341546Z,1697900420341,0.4167416747611493,179
0.3999061584472656,0.2669286727905273,-0.0643402338027954,2023-10-21T15:00:20.361778Z,1697900420361,0.4850933081455157,180
0.4558906555175781,0.2996439933776855,-0.0792933702468872,2023-10-21T15:00:20.381968Z,1697900420381,0.5512805557251983,181
0.5087509155273438,0.3293013572692871,-0.0940898656845092,2023-10-21T15:00:20.403290Z,1697900420403,0.6132860513445859,182
0.5597753524780273,0.356940746307373,-0.1087300777435302,2023-10-21T15:00:20.422574Z,1697900420422,0.6727387096209629,183
0.6094207763671875,0.383035659790039,-0.1231194734573364,2023-10-21T15:00:20.442864Z,1697900420442,0.7302522879684719,184
0.6541099548339844,0.4057264328002929,-0.136520504951477,2023-10-21T15:00:20.463094Z,1697900420463,0.7817362851742101,185
0.6887331008911133,0.4225111007690429,-0.1479518413543701,2023-10-21T15:00:20.486564Z,1697900420486,0.8214369494345294,186
0.708958625793457,0.4314188957214355,-0.1565637588500976,2023-10-21T15:00:20.503740Z,1697900420503,0.8445453257568367,187
0.7138490676879883,0.4324598312377929,-0.1622123718261718,2023-10-21T15:00:20.523947Z,1697900420523,0.8502439947725021,188
0.7048587799072266,0.4269361495971679,-0.1651182174682617,2023-10-21T15:00:20.544165Z,1697900420544,0.8404548775425458,189
0.6847000122070312,0.416684627532959,-0.1657130718231201,2023-10-21T15:00:20.564368Z,1697900420564,0.818474805789185,190
0.6553525924682617,0.4029326438903808,-0.1641886234283447,2023-10-21T15:00:20.586525Z,1697900420586,0.7866381887695632,191
0.6192846298217773,0.3867998123168945,-0.1608533859252929,2023-10-21T15:00:20.604918Z,1697900420604,0.7476639347363974,192
0.5802211761474609,0.3699631690979004,-0.1562845706939697,2023-10-21T15:00:20.625216Z,1697900420625,0.7056587183447129,193
0.5413951873779297,0.3538532257080078,-0.1509926319122314,2023-10-21T15:00:20.645426Z,1697900420645,0.66416837409781,194
0.5051965713500977,0.3394489288330078,-0.1453208923339843,2023-10-21T15:00:20.665636Z,1697900420665,0.6257533961062586,195
0.4717297554016113,0.3264317512512207,-0.1391551494598388,2023-10-21T15:00:20.686406Z,1697900420686,0.5902972183378412,196
0.3265919685363769,0.3882918357849121,-0.2853484153747558,2023-10-21T15:00:23.950965Z,1697900423950,0.5821138907521165,197
0.3110265731811523,0.3623828887939453,-0.2679004669189453,2023-10-21T15:00:23.968668Z,1697900423968,0.5475669342563013,198
0.2967309951782226,0.3361444473266601,-0.2492303848266601,2023-10-21T15:00:23.988996Z,1697900423988,0.5129894323364266,199
0.2868304252624511,0.3136420249938965,-0.2325797080993652,2023-10-21T15:00:24.009239Z,1697900424009,0.484495957999751,200
0.283689022064209,0.2977585792541504,-0.2203187942504882,2023-10-21T15:00:24.029460Z,1697900424029,0.466561897136046,201
0.2898426055908203,0.2907695770263672,-0.2144174575805664,2023-10-21T15:00:24.050589Z,1697900424050,0.4631744045768098,202
0.3076410293579101,0.2940435409545898,-0.2161293029785156,2023-10-21T15:00:24.070018Z,1697900424069,0.4773012492414901,203
0.3388800621032715,0.3078031539916992,-0.2258462905883789,2023-10-21T15:00:24.090354Z,1697900424090,0.5104792112034391,204
0.3853797912597656,0.3317990303039551,-0.2436151504516601,2023-10-21T15:00:24.110537Z,1697900424110,0.563876335335728,205
0.4494428634643554,0.3657317161560058,-0.2695717811584472,2023-10-21T15:00:24.133987Z,1697900424133,0.6390833442661404,206
0.531980037689209,0.4078593254089355,-0.302950382232666,2023-10-21T15:00:24.151056Z,1697900424151,0.7356160166267199,207
0.6311807632446289,0.4544811248779297,-0.3416140079498291,2023-10-21T15:00:24.171415Z,1697900424171,0.8494953673728459,208
0.7430386543273926,0.5011210441589355,-0.3827676773071289,2023-10-21T15:00:24.191666Z,1697900424191,0.9745459648034558,209
0.8644237518310547,0.5446920394897461,-0.4245009422302246,2023-10-21T15:00:24.211830Z,1697900424211,1.1063990647897008,210
0.994192123413086,0.5837459564208984,-0.465977668762207,2023-10-21T15:00:24.234011Z,1697900424233,1.2435081454013204,211
1.1309318542480469,0.6171002388000488,-0.5063281059265137,2023-10-21T15:00:24.252393Z,1697900424252,1.3842643224944915,212
1.2720985412597656,0.6434426307678223,-0.5441956520080566,2023-10-21T15:00:24.272684Z,1697900424272,1.5259102284961306,213
1.4147205352783203,0.6621379852294922,-0.5783593654632568,2023-10-21T15:00:24.292911Z,1697900424292,1.665641155843902,214
1.5547761917114258,0.6732745170593262,-0.607454776763916,2023-10-21T15:00:24.313118Z,1697900424313,1.7998969102277642,215
1.6862773895263672,0.6769511699676514,-0.6296219825744629,2023-10-21T15:00:24.333782Z,1697900424333,1.9230751836289264,216
1.802220344543457,0.6735279560089111,-0.6430211067199707,2023-10-21T15:00:24.353708Z,1697900424353,2.0285744308502105,217
1.8963623046875,0.6639194488525391,-0.6464657783508301,2023-10-21T15:00:24.373948Z,1697900424373,2.1106626987235764,218
1.962804794311524,0.6492514610290527,-0.6388599872589111,2023-10-21T15:00:24.394158Z,1697900424394,2.163855864779611,219
1.996394157409668,0.6307814121246338,-0.6193251609802246,2023-10-21T15:00:24.417165Z,1697900424417,2.183354867318775,220
1.993544578552246,0.6096298694610596,-0.5877563953399658,2023-10-21T15:00:24.434726Z,1697900424434,2.165946939487944,221
1.951510429382324,0.5865139961242676,-0.5451745986938477,2023-10-21T15:00:24.455046Z,1697900424455,2.1094091510891477,222
1.8688621520996087,0.5610594749450684,-0.4934403896331787,2023-10-21T15:00:24.475305Z,1697900424475,2.012688971524752,223
1.7435274124145508,0.5311293601989746,-0.43408203125,2023-10-21T15:00:24.495579Z,1697900424495,1.873609736567484,224
1.5764827728271484,0.4936363697052002,-0.3687357902526855,2023-10-21T15:00:24.516956Z,1697900424516,1.6926136244074654,225
1.3745298385620115,0.4466011524200439,-0.3000679016113281,2023-10-21T15:00:24.536133Z,1697900424536,1.4760845544946422,226
1.1492595672607422,0.3898763656616211,-0.2317290306091308,2023-10-21T15:00:24.556396Z,1697900424556,1.235515874875313,227
0.917250633239746,0.325563907623291,-0.1682088375091552,2023-10-21T15:00:24.576583Z,1697900424576,0.9877422716183828,228
0.6962623596191406,0.2578606605529785,-0.1134943962097168,2023-10-21T15:00:24.596801Z,1697900424596,0.7511021046796768,229
0.5020961761474609,0.1926784515380859,-0.0707708597183227,2023-10-21T15:00:24.617115Z,1697900424617,0.5424334709199712,230
0.3373012542724609,0.1330056190490722,-0.0396299362182617,2023-10-21T15:00:24.637418Z,1697900424637,0.3647371144770788,231
0.195108413696289,0.0785212516784668,-0.0181686282157897,2023-10-21T15:00:24.657638Z,1697900424657,0.211099453129275,232
0.0673274993896484,0.0275588035583496,-0.0045714974403381,2023-10-21T15:00:24.677828Z,1697900424677,0.0728929243238177,233
-0.0484275817871093,-0.0201528072357177,0.0020373463630676,2023-10-21T15:00:24.700145Z,1697900424700,0.0524930195114575,234
-0.145085334777832,-0.0614266395568847,0.0023149251937866,2023-10-21T15:00:24.718427Z,1697900424718,0.1575701281763134,235
-0.2161512374877929,-0.093212604522705,-0.0022430196404457,2023-10-21T15:00:24.738733Z,1697900424738,0.235403862004254,236
-0.2615766525268554,-0.1150653362274169,-0.009684532880783,2023-10-21T15:00:24.758952Z,1697900424758,0.2859303532775118,237
-0.2900657653808594,-0.1306517124176025,-0.0185888409614563,2023-10-21T15:00:24.779215Z,1697900424779,0.318674698104393,238
-0.3185501098632812,-0.1480591297149658,-0.0292379856109619,2023-10-21T15:00:24.800128Z,1697900424800,0.3524918980465343,239
-0.36126708984375,-0.1751036643981933,-0.0437687635421752,2023-10-21T15:00:24.819748Z,1697900424819,0.4038451536812817,240
-0.4156303405761719,-0.2120962142944336,-0.0633487701416015,2023-10-21T15:00:24.840067Z,1697900424840,0.4708996186067136,241
-0.4670219421386719,-0.2521686553955078,-0.0865194797515869,2023-10-21T15:00:24.860246Z,1697900424860,0.537758445381791,242
-0.502018928527832,-0.2867994308471679,-0.1096845865249633,2023-10-21T15:00:24.883490Z,1697900424883,0.5884790791996298,243
-0.5161285400390625,-0.3109002113342285,-0.1295074224472046,2023-10-21T15:00:24.900795Z,1697900424900,0.6162952082561091,244
-0.5167860984802246,-0.3269400596618652,-0.1456854343414306,2023-10-21T15:00:24.921109Z,1697900424921,0.6286349655987707,245
-0.5135941505432129,-0.3399639129638672,-0.1597156524658203,2023-10-21T15:00:24.941327Z,1697900424941,0.6362888520416581,246
-0.5111656188964844,-0.3524398803710937,-0.1726586818695068,2023-10-21T15:00:24.961579Z,1697900424961,0.6444495167526564,247
-0.5099549293518066,-0.3642377853393554,-0.1846067905426025,2023-10-21T15:00:24.983032Z,1697900424982,0.6533015087641884,248
-0.5060982704162598,-0.3720641136169433,-0.1936686038970947,2023-10-21T15:00:25.002133Z,1697900425002,0.657323886752445,249
-0.4967141151428222,-0.3737416267395019,-0.198063850402832,2023-10-21T15:00:25.022440Z,1697900425022,0.6524086177974671,250
-0.483367919921875,-0.3710007667541504,-0.1981637477874755,2023-10-21T15:00:25.042628Z,1697900425042,0.6407456483495974,251
-0.4689273834228515,-0.3668785095214844,-0.1956512928009033,2023-10-21T15:00:25.062856Z,1697900425062,0.6267153740312844,252
-0.4571313858032226,-0.3654737472534179,-0.1930463314056396,2023-10-21T15:00:25.083237Z,1697900425083,0.6162848772175137,253
-0.4509544372558594,-0.3707432746887207,-0.1923944950103759,2023-10-21T15:00:25.103488Z,1697900425103,0.6146756233314955,254
-0.4498581886291504,-0.3840875625610351,-0.1944217681884765,2023-10-21T15:00:25.123708Z,1697900425123,0.622651965014414,255
-0.4495587348937988,-0.4029579162597656,-0.1973683834075927,2023-10-21T15:00:25.143961Z,1697900425143,0.6351632996046384,256
-0.442842960357666,-0.4203224182128906,-0.1977691650390625,2023-10-21T15:00:25.166532Z,1697900425166,0.6417892687096921,257
-0.4251942634582519,-0.4292092323303222,-0.1927618980407714,2023-10-21T15:00:25.184476Z,1697900425184,0.6341670727274246,258
-0.3973774909973144,-0.4266514778137207,-0.1821398735046386,2023-10-21T15:00:25.204760Z,1697900425204,0.6108316358803285,259
-0.3653254508972168,-0.4163951873779297,-0.1686248779296875,2023-10-21T15:00:25.225042Z,1697900425225,0.5790353932201018,260
-0.3348355293273926,-0.4039726257324219,-0.1548910140991211,2023-10-21T15:00:25.245260Z,1697900425245,0.5470831200921453,261
-0.3074593544006347,-0.3910169601440429,-0.1414909362792968,2023-10-21T15:00:25.266583Z,1697900425266,0.517151044452136,262
-0.2814798355102539,-0.3744258880615234,-0.1272146701812744,2023-10-21T15:00:25.285882Z,1697900425285,0.4853959371058543,263
-0.2543759346008301,-0.3490519523620605,-0.1106665134429931,2023-10-21T15:00:25.306084Z,1697900425306,0.4458603579030547,264
-0.2253155708312988,-0.3129057884216308,-0.0916621685028076,2023-10-21T15:00:25.326293Z,1697900425326,0.3963320476840518,265
-0.1955561637878418,-0.2697606086730957,-0.0721204280853271,2023-10-21T15:00:25.349865Z,1697900425349,0.3409022665432237,266
-0.167177677154541,-0.226025104522705,-0.0542582273483276,2023-10-21T15:00:25.366869Z,1697900425366,0.286320936796928,267
-0.1415166854858398,-0.1861963272094726,-0.0393474102020263,2023-10-21T15:00:25.387222Z,1697900425387,0.2371587300244323,268
-0.1177854537963867,-0.1503515243530273,-0.0272274017333984,2023-10-21T15:00:25.407448Z,1697900425407,0.1929256991861156,269
-0.0910167694091796,-0.1123957633972168,-0.0167953968048095,2023-10-21T15:00:25.427609Z,1697900425427,0.1455985758761325,270
-0.0553336143493652,-0.0658826828002929,-0.0076913237571716,2023-10-21T15:00:25.449683Z,1697900425449,0.0863799353499753,271
-0.007880687713623,-0.0090193748474121,-0.000755488872528,2023-10-21T15:00:25.468270Z,1697900425468,0.0120010468257686,272
0.0511932373046875,0.0562047958374023,0.0028858482837677,2023-10-21T15:00:25.488531Z,1697900425488,0.0760792661713758,273
0.1188344955444336,0.1252274513244629,0.0025517642498016,2023-10-21T15:00:25.508737Z,1697900425508,0.1726559104036328,274
0.1917200088500976,0.1943302154541015,-0.0016241744160652,2023-10-21T15:00:25.529039Z,1697900425528,0.2729898026931643,275
0.2686104774475097,0.2623805999755859,-0.0090832114219665,2023-10-21T15:00:25.549880Z,1697900425549,0.3756030784856052,276
0.3480367660522461,0.3280930519104004,-0.0193155407905578,2023-10-21T15:00:25.569558Z,1697900425569,0.4786937761784858,277
0.4293479919433594,0.3910622596740722,-0.032107651233673,2023-10-21T15:00:25.589852Z,1697900425589,0.5816358744050522,278
0.5102801322937012,0.4497385025024414,-0.0472354292869567,2023-10-21T15:00:25.610059Z,1697900425610,0.6818223521026124,279
0.5873541831970215,0.5018415451049805,-0.0641407966613769,2023-10-21T15:00:25.633015Z,1697900425632,0.7752057241202174,280
0.657203197479248,0.5452680587768555,-0.081904649734497,2023-10-21T15:00:25.650555Z,1697900425650,0.857870427481539,281
0.7165899276733398,0.5783634185791016,-0.0995190143585205,2023-10-21T15:00:25.670876Z,1697900425670,0.9262339891260084,282
0.7621078491210938,0.5997319221496582,-0.1159883737564086,2023-10-21T15:00:25.691101Z,1697900425691,0.9766985486750556,283
0.7929315567016602,0.6097497940063477,-0.1305009126663208,2023-10-21T15:00:25.711367Z,1697900425711,1.0087446421720634,284
0.8098049163818359,0.6098847389221191,-0.1424236297607422,2023-10-21T15:00:25.732802Z,1697900425732,1.02373233204804,285
0.8139748573303223,0.6020669937133789,-0.1511983871459961,2023-10-21T15:00:25.751956Z,1697900425751,1.0236702035130918,286
0.8068180084228516,0.5880298614501953,-0.1565427780151367,2023-10-21T15:00:25.772203Z,1697900425772,1.0105642275586688,287
0.7872467041015625,0.5674781799316406,-0.1579384803771972,2023-10-21T15:00:25.792432Z,1697900425792,0.9832260276259772,288
0.7557401657104492,0.5408964157104492,-0.1554417610168457,2023-10-21T15:00:25.812647Z,1697900425812,0.9422708059069254,289
0.7147135734558105,0.5100765228271484,-0.1498404741287231,2023-10-21T15:00:25.832938Z,1697900425832,0.8907557010249945,290
0.6684560775756836,0.4780783653259277,-0.1425453424453735,2023-10-21T15:00:25.853231Z,1697900425853,0.8340932955571867,291
0.6212387084960938,0.4475588798522949,-0.134895920753479,2023-10-21T15:00:25.873514Z,1697900425873,0.7774595766369236,292
0.5751895904541016,0.4193687438964844,-0.1275705099105835,2023-10-21T15:00:25.893713Z,1697900425893,0.7231787077361435,293
0.5293993949890137,0.3922405242919922,-0.1205106973648071,2023-10-21T15:00:25.916124Z,1697900425916,0.6698053273085717,294
0.4822950363159179,0.364387035369873,-0.1134859323501586,2023-10-21T15:00:25.934237Z,1697900425934,0.6150329019182652,295
0.433903694152832,0.3352055549621582,-0.1064696311950683,2023-10-21T15:00:25.954563Z,1697900425954,0.5585436081845148,296
0.3861169815063476,0.3056211471557617,-0.0997719764709472,2023-10-21T15:00:25.974772Z,1697900425974,0.5024391070421332,297
0.3414602279663086,0.2772846221923828,-0.0937814712524414,2023-10-21T15:00:25.995038Z,1697900425995,0.4497519464520953,298
0.3016896247863769,0.2513909339904785,-0.0887224674224853,2023-10-21T15:00:26.015889Z,1697900426015,0.4025986930205859,299
0.2792978286743164,0.3297529220581054,-0.1654999256134033,2023-10-21T14:57:27.158Z,1697900247157,0.4627466824149999,300
0.2756133079528808,0.3236541748046875,-0.1674611568450927,2023-10-21T14:57:27.178366Z,1697900247178,0.4569003824042276,301
0.2708463668823242,0.315709114074707,-0.1686809062957763,2023-10-21T14:57:27.198545Z,1697900247198,0.448868853131909,302
0.2669339179992676,0.3082509040832519,-0.1703693866729736,2023-10-21T14:57:27.218720Z,1697900247218,0.4419254058796655,303
0.2637629508972168,0.3014287948608398,-0.1724429130554199,2023-10-21T14:57:27.241278Z,1697900247241,0.4360811517370418,304
0.2603201866149902,0.2943296432495117,-0.1741359233856201,2023-10-21T14:57:27.259378Z,1697900247259,0.4297904818257504,305
0.2563228607177734,0.286684513092041,-0.1750755310058593,2023-10-21T14:57:27.279682Z,1697900247279,0.4225409572223115,306
0.2527475357055664,0.2795472145080566,-0.1757831573486328,2023-10-21T14:57:27.299885Z,1697900247299,0.4158457410529825,307
0.251497745513916,0.2749557495117187,-0.1775684356689453,2023-10-21T14:57:27.320031Z,1697900247319,0.4127739448342759,308
0.2541995048522949,0.2746038436889648,-0.1816082000732422,2023-10-21T14:57:27.341112Z,1697900247341,0.4159401370026077,309
0.2608270645141601,0.2784023284912109,-0.1879258155822754,2023-10-21T14:57:27.360646Z,1697900247360,0.4252701803026698,310
0.2685422897338867,0.2833547592163086,-0.1944766044616699,2023-10-21T14:57:27.380938Z,1697900247380,0.4361490922024162,311
0.2733068466186523,0.2853589057922363,-0.1983203887939453,2023-10-21T14:57:27.401159Z,1697900247401,0.4421055463743421,312
0.2714262008666992,0.2808270454406738,-0.1968884468078613,2023-10-21T14:57:27.424516Z,1697900247424,0.4373797805732222,313
0.2625112533569336,0.2695269584655761,-0.1901092529296875,2023-10-21T14:57:27.441703Z,1697900247441,0.4215429604775965,314
0.2488007545471191,0.2538304328918457,-0.1798543930053711,2023-10-21T14:57:27.462028Z,1697900247461,0.3983457126775787,315
0.3136491775512695,0.3843488693237304,-0.3500003814697265,2023-10-21T14:57:40.450971Z,1697900260450,0.6071244740232202,316
0.3100953102111816,0.3702130317687988,-0.3356890678405761,2023-10-21T14:57:40.471317Z,1697900260471,0.5881359881643781,317
0.5065507888793945,0.403693675994873,-0.3889789581298828,2023-10-21T14:57:59.945054Z,1697900279945,0.7555573542891364,318
0.5189719200134277,0.4067826271057129,-0.3977212905883789,2023-10-21T14:57:59.968312Z,1697900279968,0.7700559619045455,319
0.5317244529724121,0.4081106185913086,-0.4049925804138183,2023-10-21T14:57:59.985504Z,1697900279985,0.7831373832770561,320
0.5455684661865234,0.4083847999572754,-0.4116568565368652,2023-10-21T14:58:00.005890Z,1697900280005,0.7961686150980035,321
0.5599150657653809,0.4073166847229004,-0.4176030158996582,2023-10-21T14:58:00.026060Z,1697900280026,0.8085814995491769,322
0.5723233222961426,0.4033188819885254,-0.4212594032287597,2023-10-21T14:58:00.046192Z,1697900280046,0.8171166322020493,323
0.5806970596313477,0.3952527046203613,-0.4214324951171875,2023-10-21T14:58:00.068269Z,1697900280068,0.8191697769784367,324
0.584925651550293,0.3834924697875976,-0.4184684753417969,2023-10-21T14:58:00.086882Z,1697900280086,0.8150584991767243,325
0.5864887237548828,0.3694753646850586,-0.4137582778930664,2023-10-21T14:58:00.107110Z,1697900280107,0.8072651241852482,326
0.5859036445617676,0.3540220260620117,-0.4078807830810547,2023-10-21T14:58:00.127473Z,1697900280127,0.7968572073179913,327
0.5802812576293945,0.3359966278076172,-0.399014949798584,2023-10-21T14:58:00.147655Z,1697900280147,0.7802775160267075,328
0.5653996467590332,0.3137741088867187,-0.384521484375,2023-10-21T14:58:00.168142Z,1697900280168,0.7523215561904679,329
0.5405902862548828,0.2877295017242431,-0.3641748428344726,2023-10-21T14:58:00.188280Z,1697900280188,0.7124952209728359,330
0.5104398727416992,0.2607898712158203,-0.3411555290222168,2023-10-21T14:58:00.208477Z,1697900280208,0.6670437134069662,331
0.4824857711791992,0.2369492053985595,-0.3203573226928711,2023-10-21T14:58:00.228689Z,1697900280228,0.6257525545551849,332
0.4624204635620117,0.2188317775726318,-0.3053212165832519,2023-10-21T14:58:00.251485Z,1697900280251,0.5957693155008746,333
0.4515743255615234,0.2067451477050781,-0.296661376953125,2023-10-21T14:58:00.269198Z,1697900280269,0.5785074763403352,334
0.4481587409973144,0.1995656490325927,-0.2930045127868652,2023-10-21T14:58:00.289505Z,1697900280289,0.5714230918676337,335
0.4518709182739258,0.1969177722930908,-0.2941126823425293,2023-10-21T14:58:00.309797Z,1697900280309,0.5739914683523719,336
0.4647164344787597,0.1994976997375488,-0.3012762069702148,2023-10-21T14:58:00.330044Z,1697900280330,0.5886663312621032,337
0.4893865585327148,0.2083265781402588,-0.3161721229553222,2023-10-21T14:58:00.350304Z,1697900280350,0.6187600327802362,338
0.5256433486938477,0.2233197689056396,-0.3385834693908691,2023-10-21T14:58:00.370498Z,1697900280370,0.6639363033867841,339
0.567481517791748,0.2421724796295166,-0.3646454811096191,2023-10-21T14:58:00.390828Z,1697900280390,0.716693176902641,340
0.6053295135498047,0.2610535621643066,-0.3882298469543457,2023-10-21T14:58:00.411066Z,1697900280411,0.76504587859769,341
0.6304225921630859,0.2761192321777344,-0.4038066864013672,2023-10-21T14:58:00.431263Z,1697900280431,0.7979563365689242,342
0.6386289596557617,0.285085916519165,-0.4088287353515625,2023-10-21T14:58:00.451660Z,1697900280451,0.8100999091209249,343
0.630427360534668,0.2874729633331299,-0.4036803245544433,2023-10-21T14:58:00.471842Z,1697900280471,0.801895982026734,344
0.608029842376709,0.2836422920227051,-0.3897795677185058,2023-10-21T14:58:00.492154Z,1697900280492,0.77593901207206,345
0.5718011856079102,0.2732138633728027,-0.3672170639038086,2023-10-21T14:58:00.512409Z,1697900280512,0.7324280053519514,346
0.5219955444335938,0.2556996345520019,-0.3360090255737304,2023-10-21T14:58:00.534525Z,1697900280534,0.6713893928157929,347
0.4620141983032226,0.2321710586547851,-0.298250675201416,2023-10-21T14:58:00.552893Z,1697900280552,0.5969204177851128,348
0.3984608650207519,0.2055175304412841,-0.2580623626708984,2023-10-21T14:58:00.573190Z,1697900280573,0.5173052283701145,349
0.3376989364624023,0.1788887977600097,-0.2194457054138183,2023-10-21T14:58:00.593392Z,1697900280593,0.4406792385357263,350
0.2835893630981445,0.1544489860534668,-0.1848793029785156,2023-10-21T14:58:00.613632Z,1697900280613,0.3720991438114001,351
0.2378625869750976,0.1333703994750976,-0.1555523872375488,2023-10-21T14:58:00.634489Z,1697900280634,0.3139471594296297,352
0.2031722068786621,0.1174726486206054,-0.1332836151123047,2023-10-21T14:58:00.654228Z,1697900280654,0.2698949626786152,353
0.1825270652770996,0.1089863777160644,-0.1201138496398925,2023-10-21T14:58:00.674499Z,1697900280674,0.2441751358383034,354
0.1759910583496093,0.1086525917053222,-0.1161470413208007,2023-10-21T14:58:00.694728Z,1697900280694,0.2372095561120479,355
0.1802706718444824,0.1151537895202636,-0.1192207336425781,2023-10-21T14:58:00.718698Z,1697900280718,0.2448907791208415,356
0.190225601196289,0.1257100105285644,-0.1258974075317382,2023-10-21T14:58:00.735290Z,1697900280735,0.2604591010519577,357
0.2020349502563476,0.1379814147949218,-0.1336040496826172,2023-10-21T14:58:00.755577Z,1697900280755,0.2787598142585985,358
0.2142262458801269,0.1508674621582031,-0.1413383483886718,2023-10-21T14:58:00.775830Z,1697900280775,0.2977085895421679,359
0.2271337509155273,0.1644349098205566,-0.1493630409240722,2023-10-21T14:58:00.796053Z,1697900280796,0.3177072526190383,360
0.2403597831726074,0.1783180236816406,-0.1575279235839843,2023-10-21T14:58:00.817650Z,1697900280817,0.3382087959311386,361
0.2526178359985351,0.1916027069091797,-0.1651768684387207,2023-10-21T14:58:00.836722Z,1697900280836,0.3575063163452224,362
0.2624502182006836,0.2033047676086425,-0.1715841293334961,2023-10-21T14:58:00.856880Z,1697900280856,0.3737031696482176,363
0.2702674865722656,0.2138338088989257,-0.1772079467773437,2023-10-21T14:58:00.877158Z,1697900280877,0.3875204104655055,364
0.2799835205078125,0.2263455390930175,-0.184755802154541,2023-10-21T14:58:00.897362Z,1697900280897,0.404669965840097,365
0.2978053092956543,0.2461380958557129,-0.1985836029052734,2023-10-21T14:58:00.917614Z,1697900280917,0.4344046636708631,366
0.3297929763793945,0.2790517807006836,-0.2233438491821289,2023-10-21T14:58:00.937942Z,1697900280937,0.4863288789994809,367
0.3795599937438965,0.329716682434082,-0.2626619338989258,2023-10-21T14:58:00.958183Z,1697900280958,0.5672478920593074,368
0.4468917846679687,0.4002413749694824,-0.3181710243225097,2023-10-21T14:58:00.978471Z,1697900280978,0.6790715913360085,369
0.5291743278503418,0.4909420013427734,-0.3901829719543457,2023-10-21T14:58:01.000868Z,1697900281000,0.8205438864201198,370
0.6238694190979004,0.6019134521484375,-0.4789638519287109,2023-10-21T14:58:01.018954Z,1697900281018,0.9904136647972852,371
0.7287840843200684,0.7331428527832031,-0.5848464965820312,2023-10-21T14:58:01.039282Z,1697900281039,1.1877163418550785,372
0.8397693634033203,0.8815360069274902,-0.7061967849731445,2023-10-21T14:58:01.059524Z,1697900281059,1.4074914615467078,373
0.9498744010925292,1.0387768745422363,-0.8379449844360352,2023-10-21T14:58:01.079846Z,1697900281079,1.6381302054098554,374
1.0520973205566406,1.1929688453674316,-0.9734935760498048,2023-10-21T14:58:01.100790Z,1697900281100,1.864878864846187,375
1.138357162475586,1.3293871879577637,-1.1038975715637207,2023-10-21T14:58:01.120290Z,1697900281120,2.069231058478003,376
1.1997532844543457,1.4299054145812988,-1.214174747467041,2023-10-21T14:58:01.140592Z,1697900281140,2.226714565361838,377
1.239243984222412,1.489008903503418,-1.300468921661377,2023-10-21T14:58:01.160849Z,1697900281160,2.3332579333093446,378
1.257620334625244,1.5030450820922852,-1.3573226928710938,2023-10-21T14:58:01.184344Z,1697900281184,2.383920786739264,379
1.2613062858581543,1.4796724319458008,-1.3909621238708496,2023-10-21T14:58:01.201352Z,1697900281201,2.3906274663044003,380
1.2449402809143066,1.4187164306640625,-1.3966026306152344,2023-10-21T14:58:01.221599Z,1697900281221,2.3480058606231293,381
1.2024507522583008,1.3178772926330566,-1.365015983581543,2023-10-21T14:58:01.241858Z,1697900281241,2.246320770833381,382
1.1354126930236816,1.1826066970825195,-1.295107364654541,2023-10-21T14:58:01.262099Z,1697900281262,2.0892639061272624,383
1.0458760261535645,1.022904872894287,-1.1899967193603516,2023-10-21T14:58:01.284013Z,1697900281283,1.88581102795642,384
0.9312973022460938,0.8473057746887207,-1.0501422882080078,2023-10-21T14:58:01.302677Z,1697900281302,1.6395244940147908,385
0.7928123474121094,0.6658596992492676,-0.8801207542419434,2023-10-21T14:58:01.322938Z,1697900281322,1.3588719952007369,386
0.6385221481323242,0.4919195175170898,-0.6944217681884766,2023-10-21T14:58:01.343232Z,1697900281343,1.0639158507625377,387
0.4659638404846191,0.3273897171020508,-0.4945554733276367,2023-10-21T14:58:01.363462Z,1697900281363,0.7542489268813442,388
0.2767372131347656,0.1759629249572754,-0.2859125137329101,2023-10-21T14:58:01.383825Z,1697900281383,0.4350774662082465,389
0.0644631385803222,0.0366857051849365,-0.0645723342895507,2023-10-21T14:58:01.404035Z,1697900281403,0.0983408539526853,390
-0.1627216339111328,-0.081437349319458,0.1571531295776367,2023-10-21T14:58:01.424242Z,1697900281424,0.2404318575874121,391
-0.3935976028442383,-0.1691975593566894,0.3647584915161133,2023-10-21T14:58:01.444476Z,1697900281444,0.5626683252059793,392
-0.6256799697875977,-0.2237446308135986,0.5542960166931152,2023-10-21T14:58:01.467277Z,1697900281467,0.8653214192039724,393
-0.8543210029602051,-0.2419866323471069,0.7206301689147949,2023-10-21T14:58:01.485004Z,1697900281484,1.1435601194007206,394
-1.066251277923584,-0.2202121019363403,0.8524799346923828,2023-10-21T14:58:01.505291Z,1697900281505,1.3827896429197126,395
-1.2473068237304688,-0.1592990756034851,0.941274642944336,2023-10-21T14:58:01.525595Z,1697900281525,1.5707159073055517,396
-1.3867783546447754,-0.0658261477947235,0.983914852142334,2023-10-21T14:58:01.545831Z,1697900281545,1.7016391282851469,397
-1.4780921936035156,0.0482631921768188,0.9812650680541992,2023-10-21T14:58:01.567035Z,1697900281566,1.7748146388550443,398
-1.517878532409668,0.1675503253936767,0.9371023178100586,2023-10-21T14:58:01.586348Z,1697900281586,1.7917000599248298,399
-1.5083327293395996,0.2761497497558594,0.8590788841247559,2023-10-21T14:58:01.606648Z,1697900281606,1.7576526493696942,400
-1.4510955810546875,0.3603197336196899,0.7551898956298828,2023-10-21T14:58:01.626914Z,1697900281626,1.6750583495071685,401
-1.3484644889831543,0.4094061851501465,0.6379718780517578,2023-10-21T14:58:01.647098Z,1697900281647,1.5469253439234494,402
-1.2232894897460938,0.4258091449737549,0.5249550342559814,2023-10-21T14:58:01.667437Z,1697900281667,1.3976152516544875,403
-1.0909819602966309,0.4167566299438476,0.4253978729248047,2023-10-21T14:58:01.687673Z,1697900281687,1.2429364732695638,404
-0.9658360481262208,0.3929204940795898,0.3415956497192383,2023-10-21T14:58:01.707978Z,1697900281707,1.097229863991558,405
-0.839536190032959,0.3550002574920654,0.2687880992889404,2023-10-21T14:58:01.728209Z,1697900281728,0.9503121800302524,406
-0.7103524208068848,0.3055188655853271,0.2069494724273681,2023-10-21T14:58:01.750405Z,1697900281750,0.8004813696224995,407
-0.5898847579956055,0.2533214092254638,0.1583821773529052,2023-10-21T14:58:01.768717Z,1697900281768,0.661226646612609,408
-0.4854345321655273,0.2049601078033447,0.1222848892211914,2023-10-21T14:58:01.789008Z,1697900281788,0.5409333830901566,409
-0.3896427154541015,0.1596779823303222,0.0942037105560302,2023-10-21T14:58:01.809308Z,1697900281809,0.4315006869404183,410
-0.2980918884277344,0.1173977851867675,0.0709090232849121,2023-10-21T14:58:01.829435Z,1697900281829,0.3281297052940978,411
-0.2094364166259765,0.078754186630249,0.0498292446136474,2023-10-21T14:58:01.850203Z,1697900281850,0.2292352244740943,412
-0.1155815124511718,0.0412220954895019,0.0278408527374267,2023-10-21T14:58:01.870115Z,1697900281870,0.1258310782684193,413
-0.017277717590332,0.0057990550994873,0.0042340755462646,2023-10-21T14:58:01.890326Z,1697900281890,0.0187103169644352,414
0.0874929428100586,-0.0273439884185791,-0.0219650268554687,2023-10-21T14:58:01.910566Z,1697900281910,0.0942611858028586,415
0.1853904724121093,-0.0532996654510498,-0.0478532314300537,2023-10-21T14:58:01.933642Z,1697900281933,0.1987471090523763,416
0.2707853317260742,-0.0706496238708496,-0.0716214179992675,2023-10-21T14:58:01.951087Z,1697900281951,0.2888696812531879,417
0.3508996963500976,-0.0816779136657714,-0.0944991111755371,2023-10-21T14:58:01.971421Z,1697900281971,0.3724673952070844,418
0.4300489425659179,-0.0874915122985839,-0.1171436309814453,2023-10-21T14:58:01.991636Z,1697900281991,0.4542240504485363,419
0.5029144287109375,-0.0872923135757446,-0.1376943588256836,2023-10-21T14:58:02.011900Z,1697900282011,0.5286800611593659,420
0.5652151107788086,-0.0810425281524658,-0.1548292636871338,2023-10-21T14:58:02.033615Z,1697900282033,0.5916148356117721,421
0.6167659759521484,-0.0695630311965942,-0.1686151027679443,2023-10-21T14:58:02.052480Z,1697900282052,0.6431720899439815,422
0.6586580276489258,-0.0537601113319397,-0.1798675060272216,2023-10-21T14:58:02.072720Z,1697900282072,0.684888944779552,423
0.6889114379882812,-0.0341435968875885,-0.1887495517730713,2023-10-21T14:58:02.092953Z,1697900282092,0.7151161778998144,424
0.7007274627685547,-0.0113252699375152,-0.1940555572509765,2023-10-21T14:58:02.113138Z,1697900282113,0.7271896575977967,425
0.6873779296875,0.0130509138107299,-0.1942481994628906,2023-10-21T14:58:02.133448Z,1697900282133,0.714416620444502,426
0.6484804153442383,0.0364527106285095,-0.1889996528625488,2023-10-21T14:58:02.153787Z,1697900282153,0.6764440242764849,427
0.5884647369384766,0.0563198924064636,-0.17881441116333,2023-10-21T14:58:02.173994Z,1697900282173,0.6176060803946433,428
0.5146503448486328,0.0709376335144043,-0.1647143363952636,2023-10-21T14:58:02.194261Z,1697900282194,0.5450026953287228,429
0.4335498809814453,0.0794636011123657,-0.1475152969360351,2023-10-21T14:58:02.216770Z,1697900282216,0.464801813713003,430
0.3505868911743164,0.081575870513916,-0.127800703048706,2023-10-21T14:58:02.234777Z,1697900282234,0.3819670281753632,431
0.2723321914672851,0.0780270099639892,-0.1070179939270019,2023-10-21T14:58:02.255058Z,1697900282255,0.3028298000815876,432
0.2049837112426757,0.0707221031188964,-0.0872426033020019,2023-10-21T14:58:02.275344Z,1697900282275,0.2337332016964875,433
0.1543788909912109,0.0629472732543945,-0.0713706016540527,2023-10-21T14:58:02.295614Z,1697900282295,0.1813531471309529,434
0.1229200363159179,0.0582704544067382,-0.0618138313293457,2023-10-21T14:58:02.316605Z,1697900282316,0.1494179739130708,435
0.1088495254516601,0.0591135025024414,-0.0595602989196777,2023-10-21T14:58:02.336130Z,1697900282336,0.1374410949336446,436
0.1070508956909179,0.0657439231872558,-0.0637068748474121,2023-10-21T14:58:02.357564Z,1697900282357,0.1408571035024624,437
0.1132426261901855,0.0777521133422851,-0.0732040405273437,2023-10-21T14:58:02.376602Z,1697900282376,0.1556538308721331,438
0.1247973442077636,0.0948281288146972,-0.0874814987182617,2023-10-21T14:58:02.400165Z,1697900282400,0.1794986455486532,439
0.1392798423767089,0.1160254478454589,-0.1056170463562011,2023-10-21T14:58:02.417409Z,1697900282417,0.2097992838911232,440
0.1534733772277832,0.1389107704162597,-0.1255378723144531,2023-10-21T14:58:02.437467Z,1697900282437,0.2420950991667947,441
0.164644718170166,0.1605730056762695,-0.14481782913208,2023-10-21T14:58:02.457716Z,1697900282457,0.2717789119997594,442
0.1718649864196777,0.1792402267456054,-0.161996841430664,2023-10-21T14:58:02.477917Z,1697900282477,0.296492173715199,443
0.1761960983276367,0.1952672004699707,-0.1773056983947754,2023-10-21T14:58:02.499851Z,1697900282499,0.3171934036648949,444
0.1794848442077636,0.2102885246276855,-0.1919665336608886,2023-10-21T14:58:02.518544Z,1697900282518,0.3365816735001342,445
0.1828131675720214,0.2255020141601562,-0.2066679000854492,2023-10-21T14:58:02.538795Z,1697900282538,0.3563473495814617,446
0.1870737075805664,0.2421121597290039,-0.2221384048461914,2023-10-21T14:58:02.558995Z,1697900282558,0.3781009664946552,447
0.1922988891601562,0.260282039642334,-0.2382159233093261,2023-10-21T14:58:02.579208Z,1697900282579,0.4018363212188742,448
0.198340892791748,0.2797164916992187,-0.2544608116149902,2023-10-21T14:58:02.599699Z,1697900282599,0.427002025908199,449
0.2058773040771484,0.3009934425354004,-0.2713332176208496,2023-10-21T14:58:02.619828Z,1697900282619,0.4545373821457035,450
0.216005802154541,0.3252711296081543,-0.2897825241088867,2023-10-21T14:58:02.640111Z,1697900282640,0.4862445121540282,451
0.2284412384033203,0.351752758026123,-0.3089089393615722,2023-10-21T14:58:02.660326Z,1697900282660,0.5209031915814284,452
0.2415442466735839,0.3774957656860351,-0.3259997367858886,2023-10-21T14:58:02.682914Z,1697900282682,0.5541863446499414,453
0.2532291412353515,0.398831844329834,-0.3380298614501953,2023-10-21T14:58:02.700846Z,1697900282700,0.5809096532631979,454
0.2621221542358398,0.4132533073425293,-0.3434066772460937,2023-10-21T14:58:02.721153Z,1697900282721,0.597841505541376,455
0.2682690620422363,0.4207291603088379,-0.3428797721862793,2023-10-21T14:58:02.741418Z,1697900282741,0.6054319566703725,456
0.2716765403747558,0.4215054512023926,-0.3373227119445801,2023-10-21T14:58:02.761638Z,1697900282761,0.604368761582674,457
0.2723240852355957,0.4160957336425781,-0.3276162147521972,2023-10-21T14:58:02.782996Z,1697900282782,0.5955068858741409,458
0.2704286575317383,0.4056224822998047,-0.3148722648620605,2023-10-21T14:58:02.802210Z,1697900282802,0.5803497222716981,459
0.7344450950622559,0.6125493049621582,-0.2240498065948486,2023-10-21T15:02:15.888887Z,1697900535888,0.982254836845214,460
0.7369637489318848,0.6012187004089355,-0.2141587734222412,2023-10-21T15:02:15.908254Z,1697900535908,0.974906904886239,461
0.7346415519714355,0.5855550765991211,-0.2016804218292236,2023-10-21T15:02:15.928522Z,1697900535928,0.9608579240258236,462
0.731724739074707,0.5698032379150391,-0.1885886192321777,2023-10-21T15:02:15.948718Z,1697900535948,0.9463944690330296,463
0.7299790382385254,0.5560035705566406,-0.1756622791290283,2023-10-21T15:02:15.968968Z,1697900535968,0.9342733021167736,464
0.7272872924804688,0.5428123474121094,-0.1621643304824829,2023-10-21T15:02:15.989237Z,1697900535989,0.9218944193276404,465
0.7216892242431641,0.5285530090332031,-0.1472185850143432,2023-10-21T15:02:16.009567Z,1697900536009,0.906574283509288,466
0.7114219665527344,0.5113315582275391,-0.1301980018615722,2023-10-21T15:02:16.029793Z,1697900536029,0.8857385035222919,467
0.6969428062438965,0.4909071922302246,-0.1113241910934448,2023-10-21T15:02:16.050006Z,1697900536049,0.8597163614129313,468
0.6788578033447266,0.4673328399658203,-0.0910136699676513,2023-10-21T15:02:16.072158Z,1697900536072,0.8291751254068871,469
0.6540365219116211,0.4385223388671875,-0.0693582892417907,2023-10-21T15:02:16.090588Z,1697900536090,0.7904911042929874,470
0.6190881729125977,0.4027457237243652,-0.0470185875892639,2023-10-21T15:02:16.110882Z,1697900536110,0.7400574514167197,471
0.5711784362792969,0.3588838577270508,-0.0250597596168518,2023-10-21T15:02:16.131105Z,1697900536131,0.6750336443167608,472
0.5084981918334961,0.3067431449890136,-0.0049279183149337,2023-10-21T15:02:16.151323Z,1697900536151,0.5938737681314142,473
0.4312849044799804,0.2479176521301269,0.0113455653190612,2023-10-21T15:02:16.172062Z,1697900536172,0.4975927581089073,474
0.3421592712402344,0.1858420372009277,0.0216467976570129,2023-10-21T15:02:16.191894Z,1697900536191,0.3899728369200129,475
0.2425098419189453,0.1233744621276855,0.0242688655853271,2023-10-21T15:02:16.212192Z,1697900536212,0.2731689205778106,476
0.1326150894165039,0.0626759529113769,0.0180013179779052,2023-10-21T15:02:16.232386Z,1697900536232,0.1477805280246288,477
0.0108489990234375,0.0047264099121093,0.0018404722213745,2023-10-21T15:02:16.255607Z,1697900536255,0.0119761040603981,478
-0.1237030029296875,-0.0493028163909912,-0.0249344110488891,2023-10-21T15:02:16.272907Z,1697900536272,0.1354803509452977,479
-0.2675390243530273,-0.0966420173645019,-0.0618524551391601,2023-10-21T15:02:16.293236Z,1697900536293,0.2911057115186719,480
-0.4160604476928711,-0.1345725059509277,-0.1076300144195556,2023-10-21T15:02:16.313481Z,1697900536313,0.4503335158482638,481
-0.5654134750366211,-0.161130666732788,-0.160719633102417,2023-10-21T15:02:16.333677Z,1697900536333,0.6094967514099776,482
-0.7128238677978516,-0.1751003265380859,-0.2195272445678711,2023-10-21T15:02:16.355347Z,1697900536355,0.7661398057558393,483
-0.854893684387207,-0.1754238605499267,-0.2820730209350586,2023-10-21T15:02:16.374278Z,1697900536374,0.9171597088810672,484
-0.9866323471069336,-0.1611952781677246,-0.3455617427825928,2023-10-21T15:02:16.394557Z,1697900536394,1.0577524399103269,485
-1.1033382415771484,-0.1323464512825012,-0.4069912433624267,2023-10-21T15:02:16.414779Z,1697900536414,1.1834326050381236,486
-1.2001996040344238,-0.0895761847496032,-0.4632554054260254,2023-10-21T15:02:16.434962Z,1697900536434,1.2896156609839668,487
-1.2735013961791992,-0.0342982560396194,-0.511744499206543,2023-10-21T15:02:16.455348Z,1697900536455,1.372903714360874,488
-1.3226513862609863,0.0311077088117599,-0.5505251884460449,2023-10-21T15:02:16.475645Z,1697900536475,1.4329872163558122,489
-1.3497185707092283,0.1034184098243713,-0.578099250793457,2023-10-21T15:02:16.495856Z,1697900536495,1.4719491605948622,490
-1.3611860275268557,0.1796329617500305,-0.5950233936309814,2023-10-21T15:02:16.516073Z,1697900536516,1.4963783750942006,491
-1.3640666007995603,0.2578064203262329,-0.6030032634735107,2023-10-21T15:02:16.538517Z,1697900536538,1.5135239600145078,492
-1.3646531105041504,0.3378342390060425,-0.6048228740692139,2023-10-21T15:02:16.556629Z,1697900536556,1.530431571175526,493
-1.3669142723083496,0.4208037853240967,-0.602454662322998,2023-10-21T15:02:16.576922Z,1697900536576,1.551928501490346,494
-1.370561122894287,0.5072567462921143,-0.5956597328186035,2023-10-21T15:02:16.597168Z,1697900536597,1.5781500928459378,495
-1.3717083930969238,0.5962142944335938,-0.5826926231384277,2023-10-21T15:02:16.617335Z,1697900536617,1.6051747860091232,496
-1.3671016693115234,0.6856930255889893,-0.5620958805084229,2023-10-21T15:02:16.638382Z,1697900536638,1.6294458194307275,497
-1.3555850982666016,0.7735557556152344,-0.5333328247070312,2023-10-21T15:02:16.657941Z,1697900536657,1.6493766603168327,498
-1.335927963256836,0.8572769165039062,-0.4969003200531006,2023-10-21T15:02:16.678263Z,1697900536678,1.6632910637200204,499
-1.306107521057129,0.9344005584716796,-0.4542751312255859,2023-10-21T15:02:16.698486Z,1697900536698,1.668947918625446,500
-1.2626557350158691,1.0010442733764648,-0.4066885709762573,2023-10-21T15:02:16.721882Z,1697900536721,1.661861828248964,501
-1.2019691467285156,1.051557540893555,-0.3547896146774292,2023-10-21T15:02:16.740260Z,1697900536740,1.6359641689781397,502
-1.1226143836975098,1.0792980194091797,-0.2990016937255859,2023-10-21T15:02:16.759344Z,1697900536759,1.585733042487255,503
-1.0264325141906738,1.0795598030090332,-0.2412601709365844,2023-10-21T15:02:16.779580Z,1697900536779,1.5090459053789718,504
-0.9188399314880372,1.0532712936401367,-0.1849602460861206,2023-10-21T15:02:16.799762Z,1697900536799,1.409914015227718,505
-0.8072471618652344,1.0064334869384766,-0.1329826712608337,2023-10-21T15:02:16.821719Z,1697900536821,1.2970122338768757,506
-0.6973371505737305,0.945526123046875,-0.0862388014793396,2023-10-21T15:02:16.840336Z,1697900536840,1.178022020938037,507
-0.5914745330810547,0.8740334510803223,-0.044245958328247,2023-10-21T15:02:16.860652Z,1697900536860,1.0562832488112337,508
-0.4879417419433594,0.7895646095275879,-0.0064855180680751,2023-10-21T15:02:16.880838Z,1697900536880,0.9281925867479138,509
-0.3825564384460449,0.6832089424133301,0.0256215035915374,2023-10-21T15:02:16.901056Z,1697900536901,0.7834413500935183,510
-0.2712030410766601,0.5402326583862305,0.046913743019104,2023-10-21T15:02:16.921552Z,1697900536921,0.606302988579427,511
-0.1539866924285888,0.3467779159545898,0.0484231710433959,2023-10-21T15:02:16.941675Z,1697900536941,0.3825070299129198,512
-0.036034345626831,0.0932693481445312,0.0182585716247558,2023-10-21T15:02:16.961926Z,1697900536961,0.1016416292954615,513
0.0733213424682617,-0.2222108840942382,-0.0567240715026855,2023-10-21T15:02:16.982189Z,1697900536982,0.2407723334586697,514
0.1645786762237548,-0.5943021774291992,-0.1890335083007812,2023-10-21T15:02:17.004948Z,1697900537004,0.6449921596617687,515
0.2315564155578613,-1.007563591003418,-0.3859164714813232,2023-10-21T15:02:17.022695Z,1697900537022,1.103509984758771,516
0.2741025686264038,-1.4378585815429688,-0.6440868377685547,2023-10-21T15:02:17.043003Z,1697900537042,1.5991927254809055,517
0.2974559068679809,-1.854164123535156,-0.9465641975402832,2023-10-21T15:02:17.063265Z,1697900537063,2.102947548941872,518
0.3076741695404053,-2.212120056152344,-1.2620601654052734,2023-10-21T15:02:17.083481Z,1697900537083,2.565333194447968,519
0.3102984428405761,-2.464296340942383,-1.5528111457824707,2023-10-21T15:02:17.104834Z,1697900537104,2.9292087727025486,520
0.3088877201080322,-2.5834312438964844,-1.786694049835205,2023-10-21T15:02:17.124100Z,1697900537124,3.156232602849575,521
0.3047435283660888,-2.560198783874512,-1.934790134429932,2023-10-21T15:02:17.144334Z,1697900537144,3.223491786141379,522
0.2999591827392578,-2.412687301635742,-1.9746150970458984,2023-10-21T15:02:17.164582Z,1697900537164,3.1321143510838723,523
0.2973487377166748,-2.173551082611084,-1.9060583114624023,2023-10-21T15:02:17.184878Z,1697900537184,2.9061656641073337,524
0.2949146032333374,-1.881831169128418,-1.7485432624816897,2023-10-21T15:02:17.205086Z,1697900537205,2.585665622827827,525
0.2807806730270386,-1.5634112358093262,-1.5294084548950195,2023-10-21T15:02:17.225397Z,1697900537225,2.2050357594616763,526
0.2453411817550659,-1.2292089462280271,-1.2651920318603516,2023-10-21T15:02:17.245627Z,1697900537245,1.7809710290835483,527
0.1860603094100952,-0.8761606216430664,-0.9517769813537598,2023-10-21T15:02:17.265839Z,1697900537265,1.3069641524887436,528
0.1134817600250244,-0.5160102844238281,-0.5927653312683105,2023-10-21T15:02:17.288313Z,1697900537288,0.7940500371155254,529
0.0385304689407348,-0.1691808700561523,-0.2050399780273437,2023-10-21T15:02:17.306390Z,1697900537306,0.2686040886122234,530
-0.0367434024810791,0.1524281501770019,0.1944856643676757,2023-10-21T15:02:17.326705Z,1697900537326,0.2498181183117137,531
-0.1161059141159057,0.4398784637451172,0.5921597480773926,2023-10-21T15:02:17.346921Z,1697900537346,0.746744141860206,532
-0.2065205574035644,0.686678409576416,0.99058198928833,2023-10-21T15:02:17.367183Z,1697900537367,1.22287802184482,533
-0.3194285631179809,0.8926763534545898,1.419144630432129,2023-10-21T15:02:17.388165Z,1697900537388,1.7067153134125637,534
-0.4752978086471557,1.0457274913787842,1.9163990020751955,2023-10-21T15:02:17.407710Z,1697900537407,2.234287163344264,535
-0.7135604619979858,1.0994231700897217,2.4916138648986816,2023-10-21T15:02:17.428073Z,1697900537428,2.8153222713594013,536
-1.0858256816864014,0.9624595642089844,3.093822956085205,2023-10-21T15:02:17.448218Z,1697900537448,3.417175194125534,537
-1.612332820892334,0.5208823084831238,3.5682272911071777,2023-10-21T15:02:17.471100Z,1697900537471,3.950086265592108,538
-2.202815294265747,-0.2611207365989685,3.695023536682129,2023-10-21T15:02:17.488761Z,1697900537488,4.309730640813644,539
-2.6374671459198,-1.222163200378418,3.3139004707336426,2023-10-21T15:02:17.509060Z,1697900537509,4.408157456817327,540
-2.710674285888672,-2.01613450050354,2.499457597732544,2023-10-21T15:02:17.529341Z,1697900537529,4.20236144223241,541
-2.4012584686279297,-2.3634512424468994,1.5553927421569824,2023-10-21T15:02:17.549499Z,1697900537549,3.7109554822088286,542
-1.853952407836914,-2.227766990661621,0.774545431137085,2023-10-21T15:02:17.571124Z,1697900537571,3.0000009866833643,543
-1.2499699592590332,-1.7532658576965332,0.2772151231765747,2023-10-21T15:02:17.590079Z,1697900537590,2.170993848755033,544
-0.7105889320373535,-1.1288299560546875,0.0376338064670562,2023-10-21T15:02:17.610390Z,1697900537610,1.334394995272994,545
-0.2807455062866211,-0.4936676025390625,-0.0262109339237213,2023-10-21T15:02:17.630647Z,1697900537630,0.5685180332706701,546
0.0375633239746093,0.0716695785522461,0.0081275701522827,2023-10-21T15:02:17.650794Z,1697900537650,0.0813239767501461,547
0.2674775123596191,0.5458011627197266,0.0825486183166503,2023-10-21T15:02:17.671272Z,1697900537671,0.6133982419523907,548
0.4302330017089844,0.9317312240600586,0.1584903001785278,2023-10-21T15:02:17.691493Z,1697900537691,1.038432802302902,549
0.5482227802276611,1.256744384765625,0.2182984352111816,2023-10-21T15:02:17.711713Z,1697900537711,1.3883835465087182,550
0.6459040641784668,1.5513334274291992,0.2602261304855346,2023-10-21T15:02:17.731956Z,1697900537731,1.7004543810902315,551
0.7441160678863525,1.8324365615844729,0.2872185707092285,2023-10-21T15:02:17.754390Z,1697900537754,1.9985061876507728,552
0.8568153381347656,2.1009340286254883,0.2994194030761719,2023-10-21T15:02:17.772455Z,1697900537772,2.288604005772516,553
0.9878919124603271,2.363157272338867,0.2957158088684082,2023-10-21T15:02:17.792762Z,1697900537792,2.5783503571328885,554
1.135108470916748,2.63580322265625,0.2755171060562134,2023-10-21T15:02:17.813011Z,1697900537812,2.8830261089767504,555
1.2912395000457764,2.920435905456543,0.2404690384864807,2023-10-21T15:02:17.833255Z,1697900537833,3.2021977894609908,556
1.448533535003662,3.209712028503418,0.1964977383613586,2023-10-21T15:02:17.854256Z,1697900537854,3.526912540612662,557
1.5968246459960938,3.4716386795043945,0.1540871262550354,2023-10-21T15:02:17.873829Z,1697900537873,3.824377977340773,558
1.731584072113037,3.6778736114501953,0.1164168417453765,2023-10-21T15:02:17.894148Z,1697900537894,4.06677889510104,559
1.8442225456237795,3.79971694946289,0.0791416764259338,2023-10-21T15:02:17.914297Z,1697900537914,4.224366117983872,560
1.916484832763672,3.8247499465942383,0.0332628265023231,2023-10-21T15:02:17.937617Z,1697900537937,4.278169314533116,561
1.934131622314453,3.753916740417481,-0.0249082744121551,2023-10-21T15:02:17.954826Z,1697900537954,4.2229582579700615,562
1.896576881408692,3.6025352478027344,-0.088337630033493,2023-10-21T15:02:17.975147Z,1697900537975,4.072231282188545,563
1.820856571197509,3.3895626068115234,-0.1485301256179809,2023-10-21T15:02:17.995391Z,1697900537995,3.85054730091505,564
1.7258906364440918,3.1326847076416016,-0.2009845972061157,2023-10-21T15:02:18.015570Z,1697900538015,3.5822907161160225,565
1.620236873626709,2.849593162536621,-0.2462817430496215,2023-10-21T15:02:18.037448Z,1697900538037,3.2872486087295973,566
1.5064301490783691,2.554102897644043,-0.2856330871582031,2023-10-21T15:02:18.056234Z,1697900538056,2.978986348791397,567
1.3852834701538086,2.256058692932129,-0.3176507949829101,2023-10-21T15:02:18.076484Z,1697900538076,2.666404535360169,568
1.259634494781494,1.965134620666504,-0.3402581214904785,2023-10-21T15:02:18.096645Z,1697900538096,2.358857504603816,569
1.1341872215270996,1.6904535293579102,-0.3518195152282715,2023-10-21T15:02:18.116864Z,1697900538116,2.0658631996551544,570
1.0130615234375,1.4394607543945312,-0.3529238700866699,2023-10-21T15:02:18.137445Z,1697900538137,1.7952426498355407,571
0.8981113433837891,1.2164306640625,-0.3449695110321045,2023-10-21T15:02:18.157578Z,1697900538157,1.5509066732488768,572
0.7882122993469238,1.0201945304870603,-0.3292169570922851,2023-10-21T15:02:18.177758Z,1697900538177,1.330586079032312,573
0.6837048530578613,0.8493809700012207,-0.3072018623352051,2023-10-21T15:02:18.197993Z,1697900538197,1.1328165528969396,574
0.5861830711364746,0.7024164199829102,-0.2804832458496094,2023-10-21T15:02:18.220868Z,1697900538220,0.956906615689812,575
0.4964780807495117,0.5764780044555664,-0.2503495216369629,2023-10-21T15:02:18.238514Z,1697900538238,0.8009321177663229,576
0.4132223129272461,0.4672360420227051,-0.2174494266510009,2023-10-21T15:02:18.258834Z,1697900538258,0.6605652518993372,577
0.3337135314941406,0.3696880340576172,-0.1819851398468017,2023-10-21T15:02:18.279058Z,1697900538279,0.5302382056705616,578
0.2572431564331054,0.2811899185180664,-0.1447896957397461,2023-10-21T15:02:18.299303Z,1697900538299,0.40768353878992,579
0.1874542236328125,0.2036013603210449,-0.1086361408233642,2023-10-21T15:02:18.320624Z,1697900538320,0.2973119758357443,580
0.1299076080322265,0.1410365104675293,-0.07735276222229,2023-10-21T15:02:18.341190Z,1697900538341,0.2067625056264559,581
0.0878596305847168,0.0957875251770019,-0.0536055564880371,2023-10-21T15:02:18.360195Z,1697900538360,0.1405991477655885,582
0.0598888397216796,0.0658297538757324,-0.0373275279998779,2023-10-21T15:02:18.380342Z,1697900538380,0.0965068596791451,583
0.0423073768615722,0.04705810546875,-0.0268583297729492,2023-10-21T15:02:18.400626Z,1697900538400,0.068744085603109,584
0.0319151878356933,0.036046028137207,-0.02059006690979,2023-10-21T15:02:18.420895Z,1697900538420,0.0523626414001961,585
0.0269756317138671,0.0310382843017578,-0.0176680088043212,2023-10-21T15:02:18.441213Z,1697900538441,0.0447573271528641,586
0.0267014503479003,0.031376838684082,-0.0177381038665771,2023-10-21T15:02:18.461436Z,1697900538461,0.0448565913246845,587
0.0306758880615234,0.0368614196777343,-0.0206472873687744,2023-10-21T15:02:18.481659Z,1697900538481,0.0522119224383657,588
0.0382280349731445,0.046968936920166,-0.0260272026062011,2023-10-21T15:02:18.503865Z,1697900538503,0.0659156959215537,589
0.0471682548522949,0.0591726303100585,-0.0323951244354248,2023-10-21T15:02:18.522216Z,1697900538522,0.0823145705863096,590
0.0546603202819824,0.0698943138122558,-0.0377559661865234,2023-10-21T15:02:18.542527Z,1697900538542,0.0964286197106071,591
0.0594630241394043,0.0774049758911132,-0.041210651397705,2023-10-21T15:02:18.562802Z,1697900538562,0.1059514007511479,592
0.0630164146423339,0.0834274291992187,-0.0437572002410888,2023-10-21T15:02:18.582949Z,1697900538582,0.1133397416183041,593
0.0675148963928222,0.0908293724060058,-0.0469260215759277,2023-10-21T15:02:18.603674Z,1697900538603,0.1225164790040378,594
0.0746169090270996,0.101879596710205,-0.0518653392791748,2023-10-21T15:02:18.623630Z,1697900538623,0.1365179429860279,595
0.0846533775329589,0.1171379089355468,-0.0587813854217529,2023-10-21T15:02:18.643878Z,1697900538643,0.1560215860374159,596
0.0973143577575683,0.1362733840942382,-0.0674638748168945,2023-10-21T15:02:18.664032Z,1697900538663,0.1805322515329972,597
0.1120181083679199,0.1585655212402343,-0.0775289535522461,2023-10-21T15:02:18.687255Z,1697900538687,0.2090498021224142,598
0.1275086402893066,0.1823601722717285,-0.0881602764129638,2023-10-21T15:02:18.704672Z,1697900538704,0.2393447724864958,599
0.1434564590454101,0.2072291374206543,-0.0992052555084228,2023-10-21T15:02:18.724910Z,1697900538724,0.2708603953302278,600
0.1602454185485839,0.2336587905883789,-0.1110017299652099,2023-10-21T15:02:18.745146Z,1697900538745,0.3042965800667239,601
0.1778969764709472,0.2613883018493652,-0.1235597133636474,2023-10-21T15:02:18.765350Z,1697900538765,0.3394674967470469,602
0.1953010559082031,0.2884359359741211,-0.1360690593719482,2023-10-21T15:02:18.786855Z,1697900538786,0.3739686892220966,603
0.2101778984069824,0.3112025260925293,-0.1469120979309082,2023-10-21T15:02:18.805952Z,1697900538805,0.403243010780854,604
0.2195625305175781,0.3252654075622558,-0.1539762020111084,2023-10-21T15:02:18.826215Z,1697900538826,0.4215613371144091,605
0.221710205078125,0.3281145095825195,-0.1560103893280029,2023-10-21T15:02:18.846394Z,1697900538846,0.4256216489003309,606
0.2169690132141113,0.3203339576721191,-0.153167724609375,2023-10-21T15:02:18.866601Z,1697900538866,0.416112663824356,607
0.2073822021484375,0.3050103187561035,-0.1468222141265869,2023-10-21T15:02:18.886943Z,1697900538886,0.3969829150941745,608
0.1960425376892089,0.286834716796875,-0.1391477584838867,2023-10-21T15:02:18.907288Z,1697900538907,0.374257838975563,609
0.1853327751159668,0.2694907188415527,-0.1318206787109375,2023-10-21T15:02:18.927507Z,1697900538927,0.3526332037822509,610
0.1769070625305175,0.2555203437805176,-0.12601900100708,2023-10-21T15:02:18.947723Z,1697900538947,0.3353618098020595,611
0.1721687316894531,0.2469649314880371,-0.1227247714996337,2023-10-21T15:02:18.970141Z,1697900538970,0.3251078576350978,612
0.1713223457336425,0.2441062927246093,-0.122049331665039,2023-10-21T15:02:18.988304Z,1697900538988,0.3222348020548262,613
0.173779010772705,0.2460465431213379,-0.1235198974609375,2023-10-21T15:02:19.008582Z,1697900539008,0.3255690572457106,614
0.178748607635498,0.251650333404541,-0.1265184879302978,2023-10-21T15:02:19.028803Z,1697900539028,0.3335953878914017,615
0.1855502128601074,0.2598729133605957,-0.1304640769958496,2023-10-21T15:02:19.049036Z,1697900539049,0.3449401223072402,616
0.1925497055053711,0.2683210372924804,-0.1340892314910888,2023-10-21T15:02:19.070092Z,1697900539070,0.3564428287198223,617
0.1979451179504394,0.274390697479248,-0.1360454559326172,2023-10-21T15:02:19.089608Z,1697900539089,0.3646654503287571,618
0.2002744674682617,0.2758874893188476,-0.1352784633636474,2023-10-21T15:02:19.109911Z,1697900539109,0.3667751787299445,619
0.1500859260559082,0.1812376976013183,-0.0545566082000732,2023-10-21T15:00:06.400140Z,1697900406400,0.2415560219290397,620
0.1447205543518066,0.1758408546447754,-0.051978588104248,2023-10-21T15:00:06.420389Z,1697900406420,0.2335932760920363,621
0.1382284164428711,0.1689381599426269,-0.0491602420806884,2023-10-21T15:00:06.440621Z,1697900406440,0.2237496958624442,622
0.1305623054504394,0.1604194641113281,-0.0460636615753173,2023-10-21T15:00:06.462845Z,1697900406462,0.2119027630495291,623
0.1217818260192871,0.1503233909606933,-0.0426914691925048,2023-10-21T15:00:06.481133Z,1697900406481,0.1981173807628395,624
0.1120009422302246,0.1388001441955566,-0.039057970046997,2023-10-21T15:00:06.501457Z,1697900406501,0.1825793419676977,625
0.1014084815979003,0.126108169555664,-0.0352189540863037,2023-10-21T15:00:06.521731Z,1697900406521,0.1656119720781229,626
0.0903444290161132,0.1126890182495117,-0.0312666893005371,2023-10-21T15:00:06.541985Z,1697900406541,0.1477786741992992,627
0.079376220703125,0.0992727279663086,-0.0273869037628173,2023-10-21T15:00:06.563036Z,1697900406562,0.130021926722756,628
0.0690159797668457,0.0865106582641601,-0.0237421989440917,2023-10-21T15:00:06.582506Z,1697900406582,0.1131856504472929,629
0.0597891807556152,0.075082778930664,-0.0205078125,2023-10-21T15:00:06.602782Z,1697900406602,0.0981465241407648,630
0.0520739555358886,0.0654859542846679,-0.0178072452545166,2023-10-21T15:00:06.622959Z,1697900406622,0.085540663063141,631
0.0463924407958984,0.0584015846252441,-0.0158147811889648,2023-10-21T15:00:06.646341Z,1697900406646,0.0762437600974356,632
0.043095588684082,0.0542874336242675,-0.0146472454071044,2023-10-21T15:00:06.663561Z,1697900406663,0.0708441741539328,633
0.0423860549926757,0.0534033775329589,-0.0143659114837646,2023-10-21T15:00:06.683830Z,1697900406683,0.0696769531662315,634
0.0439643859863281,0.0553774833679199,-0.0148670673370361,2023-10-21T15:00:06.704029Z,1697900406703,0.0722534607511851,635
0.0471229553222656,0.0593094825744628,-0.0159037113189697,2023-10-21T15:00:06.724294Z,1697900406724,0.0774022976097729,636
0.0511751174926757,0.0643310546875,-0.0172517299652099,2023-10-21T15:00:06.746178Z,1697900406746,0.0839940440411568,637
0.0554871559143066,0.0696473121643066,-0.0187089443206787,2023-10-21T15:00:06.764865Z,1697900406764,0.0909922917656501,638
0.0595812797546386,0.0746603012084961,-0.0201218128204345,2023-10-21T15:00:06.785193Z,1697900406785,0.0976164782448356,639
0.0634002685546875,0.0793156623840332,-0.0214893817901611,2023-10-21T15:00:06.805372Z,1697900406805,0.1037899893147106,640
0.067169189453125,0.0839076042175293,-0.0228967666625976,2023-10-21T15:00:06.825544Z,1697900406825,0.1098928932229777,641
0.3625755310058594,0.4115791320800781,-0.2094795703887939,2023-10-21T15:00:18.193575Z,1697900418193,0.5871457127989993,642
0.3457498550415039,0.3980827331542969,-0.211601972579956,2023-10-21T15:00:18.213835Z,1697900418213,0.5681445410250323,643
0.3300275802612304,0.385134220123291,-0.2139015197753906,2023-10-21T15:00:18.234010Z,1697900418233,0.5504547496436744,644
0.3158836364746094,0.3735475540161133,-0.2164936065673828,2023-10-21T15:00:18.254590Z,1697900418254,0.5349670350483261,645
0.3026289939880371,0.3626289367675781,-0.2187790870666504,2023-10-21T15:00:18.274640Z,1697900418274,0.5205269855839489,646
0.2905654907226562,0.3527612686157226,-0.2208924293518066,2023-10-21T15:00:18.294874Z,1697900418294,0.5076044546487106,647
0.2806992530822754,0.3449444770812988,-0.2234253883361816,2023-10-21T15:00:18.315111Z,1697900418315,0.4976923418167206,648
0.274235725402832,0.3403882980346679,-0.2272047996520996,2023-10-21T15:00:18.338146Z,1697900418338,0.492637237235581,649
0.2702040672302246,0.3378729820251465,-0.2313361167907714,2023-10-21T15:00:18.355623Z,1697900418355,0.4905963604248956,650
0.2673878669738769,0.3361330032348633,-0.2347579002380371,2023-10-21T15:00:18.375939Z,1697900418375,0.4894823173442535,651
0.2644100189208984,0.3337545394897461,-0.2363286018371582,2023-10-21T15:00:18.396179Z,1697900418396,0.4869866104751427,652
0.2597537040710449,0.3289284706115722,-0.2348618507385254,2023-10-21T15:00:18.416412Z,1697900418416,0.4804435601502233,653
0.2526254653930664,0.3207325935363769,-0.2299933433532714,2023-10-21T15:00:18.437934Z,1697900418437,0.4686000003291185,654
0.2446961402893066,0.3112521171569824,-0.2235450744628906,2023-10-21T15:00:18.456945Z,1697900418456,0.4546718397083849,655
0.238011360168457,0.3031835556030273,-0.2176494598388672,2023-10-21T15:00:18.477313Z,1697900418477,0.4426521922745707,656
0.2325725555419922,0.2967138290405273,-0.2125263214111328,2023-10-21T15:00:18.497504Z,1697900418497,0.4327776879967039,657
0.2267251014709472,0.2900056838989258,-0.2069230079650879,2023-10-21T15:00:18.517702Z,1697900418517,0.4222850927466121,658
0.2189307212829589,0.2813096046447754,-0.1996278762817382,2023-10-21T15:00:18.538120Z,1697900418538,0.4085548229743879,659
0.2107563018798828,0.2724461555480957,-0.1920156478881836,2023-10-21T15:00:18.558326Z,1697900418558,0.3943540737572523,660
0.2048587799072265,0.2664737701416015,-0.1862678527832031,2023-10-21T15:00:18.578573Z,1697900418578,0.3842799797790949,661
0.203125,0.2655372619628906,-0.1838469505310058,2023-10-21T15:00:18.598818Z,1697900418598,0.3815357182955468,662
0.2060933113098144,0.270207405090332,-0.1850442886352539,2023-10-21T15:00:18.621235Z,1697900418621,0.3869468742460933,663
0.2133741378784179,0.2797880172729492,-0.1892409324645996,2023-10-21T15:00:18.639398Z,1697900418639,0.399527205387765,664
0.2234869003295898,0.2920799255371094,-0.1948552131652832,2023-10-21T15:00:18.659634Z,1697900418659,0.4162038342187387,665
0.2348580360412597,0.3047323226928711,-0.2003107070922851,2023-10-21T15:00:18.679847Z,1697900418679,0.4337562275780729,666
0.2462697029113769,0.3158564567565918,-0.2044305801391601,2023-10-21T15:00:18.700050Z,1697900418700,0.4496731367815073,667
0.2576546669006347,0.3250241279602051,-0.2070484161376953,2023-10-21T15:00:18.721166Z,1697900418721,0.4635683959860692,668
0.2699222564697265,0.3329706192016601,-0.2087783813476562,2023-10-21T15:00:18.740682Z,1697900418740,0.4767765412721069,669
0.2840876579284668,0.3405742645263672,-0.210301399230957,2023-10-21T15:00:18.760981Z,1697900418760,0.4908393887652618,670
0.3005213737487793,0.3479905128479004,-0.2118663787841797,2023-10-21T15:00:18.781155Z,1697900418781,0.5062586844401977,671
0.319638729095459,0.3554162979125976,-0.2137904167175293,2023-10-21T15:00:18.804322Z,1697900418804,0.5236372830881233,672
0.3426761627197265,0.3638544082641601,-0.2169325351715088,2023-10-21T15:00:18.821709Z,1697900418821,0.544863935056741,673
0.3711237907409668,0.3743166923522949,-0.2221505641937255,2023-10-21T15:00:18.841996Z,1697900418841,0.5720111252406705,674
0.4066128730773926,0.3876180648803711,-0.2301526069641113,2023-10-21T15:00:18.862246Z,1697900418862,0.6070848501373033,675
0.4510345458984375,0.4044675827026367,-0.241509199142456,2023-10-21T15:00:18.882472Z,1697900418882,0.652190831215492,676
0.507237434387207,0.4259710311889648,-0.257094144821167,2023-10-21T15:00:18.904073Z,1697900418904,0.7105199037023758,677
0.5773839950561523,0.4522080421447754,-0.2772338390350342,2023-10-21T15:00:18.923015Z,1697900418922,0.7840427237297194,678
0.6615571975708008,0.481454849243164,-0.301201581954956,2023-10-21T15:00:18.943344Z,1697900418943,0.8718824980980279,679
0.7580890655517578,0.5110130310058594,-0.3276965618133545,2023-10-21T15:00:18.963547Z,1697900418963,0.9711943089779852,680
0.8647556304931641,0.5384516716003418,-0.355494737625122,2023-10-21T15:00:18.983753Z,1697900418983,1.078938835892928,681
0.97918701171875,0.5618891716003418,-0.3835875988006592,2023-10-21T15:00:19.004082Z,1697900419004,1.1923364001128496,682
1.0984649658203125,0.5798473358154297,-0.4107866287231445,2023-10-21T15:00:19.024375Z,1697900419024,1.308278971903393,683
1.2190513610839844,0.5911736488342285,-0.4356842041015625,2023-10-21T15:00:19.044621Z,1697900419044,1.4231631072158604,684
1.3369464874267578,0.5952386856079102,-0.45686936378479,2023-10-21T15:00:19.064906Z,1697900419064,1.5331225060810036,685
1.4471025466918943,0.5915994644165039,-0.4729979038238525,2023-10-21T15:00:19.087458Z,1697900419087,1.6333470923113125,686
1.542867660522461,0.5799107551574707,-0.4825763702392578,2023-10-21T15:00:19.105395Z,1697900419105,1.7174449204986624,687
1.6178159713745115,0.5605995655059814,-0.4845654964447021,2023-10-21T15:00:19.125677Z,1697900419125,1.7794392685406968,688
1.6669273376464844,0.5350093841552734,-0.4785366058349609,2023-10-21T15:00:19.145904Z,1697900419145,1.8149047008731467,689
1.6864051818847656,0.504887580871582,-0.4642074108123779,2023-10-21T15:00:19.166158Z,1697900419166,1.820539048485168,690
1.6733675003051758,0.4717471599578857,-0.4412872791290283,2023-10-21T15:00:19.187417Z,1697900419187,1.793722006534743,691
1.624659538269043,0.4364724159240722,-0.4093613624572754,2023-10-21T15:00:19.206803Z,1697900419206,1.731358862346005,692
1.5383081436157229,0.3992102146148681,-0.368588924407959,2023-10-21T15:00:19.227027Z,1697900419226,1.631446761424815,693
1.4132213592529297,0.3594818115234375,-0.3197808265686035,2023-10-21T15:00:19.247337Z,1697900419247,1.4928769407107103,694
1.2511615753173828,0.3166167736053467,-0.2649757862091064,2023-10-21T15:00:19.270744Z,1697900419270,1.3175217782473534,695
1.0568180084228516,0.2700204849243164,-0.2072479724884033,2023-10-21T15:00:19.287988Z,1697900419287,1.1102824358271004,696
0.8374834060668945,0.2191479206085205,-0.1502332687377929,2023-10-21T15:00:19.308043Z,1697900419308,0.8786206812840722,697
0.6021957397460938,0.1633059978485107,-0.0971876382827758,2023-10-21T15:00:19.328300Z,1697900419328,0.631469710228944,698
0.3603391647338867,0.102027416229248,-0.0510700941085815,2023-10-21T15:00:19.348537Z,1697900419348,0.3779709801238591,699
0.117650032043457,0.0348601341247558,-0.0141071081161499,2023-10-21T15:00:19.370486Z,1697900419370,0.1235142481271823,700
-0.1227607727050781,-0.0380082130432128,0.0117607712745666,2023-10-21T15:00:19.389076Z,1697900419389,0.1290470740267239,701
-0.3576412200927734,-0.1153268814086914,0.0247915983200073,2023-10-21T15:00:19.409386Z,1697900419409,0.3765928241910121,702
-0.5751981735229492,-0.1923561096191406,0.0232281982898712,2023-10-21T15:00:19.429594Z,1697900419429,0.6069541670733806,703
-0.7548942565917969,-0.2601351737976074,0.0075149908661842,2023-10-21T15:00:19.449798Z,1697900419449,0.7984936583152754,704
-0.8884925842285156,-0.3132119178771972,-0.0187209099531173,2023-10-21T15:00:19.470505Z,1697900419470,0.9422692026161372,705
-0.9805593490600586,-0.3514165878295898,-0.0508202016353607,2023-10-21T15:00:19.490433Z,1697900419490,1.0428676560931096,706
-1.0434789657592771,-0.3788142204284668,-0.0866476893424987,2023-10-21T15:00:19.510722Z,1697900419510,1.113488386849756,707
-1.0809268951416016,-0.3970837593078613,-0.1242355704307556,2023-10-21T15:00:19.530950Z,1697900419530,1.1582369971239832,708
-1.0887088775634766,-0.4051170349121094,-0.1592718362808227,2023-10-21T15:00:19.554387Z,1697900419554,1.1725077184794006,709
-1.0685439109802246,-0.4040243625640869,-0.1872625350952148,2023-10-21T15:00:19.571468Z,1697900419571,1.1576221457317226,710
-1.0271291732788086,-0.3965024948120117,-0.2061147689819336,2023-10-21T15:00:19.591771Z,1697900419591,1.1201302892900602,711
-0.9683609008789062,-0.3831872940063476,-0.2152411937713623,2023-10-21T15:00:19.612026Z,1697900419611,1.063430349451733,712
-0.8985710144042969,-0.365410566329956,-0.2158763408660888,2023-10-21T15:00:19.632217Z,1697900419632,0.9937591984273042,713
-0.8295803070068359,-0.3475358486175537,-0.2123723030090332,2023-10-21T15:00:19.653825Z,1697900419653,0.9241680837018988,714
-0.7688055038452148,-0.3324220180511474,-0.207587718963623,2023-10-21T15:00:19.672791Z,1697900419672,0.8629362443960806,715
-0.7130565643310547,-0.318047285079956,-0.2012367248535156,2023-10-21T15:00:19.693101Z,1697900419693,0.8062877643323803,716
-0.6506867408752441,-0.2979116439819336,-0.1891326904296875,2023-10-21T15:00:19.713342Z,1697900419713,0.7402133185508334,717
-0.5779180526733398,-0.2695715427398681,-0.1700248718261718,2023-10-21T15:00:19.733537Z,1697900419733,0.6599746580743869,718
-0.5017499923706055,-0.2368607521057129,-0.1473186016082763,2023-10-21T15:00:19.753815Z,1697900419753,0.5740721567118585,719
-0.4264650344848633,-0.2028195858001709,-0.1237449645996093,2023-10-21T15:00:19.774161Z,1697900419774,0.4881813456965424,720
-0.3508119583129883,-0.1674823760986328,-0.0999283790588378,2023-10-21T15:00:19.794445Z,1697900419794,0.4013789448144539,721
-0.2733335494995117,-0.1306068897247314,-0.0760095119476318,2023-10-21T15:00:19.814645Z,1697900419814,0.3123248866678532,722
-0.1970710754394531,-0.0941348075866699,-0.0532019138336181,2023-10-21T15:00:19.837022Z,1697900419836,0.2247861526202219,723
-0.1261720657348632,-0.0603561401367187,-0.0328590869903564,2023-10-21T15:00:19.855277Z,1697900419855,0.1436731478803387,724
-0.0594186782836914,-0.0286002159118652,-0.0148146152496337,2023-10-21T15:00:19.875499Z,1697900419875,0.0675871622734732,725
0.0049142837524414,0.0023951530456542,0.0011637210845947,2023-10-21T15:00:19.895749Z,1697900419895,0.0055893818687173,726
0.0636186599731445,0.0316352844238281,0.0141749382019042,2023-10-21T15:00:19.915863Z,1697900419915,0.0724503553502871,727
0.1062517166137695,0.0543403625488281,0.02207612991333,2023-10-21T15:00:19.936930Z,1697900419936,0.1213658015969123,728
0.1225271224975586,0.0650477409362793,0.023599624633789,2023-10-21T15:00:19.956479Z,1697900419956,0.1407161917879416,729
0.1157293319702148,0.0642967224121093,0.0205379724502563,2023-10-21T15:00:19.976767Z,1697900419976,0.1339744569072011,730
0.0992670059204101,0.0580062866210937,0.0161099433898925,2023-10-21T15:00:19.996944Z,1697900419996,0.116095641726969,731
0.086893081665039,0.0534629821777343,0.0126662254333496,2023-10-21T15:00:20.020177Z,1697900420020,0.1028062807970033,732
0.0814447402954101,0.0526623725891113,0.0103566646575927,2023-10-21T15:00:20.037573Z,1697900420037,0.0975388728217166,733
0.0761852264404296,0.0515942573547363,0.0081679224967956,2023-10-21T15:00:20.057836Z,1697900420057,0.0923735410043371,734
0.0672483444213867,0.0474529266357421,0.0058652758598327,2023-10-21T15:00:20.078062Z,1697900420078,0.0825137657280681,735
0.0555696487426757,0.0405726432800293,0.0037817955017089,2023-10-21T15:00:20.098271Z,1697900420098,0.068908832680068,736
0.0418176651000976,0.0313448905944824,0.0020915865898132,2023-10-21T15:00:20.120147Z,1697900420120,0.0523029063749489,737
0.0299944877624511,0.0228891372680664,0.0009843111038208,2023-10-21T15:00:20.138914Z,1697900420138,0.0377432215021097,738
0.0286345481872558,0.0220332145690917,0.000443585216999,2023-10-21T15:00:20.159240Z,1697900420159,0.0361330411393872,739
0.0425477027893066,0.0326743125915527,-0.0001035220921039,2023-10-21T15:00:20.179447Z,1697900420179,0.0536463273002096,740
0.0689678192138671,0.0524263381958007,-0.0014568865299224,2023-10-21T15:00:20.199692Z,1697900420199,0.0866441200665007,741
0.0966811180114746,0.0724391937255859,-0.0038381814956665,2023-10-21T15:00:20.220002Z,1697900420219,0.1208693799303831,742
0.1212444305419921,0.0894145965576171,-0.0069837272167205,2023-10-21T15:00:20.240251Z,1697900420240,0.1508109891912752,743
0.1497449874877929,0.1085948944091796,-0.0112502574920654,2023-10-21T15:00:20.260472Z,1697900420260,0.185318592329798,744
0.1874971389770507,0.1335821151733398,-0.0173956155776977,2023-10-21T15:00:20.280697Z,1697900420280,0.2308721855488225,745
0.2341909408569336,0.1639275550842285,-0.0259521007537841,2023-10-21T15:00:20.303470Z,1697900420303,0.2870385890936671,746
0.2866458892822265,0.1973404884338379,-0.0369024276733398,2023-10-21T15:00:20.321267Z,1697900420321,0.3499584595146833,747
0.3424892425537109,0.2321290969848632,-0.04990816116333,2023-10-21T15:00:20.341546Z,1697900420341,0.4167416747611493,748
0.3999061584472656,0.2669286727905273,-0.0643402338027954,2023-10-21T15:00:20.361778Z,1697900420361,0.4850933081455157,749
0.4558906555175781,0.2996439933776855,-0.0792933702468872,2023-10-21T15:00:20.381968Z,1697900420381,0.5512805557251983,750
0.5087509155273438,0.3293013572692871,-0.0940898656845092,2023-10-21T15:00:20.403290Z,1697900420403,0.6132860513445859,751
0.5597753524780273,0.356940746307373,-0.1087300777435302,2023-10-21T15:00:20.422574Z,1697900420422,0.6727387096209629,752
0.6094207763671875,0.383035659790039,-0.1231194734573364,2023-10-21T15:00:20.442864Z,1697900420442,0.7302522879684719,753
0.6541099548339844,0.4057264328002929,-0.136520504951477,2023-10-21T15:00:20.463094Z,1697900420463,0.7817362851742101,754
0.6887331008911133,0.4225111007690429,-0.1479518413543701,2023-10-21T15:00:20.486564Z,1697900420486,0.8214369494345294,755
0.708958625793457,0.4314188957214355,-0.1565637588500976,2023-10-21T15:00:20.503740Z,1697900420503,0.8445453257568367,756
0.7138490676879883,0.4324598312377929,-0.1622123718261718,2023-10-21T15:00:20.523947Z,1697900420523,0.8502439947725021,757
0.7048587799072266,0.4269361495971679,-0.1651182174682617,2023-10-21T15:00:20.544165Z,1697900420544,0.8404548775425458,758
0.6847000122070312,0.416684627532959,-0.1657130718231201,2023-10-21T15:00:20.564368Z,1697900420564,0.818474805789185,759
0.2478933334350586,0.2124791145324707,-0.1370453834533691,2023-10-21T14:59:12.763285Z,1697900352763,0.3540902653278241,760
0.2121510505676269,0.1860804557800293,-0.118643045425415,2023-10-21T14:59:12.783989Z,1697900352783,0.3061211794503417,761
0.1816353797912597,0.1628661155700683,-0.1023659706115722,2023-10-21T14:59:12.803794Z,1697900352803,0.2645667680039337,762
0.1544666290283203,0.1415567398071289,-0.0874886512756347,2023-10-21T14:59:12.824095Z,1697900352824,0.2270517874191382,763
0.1288247108459472,0.1207060813903808,-0.0732157230377197,2023-10-21T14:59:12.844344Z,1697900352844,0.1911185661025616,764
0.1053390502929687,0.1009440422058105,-0.0600380897521972,2023-10-21T14:59:12.867268Z,1697900352867,0.157767510579859,765
0.0857696533203125,0.0839982032775878,-0.0489816665649414,2023-10-21T14:59:12.884845Z,1697900352884,0.1296585332480228,766
0.0720014572143554,0.0719480514526367,-0.0411508083343505,2023-10-21T14:59:12.906258Z,1697900352906,0.1097912609245032,767
0.06455659866333,0.0656633377075195,-0.036860704421997,2023-10-21T14:59:12.925410Z,1697900352925,0.0991863895923016,768
0.0625739097595214,0.064610481262207,-0.0356371402740478,2023-10-21T14:59:12.945808Z,1697900352945,0.0967471665654291,769
0.0649776458740234,0.0679492950439453,-0.0368804931640625,2023-10-21T14:59:12.967549Z,1697900352967,0.1009919399572242,770
0.0711474418640136,0.0752253532409668,-0.0402584075927734,2023-10-21T14:59:12.986364Z,1697900352986,0.111092536364633,771
0.0793142318725586,0.0847339630126953,-0.044795274734497,2023-10-21T14:59:13.006460Z,1697900353006,0.1244074294562421,772
0.0884022712707519,0.0954217910766601,-0.0499336719512939,2023-10-21T14:59:13.026699Z,1697900353026,0.1393328797256584,773
0.0981674194335937,0.1070780754089355,-0.0555629730224609,2023-10-21T14:59:13.046829Z,1697900353046,0.1555307057870808,774
0.1091971397399902,0.1203012466430664,-0.0620293617248535,2023-10-21T14:59:13.067197Z,1697900353067,0.1739081567588581,775
0.1229124069213867,0.1365637779235839,-0.0701229572296142,2023-10-21T14:59:13.087529Z,1697900353087,0.1966579628354692,776
0.137606143951416,0.1539478302001953,-0.0788514614105224,2023-10-21T14:59:13.107746Z,1697900353107,0.2210270079494836,777
0.1507792472839355,0.1696376800537109,-0.0868003368377685,2023-10-21T14:59:13.127971Z,1697900353127,0.2429930500665923,778
0.1613492965698242,0.1823987960815429,-0.0933723449707031,2023-10-21T14:59:13.150426Z,1697900353150,0.2608089552160764,779
0.169281005859375,0.1920781135559082,-0.0985357761383056,2023-10-21T14:59:13.168508Z,1697900353168,0.274334394181875,780
0.175262451171875,0.199162483215332,-0.1026132106781005,2023-10-21T14:59:13.188812Z,1697900353188,0.2844505097849879,781
0.1804475784301757,0.2045817375183105,-0.1061298847198486,2023-10-21T14:59:13.209055Z,1697900353209,0.2927090164616964,782
0.1853475570678711,0.2086038589477539,-0.1092250347137451,2023-10-21T14:59:13.229282Z,1697900353229,0.2996654719635563,783
0.189732551574707,0.210886001586914,-0.1117398738861084,2023-10-21T14:59:13.250122Z,1697900353250,0.3048887439845035,784
0.192631721496582,0.2105593681335449,-0.1132347583770752,2023-10-21T14:59:13.269856Z,1697900353269,0.3070249796681843,785
0.1924419403076172,0.2062916755676269,-0.1130027770996093,2023-10-21T14:59:13.290177Z,1697900353290,0.3039075244709869,786
0.1893768310546875,0.1984906196594238,-0.1112303733825683,2023-10-21T14:59:13.310360Z,1697900353310,0.2960309210131996,787
0.1837949752807617,0.1875848770141601,-0.1080009937286377,2023-10-21T14:59:13.333495Z,1697900353333,0.2839593169262925,788
0.1758503913879394,0.1737513542175293,-0.1031997203826904,2023-10-21T14:59:13.350894Z,1697900353350,0.2678863108312597,789
0.1659755706787109,0.157625675201416,-0.0969440937042236,2023-10-21T14:59:13.371207Z,1697900353371,0.2485797675776516,790
0.1549482345581054,0.1404252052307129,-0.0897583961486816,2023-10-21T14:59:13.391468Z,1697900353391,0.2275626580437685,791
0.1443095207214355,0.123971939086914,-0.082672119140625,2023-10-21T14:59:13.411692Z,1697900353411,0.2074342274915633,792
0.1352696418762207,0.1095290184020996,-0.0764918327331543,2023-10-21T14:59:13.433527Z,1697900353433,0.1901196527461728,793
0.1294350624084472,0.0982961654663086,-0.0721676349639892,2023-10-21T14:59:13.452203Z,1697900353452,0.1778306471403457,794
0.1278843879699707,0.0906586647033691,-0.07023286819458,2023-10-21T14:59:13.472513Z,1697900353472,0.1717732981201942,795
0.1310391426086425,0.086277961730957,-0.0707745552062988,2023-10-21T14:59:13.492765Z,1697900353492,0.1721167662974937,796
0.1404709815979004,0.0854387283325195,-0.0745015144348144,2023-10-21T14:59:13.512903Z,1697900353512,0.1805058132671538,797
0.1570172309875488,0.0877742767333984,-0.0817432403564453,2023-10-21T14:59:13.533350Z,1697900353533,0.1975871752595295,798
0.1795740127563476,0.091867446899414,-0.0919170379638671,2023-10-21T14:59:13.553543Z,1697900353553,0.2216646018769901,799
0.2035961151123047,0.0950286388397216,-0.1028695106506347,2023-10-21T14:59:13.573791Z,1697900353573,0.2471112229544706,800
0.2240419387817382,0.0951347351074218,-0.1123175621032714,2023-10-21T14:59:13.594082Z,1697900353594,0.2680683549281072,801
0.2381372451782226,0.0916485786437988,-0.1191349029541015,2023-10-21T14:59:13.616735Z,1697900353616,0.2816059917870794,802
0.2459888458251953,0.0853111743927002,-0.1235332489013671,2023-10-21T14:59:13.634545Z,1697900353634,0.2881821860053125,803
0.2473678588867187,0.0766294002532959,-0.1254196166992187,2023-10-21T14:59:13.654853Z,1697900353654,0.2877377327469554,804
0.243316650390625,0.0664875507354736,-0.1252574920654297,2023-10-21T14:59:13.675096Z,1697900353675,0.2816256843376274,805
0.2372999191284179,0.0562593936920166,-0.1247024536132812,2023-10-21T14:59:13.695357Z,1697900353695,0.2739107024818847,806
0.2327957153320312,0.0468590259552001,-0.1254820823669433,2023-10-21T14:59:13.716509Z,1697900353716,0.268580279219392,807
0.2330188751220703,0.0386857986450195,-0.1293911933898925,2023-10-21T14:59:13.735894Z,1697900353735,0.2693259514172716,808
0.2385387420654297,0.0313665866851806,-0.1368927955627441,2023-10-21T14:59:13.756229Z,1697900353756,0.2768108229521017,809
0.247446060180664,0.0242530107498168,-0.1468825340270996,2023-10-21T14:59:13.776388Z,1697900353776,0.2887771459648176,810
0.2567911148071289,0.0169330835342407,-0.1573343276977539,2023-10-21T14:59:13.796660Z,1697900353796,0.3016330496380823,811
0.2634000778198242,0.0094055235385894,-0.1658692359924316,2023-10-21T14:59:13.816921Z,1697900353816,0.3114171933552118,812
0.2668581008911133,0.0021168664097785,-0.1722755432128906,2023-10-21T14:59:13.837377Z,1697900353837,0.3176422357368506,813
0.2616996765136719,-0.0042037963867187,-0.1735177040100097,2023-10-21T14:59:13.857617Z,1697900353857,0.3140267284743877,814
0.2387371063232422,-0.0083434283733367,-0.163339614868164,2023-10-21T14:59:13.877714Z,1697900353877,0.289387022027416,815
0.1914668083190918,-0.0092215836048126,-0.1357555389404297,2023-10-21T14:59:13.899812Z,1697900353899,0.2348917679381014,816
0.1207485198974609,-0.0067421793937683,-0.0887775421142578,2023-10-21T14:59:13.918249Z,1697900353918,0.1500237115400565,817
0.0350861549377441,-0.0020546913146972,-0.02667236328125,2023-10-21T14:59:13.938556Z,1697900353938,0.0441211399186495,818
-0.0600380897521972,0.0033943355083465,0.0470209121704101,2023-10-21T14:59:13.958793Z,1697900353958,0.0763351813777469,819
-0.16135835647583,0.0080279111862182,0.1299366950988769,2023-10-21T14:59:13.978955Z,1697900353978,0.2073270635874953,820
-0.2655439376831054,0.0101369023323059,0.2200450897216797,2023-10-21T14:59:13.999700Z,1697900353999,0.3450162041698414,821
-0.3686766624450683,0.0079397410154342,0.3151617050170898,2023-10-21T14:59:14.019585Z,1697900354019,0.4850901166054676,822
-0.4699444770812988,-0.0001918538473546,0.414217472076416,2023-10-21T14:59:14.039912Z,1697900354039,0.6264375168526312,823
-0.5665383338928223,-0.0152297168970108,0.5109663009643555,2023-10-21T14:59:14.060083Z,1697900354060,0.7630754803871072,824
-0.6540646553039551,-0.0368145108222961,0.5955190658569336,2023-10-21T14:59:14.082937Z,1697900354082,0.88532414364688,825
-0.7288169860839844,-0.063629150390625,0.659660816192627,2023-10-21T14:59:14.100615Z,1697900354100,0.9850762713637448,826
-0.7883777618408203,-0.0943739414215087,0.7006454467773438,2023-10-21T14:59:14.120918Z,1697900354120,1.058938137132852,827
-0.8350515365600586,-0.1290100812911987,0.7224521636962891,2023-10-21T14:59:14.141164Z,1697900354141,1.1117067053029437,828
-0.8695058822631836,-0.1670819520950317,0.7268471717834473,2023-10-21T14:59:14.161380Z,1697900354161,1.1455407758503229,829
-0.8885359764099121,-0.2064026594161987,0.7118487358093262,2023-10-21T14:59:14.182865Z,1697900354182,1.1570768608273745,830
-0.8885798454284668,-0.243565559387207,0.6762490272521973,2023-10-21T14:59:14.201959Z,1697900354201,1.1428959140187809,831
-0.8670063018798828,-0.2744953632354736,0.6213927268981934,2023-10-21T14:59:14.222242Z,1697900354222,1.1014429413179685,832
-0.8226380348205566,-0.2953698635101318,0.5512113571166992,2023-10-21T14:59:14.242464Z,1697900354242,1.0333492404883524,833
-0.7554221153259277,-0.3029890060424804,0.4707159996032715,2023-10-21T14:59:14.262810Z,1697900354262,0.9402331957491272,834
-0.6656436920166016,-0.2943286895751953,0.3848185539245605,2023-10-21T14:59:14.283421Z,1697900354283,0.8232838038447823,835
-0.5560450553894043,-0.2679383754730224,0.2986428737640381,2023-10-21T14:59:14.303307Z,1697900354303,0.6856855275738079,836
-0.4323348999023437,-0.2248764038085937,0.2168421745300293,2023-10-21T14:59:14.323550Z,1697900354323,0.5333885931648397,837
-0.3017992973327636,-0.1680741310119629,0.1420707702636718,2023-10-21T14:59:14.343771Z,1697900354343,0.3735181831575129,838
-0.1666440963745117,-0.0984249114990234,0.0737369060516357,2023-10-21T14:59:14.366116Z,1697900354366,0.2071107176708532,839
-0.026954174041748,-0.0166959762573242,0.0112080574035644,2023-10-21T14:59:14.384387Z,1697900354384,0.0336289112553405,840
0.115267276763916,0.0740323066711425,-0.0450763702392578,2023-10-21T14:59:14.404633Z,1697900354404,0.1442193006416476,841
0.254584789276123,0.1679749488830566,-0.0942127704620361,2023-10-21T14:59:14.424858Z,1697900354424,0.319225695239537,842
0.3840475082397461,0.2587532997131347,-0.1358730792999267,2023-10-21T14:59:14.445190Z,1697900354445,0.4826046543248804,843
0.500178337097168,0.3426265716552734,-0.1710586547851562,2023-10-21T14:59:14.466111Z,1697900354466,0.6299463468283959,844
0.6023626327514648,0.4179925918579101,-0.2009267807006836,2023-10-21T14:59:14.485670Z,1697900354485,0.7602171527834071,845
0.6892867088317871,0.4831662178039551,-0.2254643440246582,2023-10-21T14:59:14.505968Z,1697900354505,0.8714355578157258,846
0.7590217590332031,0.5360665321350098,-0.2439556121826172,2023-10-21T14:59:14.526150Z,1697900354526,0.9607266511742604,847
0.8103837966918945,0.5755572319030762,-0.2571897506713867,2023-10-21T14:59:14.549434Z,1697900354549,1.0267105692390197,848
0.8392524719238281,0.5998497009277344,-0.2662343978881836,2023-10-21T14:59:14.566701Z,1697900354566,1.0653849679586398,849
0.8436288833618164,0.6088724136352539,-0.2718696594238281,2023-10-21T14:59:14.586949Z,1697900354586,1.075336422076158,850
0.8265113830566406,0.6051020622253418,-0.2746648788452148,2023-10-21T14:59:14.607251Z,1697900354607,1.0605236290166375,851
0.7945547103881836,0.5921649932861328,-0.2745912075042724,2023-10-21T14:59:14.627538Z,1697900354627,1.0282883342293982,852
0.7535781860351562,0.5725231170654297,-0.2716984748840332,2023-10-21T14:59:14.649048Z,1697900354649,0.9846232087944412,853
0.7053060531616211,0.5465946197509766,-0.2657351493835449,2023-10-21T14:59:14.668057Z,1697900354668,0.9310410713738858,854
0.6500887870788574,0.5143947601318359,-0.2562518119812011,2023-10-21T14:59:14.688345Z,1697900354688,0.8676879574365418,855
0.5910539627075195,0.4779157638549804,-0.2439692020416259,2023-10-21T14:59:14.708599Z,1697900354708,0.7982914478548414,856
0.5323610305786133,0.4401497840881347,-0.2301321029663086,2023-10-21T14:59:14.728756Z,1697900354728,0.7280802731342544,857
0.4762716293334961,0.4027156829833984,-0.2152407169342041,2023-10-21T14:59:14.749101Z,1697900354749,0.6598053898348499,858
0.4233579635620117,0.3659882545471191,-0.1992268562316894,2023-10-21T14:59:14.769391Z,1697900354769,0.5940292147881135,859
0.3735775947570801,0.329993724822998,-0.1820356845855713,2023-10-21T14:59:14.789632Z,1697900354789,0.5306534351057941,860
0.3274846076965332,0.2953567504882812,-0.1642038822174072,2023-10-21T14:59:14.809847Z,1697900354809,0.4705791041604134,861
0.2862157821655273,0.2632627487182617,-0.1467759609222412,2023-10-21T14:59:14.832502Z,1697900354832,0.4156560254921928,862
0.2507152557373047,0.2348184585571289,-0.1307709217071533,2023-10-21T14:59:14.850394Z,1697900354850,0.3675579980121594,863
0.2208461761474609,0.2102670669555664,-0.1165835857391357,2023-10-21T14:59:14.870709Z,1697900354870,0.3264613383370937,864
0.1959376335144043,0.1893496513366699,-0.1042408943176269,2023-10-21T14:59:14.890933Z,1697900354890,0.2917379144655047,865
0.1762785911560058,0.1727294921875,-0.094224214553833,2023-10-21T14:59:14.911258Z,1697900354911,0.2641738476450396,866
0.1616959571838379,0.1606197357177734,-0.0867159366607666,2023-10-21T14:59:14.932653Z,1697900354932,0.2438522826274115,867
0.1508088111877441,0.1519660949707031,-0.0811705589294433,2023-10-21T14:59:14.951771Z,1697900354951,0.2289664848606093,868
0.1423068046569824,0.1456060409545898,-0.0769770145416259,2023-10-21T14:59:14.972024Z,1697900354971,0.2176644357305343,869
0.1358966827392578,0.1412677764892578,-0.0739643573760986,2023-10-21T14:59:14.992274Z,1697900354992,0.2095118593679427,870
0.1333155632019043,0.1407241821289062,-0.0730297565460205,2023-10-21T14:59:15.015532Z,1697900355015,0.2071465186018377,871
0.1361021995544433,0.1457042694091797,-0.0749905109405517,2023-10-21T14:59:15.032791Z,1697900355032,0.213019059191297,872
0.1438269615173339,0.1559429168701172,-0.0796167850494384,2023-10-21T14:59:15.053053Z,1697900355053,0.2265904248702433,873
0.1551170349121093,0.1701154708862304,-0.0861437320709228,2023-10-21T14:59:15.073305Z,1697900355073,0.2458074663834998,874
0.1682915687561035,0.1864795684814453,-0.0936276912689209,2023-10-21T14:59:15.093506Z,1697900355093,0.2680724270561311,875
0.1809120178222656,0.2023711204528808,-0.1006746292114257,2023-10-21T14:59:15.115525Z,1697900355115,0.2895144375549105,876
0.1918354034423828,0.2163858413696289,-0.1065592765808105,2023-10-21T14:59:15.134104Z,1697900355134,0.308185875381351,877
0.2020072937011718,0.2293648719787597,-0.1117184162139892,2023-10-21T14:59:15.154406Z,1697900355154,0.3254169567303868,878
0.2126531600952148,0.2425618171691894,-0.1167876720428466,2023-10-21T14:59:15.174633Z,1697900355174,0.3430699083103731,879
0.2235512733459472,0.2557630538940429,-0.1217470169067382,2023-10-21T14:59:15.194808Z,1697900355194,0.360849342077121,880
0.2320561408996582,0.2662091255187988,-0.1253659725189209,2023-10-21T14:59:15.215402Z,1697900355215,0.3747452175870166,881
0.2357487678527832,0.2713994979858398,-0.1265923976898193,2023-10-21T14:59:15.235483Z,1697900355235,0.3811309541403436,882
0.2344307899475097,0.2712278366088867,-0.1255180835723877,2023-10-21T14:59:15.255739Z,1697900355255,0.3798382865518367,883
0.229224681854248,0.2669496536254883,-0.1228559017181396,2023-10-21T14:59:15.276061Z,1697900355276,0.3726924267125998,884
0.2215361595153808,0.2600650787353515,-0.1193568706512451,2023-10-21T14:59:15.298959Z,1697900355298,0.3618814415276181,885
0.2124924659729004,0.2517380714416504,-0.1155364513397216,2023-10-21T14:59:15.316466Z,1697900355316,0.3491042484653854,886
0.2028732299804687,0.2427859306335449,-0.111682653427124,2023-10-21T14:59:15.336768Z,1697900355336,0.335522831760862,887
0.192908763885498,0.2334141731262207,-0.1077728271484375,2023-10-21T14:59:15.357001Z,1697900355356,0.3214202073168318,888
0.1827588081359863,0.2237272262573242,-0.1037509441375732,2023-10-21T14:59:15.377197Z,1697900355377,0.3069509930420815,889
0.1728682518005371,0.2141981124877929,-0.099750280380249,2023-10-21T14:59:15.398721Z,1697900355398,0.2927701868528375,890
0.1635732650756836,0.2051892280578613,-0.0958895683288574,2023-10-21T14:59:15.417836Z,1697900355417,0.2793808183694712,891
0.1552348136901855,0.1971240043640136,-0.09232759475708,2023-10-21T14:59:15.438136Z,1697900355438,0.2673576354465266,892
0.1481389999389648,0.1903538703918457,-0.0892202854156494,2023-10-21T14:59:15.458322Z,1697900355458,0.2571770180356755,893
0.1425380706787109,0.1851663589477539,-0.0867159366607666,2023-10-21T14:59:15.478477Z,1697900355478,0.2492455330587325,894
0.1382584571838379,0.1813001632690429,-0.08473801612854,2023-10-21T14:59:15.498844Z,1697900355498,0.2432399670318129,895
0.13493013381958,0.1782512664794922,-0.0831022262573242,2023-10-21T14:59:15.519128Z,1697900355519,0.238507096378779,896
0.1320376396179199,0.1753683090209961,-0.0815608501434326,2023-10-21T14:59:15.539462Z,1697900355539,0.2341797479733778,897
0.1289081573486328,0.1717872619628906,-0.0797550678253173,2023-10-21T14:59:15.559592Z,1697900355559,0.2291048826357649,898
0.1249885559082031,0.1668086051940918,-0.0773954391479492,2023-10-21T14:59:15.582025Z,1697900355581,0.2223450109080937,899
0.1352310180664062,0.2637357711791992,-0.0353261232376098,2023-10-21T14:54:52.255854Z,1697900092255,0.2984826967007676,900
0.1412973403930664,0.2753190994262695,-0.0381042957305908,2023-10-21T14:54:52.276038Z,1697900092276,0.3117971812960637,901
0.1463651657104492,0.2854728698730469,-0.0407829284667968,2023-10-21T14:54:52.296255Z,1697900092296,0.323389499553292,902
0.1503868103027343,0.294036865234375,-0.0433297157287597,2023-10-21T14:54:52.316587Z,1697900092316,0.3330935830889327,903
0.1534094810485839,0.300973892211914,-0.0457210540771484,2023-10-21T14:54:52.336884Z,1697900092336,0.3408961241415194,904
0.1555342674255371,0.3063106536865234,-0.0479261875152587,2023-10-21T14:54:52.357153Z,1697900092357,0.3468631493185914,905
0.1569852828979492,0.3103160858154297,-0.0499553680419921,2023-10-21T14:54:52.377423Z,1697900092377,0.3513345854859284,906
0.158146858215332,0.3136205673217773,-0.0518981218338012,2023-10-21T14:54:52.399728Z,1697900092399,0.355051692096362,907
0.1594090461730957,0.316899299621582,-0.0538681745529174,2023-10-21T14:54:52.417905Z,1697900092417,0.358801045611811,908
0.161205768585205,0.3209562301635742,-0.0560091733932495,2023-10-21T14:54:52.438210Z,1697900092438,0.3635068486427112,909
0.1634626388549804,0.3256044387817383,-0.0582866668701171,2023-10-21T14:54:52.458432Z,1697900092458,0.3689656086827504,910
0.1661720275878906,0.3308067321777344,-0.0606703758239746,2023-10-21T14:54:52.478693Z,1697900092478,0.3751361503633105,911
0.169196605682373,0.3363399505615234,-0.0630965232849121,2023-10-21T14:54:52.499437Z,1697900092499,0.3817502127947119,912
0.1724905967712402,0.3422002792358398,-0.0655397176742553,2023-10-21T14:54:52.519478Z,1697900092519,0.3887794897836129,913
0.1759943962097168,0.3483781814575195,-0.0679762363433837,2023-10-21T14:54:52.539532Z,1697900092539,0.3961844942956282,914
0.1794004440307617,0.3543863296508789,-0.0702962875366211,2023-10-21T14:54:52.559726Z,1697900092559,0.4033804135097379,915
0.1824474334716797,0.3598041534423828,-0.0724034309387207,2023-10-21T14:54:52.582748Z,1697900092582,0.4098638208313718,916
0.1847743988037109,0.3639774322509765,-0.0741170644760131,2023-10-21T14:54:52.600275Z,1697900092600,0.4148668327160277,917
0.1861071586608886,0.3663625717163086,-0.0752757787704467,2023-10-21T14:54:52.620595Z,1697900092620,0.4177605191122227,918
0.1860384941101074,0.3661127090454101,-0.0756535530090332,2023-10-21T14:54:52.640830Z,1697900092640,0.4175790908297687,919
0.1842670440673828,0.3626174926757812,-0.0750908851623535,2023-10-21T14:54:52.661049Z,1697900092661,0.4136235372391987,920
0.1806221008300781,0.3555364608764648,-0.0735280513763427,2023-10-21T14:54:52.682713Z,1697900092682,0.4055081906201587,921
0.1754040718078613,0.345438003540039,-0.0711334943771362,2023-10-21T14:54:52.701619Z,1697900092701,0.393895895788224,922
0.1691141128540039,0.333287239074707,-0.0681650638580322,2023-10-21T14:54:52.721900Z,1697900092721,0.3799032019175506,923
0.1622366905212402,0.3200111389160156,-0.0648490190505981,2023-10-21T14:54:52.742120Z,1697900092742,0.3646001481807638,924
0.155125617980957,0.306314468383789,-0.061354637145996,2023-10-21T14:54:52.762286Z,1697900092762,0.3487934953443569,925
0.1478734016418457,0.2923707962036133,-0.0577049255371093,2023-10-21T14:54:52.782804Z,1697900092782,0.3326816553660702,926
0.1406059265136718,0.2784175872802734,-0.0539696216583251,2023-10-21T14:54:52.802961Z,1697900092802,0.3165424134925357,927
0.1333761215209961,0.2645673751831054,-0.0501960515975952,2023-10-21T14:54:52.823217Z,1697900092823,0.3005074531509161,928
0.1264829635620117,0.2514400482177734,-0.0465385913848876,2023-10-21T14:54:52.843450Z,1697900092843,0.2852821032018569,929
0.1202516555786132,0.2397394180297851,-0.043155550956726,2023-10-21T14:54:52.866100Z,1697900092866,0.271657598467328,930
0.1148676872253418,0.2298831939697265,-0.0401289463043212,2023-10-21T14:54:52.884020Z,1697900092883,0.2600984443815782,931
-0.1675648689270019,-0.1594300270080566,0.0093069076538085,2023-10-21T14:54:56.957056Z,1697900096957,0.2314790213829095,932
-0.1673088073730468,-0.1593556404113769,0.0082406103610992,2023-10-21T14:54:56.979844Z,1697900096979,0.2312020000229989,933
-0.1671590805053711,-0.1599988937377929,0.007413774728775,2023-10-21T14:54:56.997495Z,1697900096997,0.2315097584302824,934
-0.1681156158447265,-0.1623344421386718,0.0069261789321899,2023-10-21T14:54:57.017822Z,1697900097017,0.23380184633558,935
-0.1723613739013672,-0.1685342788696289,0.0068646073341369,2023-10-21T14:54:57.038046Z,1697900097038,0.2411625368939476,936
-0.1826305389404297,-0.1814537048339843,0.0073094964027404,2023-10-21T14:54:57.058293Z,1697900097058,0.2575515278333875,937
-0.1994061470031738,-0.2019462585449218,0.0083589851856231,2023-10-21T14:54:57.079798Z,1697900097079,0.2839277644688472,938
-0.2198805809020996,-0.2276272773742675,0.0101576745510101,2023-10-21T14:54:57.098884Z,1697900097098,0.3166462152228426,939
-0.239572525024414,-0.2542552947998047,0.0129056274890899,2023-10-21T14:54:57.119133Z,1697900097119,0.3495816140777375,940
-0.2549958229064941,-0.2783336639404297,0.0167757868766784,2023-10-21T14:54:57.139336Z,1697900097139,0.3778543703698501,941
-0.2645096778869629,-0.2980604171752929,0.02178555727005,2023-10-21T14:54:57.159530Z,1697900097159,0.3990989758044251,942
-0.2662210464477539,-0.3108844757080078,0.0275633931159973,2023-10-21T14:54:57.179864Z,1697900097179,0.4102225535584886,943
-0.2584118843078613,-0.3137373924255371,0.0332800149917602,2023-10-21T14:54:57.200252Z,1697900097200,0.407817867136013,944
-0.2400450706481933,-0.3036894798278808,0.0377537012100219,2023-10-21T14:54:57.220434Z,1697900097220,0.3889399414507085,945
-0.2113595008850097,-0.2790169715881347,0.0397937297821044,2023-10-21T14:54:57.240654Z,1697900097240,0.3522880213384292,946
-0.173799991607666,-0.2395892143249511,0.0384701490402221,2023-10-21T14:54:57.262945Z,1697900097262,0.2984784432263895,947
-0.1293511390686035,-0.1862835884094238,0.0331842899322509,2023-10-21T14:54:57.281204Z,1697900097281,0.2292040348408912,948
-0.0804924964904785,-0.1210980415344238,0.0236541032791137,2023-10-21T14:54:57.301495Z,1697900097301,0.1473203796379907,949
-0.0306553840637207,-0.0481529235839843,0.0102035999298095,2023-10-21T14:54:57.321714Z,1697900097321,0.0579876717355237,950
0.0153322219848632,0.0251073837280273,-0.0057157278060913,2023-10-21T14:54:57.342062Z,1697900097342,0.0299687719637101,951
0.0527477264404296,0.0898237228393554,-0.0218021869659423,2023-10-21T14:54:57.362925Z,1697900097362,0.1064234898218134,952
0.0794301033020019,0.1402273178100586,-0.036144733428955,2023-10-21T14:54:57.382584Z,1697900097382,0.1651644142223744,953
0.0964455604553222,0.1759958267211914,-0.0481853485107421,2023-10-21T14:54:57.402840Z,1697900097402,0.2063930836193851,954
0.1060776710510253,0.1996192932128906,-0.0582222938537597,2023-10-21T14:54:57.423032Z,1697900097422,0.2334312961451764,955
0.1099557876586914,0.2131185531616211,-0.0664365291595459,2023-10-21T14:54:57.446144Z,1697900097446,0.2488445405230204,956
0.1089968681335449,0.2177152633666992,-0.0727038383483886,2023-10-21T14:54:57.463583Z,1697900097463,0.2540986054199062,957
0.1054067611694336,0.2174940109252929,-0.0778510570526123,2023-10-21T14:54:57.483906Z,1697900097483,0.2539193123273819,958
0.1036610603332519,0.2213888168334961,-0.0849688053131103,2023-10-21T14:54:57.504089Z,1697900097504,0.2588017030946408,959
0.1081104278564453,0.2390165328979492,-0.0984108448028564,2023-10-21T14:54:57.524330Z,1697900097524,0.2801811235338169,960
0.1208338737487793,0.2758083343505859,-0.1218373775482177,2023-10-21T14:54:57.546121Z,1697900097546,0.3248313545675778,961
0.1417775154113769,0.3322839736938476,-0.1573545932769775,2023-10-21T14:54:57.564890Z,1697900097564,0.3940481836975775,962
0.1690740585327148,0.4034414291381836,-0.2044010162353515,2023-10-21T14:54:57.585190Z,1697900097585,0.4828362035430114,963
0.2013235092163086,0.4825162887573242,-0.2610707283020019,2023-10-21T14:54:57.605396Z,1697900097605,0.5843894672694301,964
0.2395641803741455,0.5660839080810547,-0.3275284767150879,2023-10-21T14:54:57.625620Z,1697900097625,0.6965033313387395,965
0.2839813232421875,0.6531672477722168,-0.4048666954040527,2023-10-21T14:54:57.646061Z,1697900097646,0.8192617936655622,966
0.3326730728149414,0.7404351234436035,-0.4923849105834961,2023-10-21T14:54:57.666454Z,1697900097666,0.9493989917707925,967
0.3841128349304199,0.8236861228942871,-0.5881557464599609,2023-10-21T14:54:57.686479Z,1697900097686,1.0825565486850008,968
0.433678388595581,0.8893327713012695,-0.6819329261779785,2023-10-21T14:54:57.706711Z,1697900097706,1.2016747640900662,969
0.4806673526763916,0.9298176765441896,-0.7664985656738281,2023-10-21T14:54:57.729264Z,1697900097729,1.2973519440471817,970
0.5247912406921387,0.9467148780822754,-0.8402776718139648,2023-10-21T14:54:57.747295Z,1697900097747,1.3703070723157744,971
0.5641829967498779,0.9433884620666504,-0.9026474952697754,2023-10-21T14:54:57.767557Z,1697900097767,1.4223419929464756,972
0.5987982749938965,0.925753116607666,-0.9564275741577148,2023-10-21T14:54:57.787764Z,1697900097787,1.459565658562055,973
0.6264772415161133,0.8966522216796875,-1.001765251159668,2023-10-21T14:54:57.808024Z,1697900097807,1.4832371891278044,974
0.6399111747741699,0.8523130416870117,-1.0290894508361816,2023-10-21T14:54:57.829174Z,1697900097829,1.481536003765328,975
0.6379714012145996,0.7907824516296387,-1.0315251350402832,2023-10-21T14:54:57.848585Z,1697900097848,1.447891052114411,976
0.6245155334472656,0.7149901390075684,-1.0085492134094238,2023-10-21T14:54:57.868920Z,1697900097868,1.385063921363831,977
