GYR_X,GYR_Y,GYR_Z,DATE,UNIX_TIMESTAMP,Line_Number
-0.5510026216506958,0.1430052667856216,0.1217207610607147,2023-10-21T14:59:44.597318Z,1697900384597,0
-0.5420897006988525,0.0925875902175903,0.1419410407543182,2023-10-21T14:59:44.606438Z,1697900384606,1
-0.5287868976593018,0.0473580211400985,0.1585695594549179,2023-10-21T14:59:44.617630Z,1697900384617,2
-0.5110941529273987,0.0078486613929271,0.1708081513643264,2023-10-21T14:59:44.628771Z,1697900384628,3
-0.4910069108009338,-0.0272707715630531,0.1793219447135925,2023-10-21T14:59:44.637703Z,1697900384637,4
-0.4701215028762817,-0.0573351345956325,0.1841109693050384,2023-10-21T14:59:44.647084Z,1697900384647,5
-0.4487039446830749,-0.0803490057587623,0.1854412406682968,2023-10-21T14:59:44.657844Z,1697900384657,6
-0.4274194538593292,-0.0947160422801971,0.1831797659397125,2023-10-21T14:59:44.667403Z,1697900384667,7
-0.4074652194976806,-0.1016335114836692,0.1781246960163116,2023-10-21T14:59:44.679097Z,1697900384679,8
-0.3895064294338226,-0.1021656244993209,0.1698769479990005,2023-10-21T14:59:44.687562Z,1697900384687,9
-0.3531897366046905,-0.0936518162488937,0.1528493463993072,2023-10-21T14:59:44.698689Z,1697900384698,10
-0.3352309465408325,-0.0791517496109008,0.1314318180084228,2023-10-21T14:59:44.707719Z,1697900384707,11
-0.3199326992034912,-0.0669131577014923,0.113206960260868,2023-10-21T14:59:44.718981Z,1697900384718,12
-0.2909325659275055,-0.0311285872012376,0.0714361146092414,2023-10-21T14:59:44.728716Z,1697900384728,13
-0.2693819999694824,0.0208854191005229,0.0134358434006571,2023-10-21T14:59:44.738949Z,1697900384738,14
-0.232932299375534,0.064651682972908,-0.0391102768480777,2023-10-21T14:59:44.748445Z,1697900384748,15
-0.1946201920509338,0.1090830862522125,-0.0943169593811035,2023-10-21T14:59:44.762433Z,1697900384762,16
-0.1555099040269851,0.15205118060112,-0.1489915251731872,2023-10-21T14:59:44.768646Z,1697900384768,17
-0.1163996309041976,0.19102843105793,-0.1999413073062896,2023-10-21T14:59:44.779673Z,1697900384779,18
-0.0788856968283653,0.2228221595287323,-0.2442396879196167,2023-10-21T14:59:44.788857Z,1697900384788,19
-0.0448304861783981,0.2446387708187103,-0.2793591320514679,2023-10-21T14:59:44.800050Z,1697900384800,20
-0.0151652097702026,0.2559461593627929,-0.3043684065341949,2023-10-21T14:59:44.811737Z,1697900384811,21
0.0105092236772179,0.2583406567573547,-0.3196666538715362,2023-10-21T14:59:44.820086Z,1697900384820,22
0.0321928113698959,0.2548819482326507,-0.3267171382904053,2023-10-21T14:59:44.829435Z,1697900384829,23
0.0501516126096248,0.2483635544776916,-0.3267171382904053,2023-10-21T14:59:44.840289Z,1697900384840,24
0.0638535097241401,0.2403818666934967,-0.3200657367706299,2023-10-21T14:59:44.849790Z,1697900384849,25
0.0725003406405448,0.2309368699789047,-0.3068959414958954,2023-10-21T14:59:44.862384Z,1697900384862,26
0.0699728056788444,0.2091202586889267,-0.2769646048545837,2023-10-21T14:59:44.870015Z,1697900384869,27
0.0702388659119606,0.1944871544837951,-0.2543498277664184,2023-10-21T14:59:44.881013Z,1697900384880,28
0.0703718960285186,0.1818494796752929,-0.2351937741041183,2023-10-21T14:59:44.890164Z,1697900384890,29
0.0601287260651588,0.1552438586950302,-0.2008725106716156,2023-10-21T14:59:44.901348Z,1697900384901,30
0.051348865032196,0.1326290667057037,-0.1714732944965362,2023-10-21T14:59:44.912007Z,1697900384911,31
0.0438992902636528,0.113206960260868,-0.1464639902114868,2023-10-21T14:59:44.921367Z,1697900384921,32
0.0375139378011226,0.0967114642262458,-0.1251794844865799,2023-10-21T14:59:44.930948Z,1697900384930,33
0.0497525297105312,0.0774223878979682,-0.0948490723967552,2023-10-21T14:59:44.941566Z,1697900384941,34
0.059463582932949,0.0445644296705722,-0.0484222471714019,2023-10-21T14:59:44.951097Z,1697900384951,35
0.0462937951087951,-0.0034587320405989,0.0102431681007146,2023-10-21T14:59:44.962025Z,1697900384961,36
0.027403799816966,-0.0639865398406982,0.082211397588253,2023-10-21T14:59:44.971276Z,1697900384971,37
0.0023945067077875,-0.1351566016674041,0.1666842699050903,2023-10-21T14:59:44.982416Z,1697900384982,38
-0.0259404890239238,-0.2119138389825821,0.2594048976898193,2023-10-21T14:59:44.995050Z,1697900384995,39
-0.0544085130095481,-0.289336234331131,0.355717271566391,2023-10-21T14:59:45.002485Z,1697900385002,40
-0.0807480886578559,-0.3652952909469604,0.4518966376781463,2023-10-21T14:59:45.013020Z,1697900385012,41
-0.1025647073984146,-0.4401901662349701,0.5456814765930176,2023-10-21T14:59:45.022659Z,1697900385022,42
-0.1163996309041976,-0.5132226347923279,0.633213996887207,2023-10-21T14:59:45.032143Z,1697900385032,43
-0.1194592788815498,-0.5809339284896851,0.7089070081710815,2023-10-21T14:59:45.045520Z,1697900385045,44
-0.1104133650660514,-0.6384021043777466,0.7663751840591431,2023-10-21T14:59:45.052308Z,1697900385052,45
-0.0899270325899124,-0.680971086025238,0.8014945983886719,2023-10-21T14:59:45.063438Z,1697900385063,46
-0.0590645000338554,-0.7050492167472839,0.8132010698318481,2023-10-21T14:59:45.072569Z,1697900385072,47
-0.0179588012397289,-0.7074437141418457,0.8017606735229492,2023-10-21T14:59:45.083762Z,1697900385083,48
0.0327249243855476,-0.6876225471496582,0.7703660130500793,2023-10-21T14:59:45.095044Z,1697900385095,49
0.0896609723567962,-0.6495764851570129,0.7247373461723328,2023-10-21T14:59:45.103767Z,1697900385103,50
0.1469961106777191,-0.6020854115486145,0.6748518347740173,2023-10-21T14:59:45.113160Z,1697900385113,51
0.2000743448734283,-0.5547273755073547,0.6320167779922485,2023-10-21T14:59:45.123941Z,1697900385123,52
0.2458360195159912,-0.515484094619751,0.6056771874427795,2023-10-21T14:59:45.133460Z,1697900385133,53
0.281620591878891,-0.4904747903347015,0.6015533208847046,2023-10-21T14:59:45.145455Z,1697900385145,54
0.3051665723323822,-0.481162816286087,0.6217736005783081,2023-10-21T14:59:45.153655Z,1697900385153,55
0.3148776292800903,-0.4855527579784393,0.6667370796203613,2023-10-21T14:59:45.164876Z,1697900385164,56
0.310886800289154,-0.4979243874549866,0.7341823577880859,2023-10-21T14:59:45.173815Z,1697900385173,57
0.2957215905189514,-0.5117592811584473,0.8187882900238037,2023-10-21T14:59:45.185058Z,1697900385185,58
0.274570107460022,-0.5202730894088745,0.9111098051071168,2023-10-21T14:59:45.195005Z,1697900385194,59
0.2532855868339538,-0.5182777047157288,1.0003716945648191,2023-10-21T14:59:45.205046Z,1697900385205,60
0.2386524975299835,-0.5012500882148743,1.0752665996551514,2023-10-21T14:59:45.214505Z,1697900385214,61
0.2373222261667251,-0.466396689414978,1.126083254814148,2023-10-21T14:59:45.229167Z,1697900385229,62
0.2524874210357666,-0.4139836132526397,1.1475008726119995,2023-10-21T14:59:45.234763Z,1697900385234,63
0.2832169234752655,-0.3482677042484283,1.1393861770629885,2023-10-21T14:59:45.245740Z,1697900385245,64
0.3288455903530121,-0.274304062128067,1.104665756225586,2023-10-21T14:59:45.254946Z,1697900385254,65
0.3911027610301971,-0.1959504634141922,1.0461333990097046,2023-10-21T14:59:45.266076Z,1697900385266,66
0.469988465309143,-0.1175968870520591,0.9667155742645264,2023-10-21T14:59:45.278341Z,1697900385278,67
0.5631081461906433,-0.0428350642323493,0.8686738610267639,2023-10-21T14:59:45.286190Z,1697900385286,68
0.6699298024177551,0.0283349957317113,0.7544026374816895,2023-10-21T14:59:45.295566Z,1697900385295,69
0.7903202772140503,0.0980417504906654,0.6276268362998962,2023-10-21T14:59:45.306311Z,1697900385306,70
0.9210869073867798,0.1684136390686035,0.4940665662288666,2023-10-21T14:59:45.315847Z,1697900385315,71
1.0553122758865356,0.2407809495925903,0.3598411381244659,2023-10-21T14:59:45.328692Z,1697900385328,72
1.1862120628356934,0.3183363676071167,0.2298726439476013,2023-10-21T14:59:45.336051Z,1697900385336,73
1.3081988096237185,0.4056028425693512,0.1084179431200027,2023-10-21T14:59:45.347028Z,1697900385346,74
1.4186122417449951,0.5069702863693237,-0.0019954221788793,2023-10-21T14:59:45.356225Z,1697900385356,75
1.5185163021087646,0.6256313920021057,-0.1008353382349014,2023-10-21T14:59:45.367426Z,1697900385367,76
1.6077781915664673,0.7583934664726257,-0.1879687756299972,2023-10-21T14:59:45.378324Z,1697900385378,77
1.6842694282531738,0.8986051678657532,-0.2625975608825683,2023-10-21T14:59:45.387443Z,1697900385387,78
1.7465265989303589,1.0382847785949707,-0.3225932717323303,2023-10-21T14:59:45.396914Z,1697900385396,79
1.7957470417022705,1.1710468530654907,-0.3658274114131927,2023-10-21T14:59:45.407732Z,1697900385407,80
1.8336600065231323,1.289042830467224,-0.3893733918666839,2023-10-21T14:59:45.417157Z,1697900385417,81
1.862394094467163,1.3848230838775637,-0.3911027610301971,2023-10-21T14:59:45.428563Z,1697900385428,82
1.886206150054932,1.4558601379394531,-0.3728778958320617,2023-10-21T14:59:45.437361Z,1697900385437,83
1.9085549116134644,1.5028190612792969,-0.3385566473007202,2023-10-21T14:59:45.448524Z,1697900385448,84
1.9303715229034424,1.5292916297912598,-0.2938591837882995,2023-10-21T14:59:45.457425Z,1697900385457,85
1.954183578491211,1.541796326637268,-0.2459690570831298,2023-10-21T14:59:45.468877Z,1697900385468,86
1.9830507040023804,1.5491127967834473,-0.2012715935707092,2023-10-21T14:59:45.478150Z,1697900385478,87
2.015509605407715,1.5574935674667358,-0.1614961773157119,2023-10-21T14:59:45.488814Z,1697900385488,88
2.0437114238739014,1.5689340829849243,-0.1238492131233215,2023-10-21T14:59:45.498200Z,1697900385498,89
2.063133716583252,1.5848973989486694,-0.0847389325499534,2023-10-21T14:59:45.512077Z,1697900385512,90
2.070716142654419,1.6057828664779663,-0.0405735857784748,2023-10-21T14:59:45.518424Z,1697900385518,91
2.059541940689087,1.630126953125,0.0135688716545701,2023-10-21T14:59:45.529516Z,1697900385529,92
2.023757219314575,1.656599521636963,0.0819453448057174,2023-10-21T14:59:45.538569Z,1697900385538,93
1.963362455368042,1.685599684715271,0.1646888554096222,2023-10-21T14:59:45.549887Z,1697900385549,94
1.88327956199646,1.7180585861206057,0.2583406567573547,2023-10-21T14:59:45.561449Z,1697900385561,95
1.7898937463760376,1.7545082569122314,0.3574466407299042,2023-10-21T14:59:45.569885Z,1697900385569,96
1.6890584230422974,1.794549822807312,0.4569517076015472,2023-10-21T14:59:45.579247Z,1697900385579,97
1.5867598056793213,1.836187601089477,0.5529980063438416,2023-10-21T14:59:45.590053Z,1697900385590,98
1.4908465147018433,1.8763620853424072,0.6407966017723083,2023-10-21T14:59:45.599567Z,1697900385599,99
1.4124928712844849,1.912279725074768,0.7142281532287598,2023-10-21T14:59:45.612179Z,1697900385612,100
1.3612771034240725,1.942344069480896,0.7685036063194275,2023-10-21T14:59:45.619764Z,1697900385619,101
1.3403916358947754,1.9653578996658323,0.8016276359558105,2023-10-21T14:59:45.630766Z,1697900385630,102
1.3511669635772705,1.9822524785995483,0.8142653107643127,2023-10-21T14:59:45.639906Z,1697900385639,103
1.3926717042922974,1.9935598373413088,0.8080130219459534,2023-10-21T14:59:45.651080Z,1697900385651,104
1.459052801132202,2.000211238861084,0.7857972979545593,2023-10-21T14:59:45.661443Z,1697900385661,105
1.540998101234436,2.0028717517852783,0.7525402307510376,2023-10-21T14:59:45.671072Z,1697900385671,106
1.629993915557861,2.001807689666748,0.7134299874305725,2023-10-21T14:59:45.680556Z,1697900385680,107
1.7188568115234375,1.9959543943405151,0.6724573373794556,2023-10-21T14:59:45.695111Z,1697900385695,108
1.8022654056549072,1.9835827350616453,0.6313515901565552,2023-10-21T14:59:45.700867Z,1697900385700,109
1.8794217109680176,1.9634954929351809,0.5903789401054382,2023-10-21T14:59:45.711812Z,1697900385711,110
1.9529863595962524,1.936889886856079,0.5463466048240662,2023-10-21T14:59:45.721026Z,1697900385720,111
2.028679370880127,1.905096173286438,0.4938004910945892,2023-10-21T14:59:45.732163Z,1697900385732,112
2.111555814743042,1.871173977851868,0.425690084695816,2023-10-21T14:59:45.744754Z,1697900385744,113
2.201349973678589,1.8379169702529907,0.3372263610363006,2023-10-21T14:59:45.752131Z,1697900385752,114
2.29180908203125,1.8078526258468628,0.2258818000555038,2023-10-21T14:59:45.761537Z,1697900385761,115
2.376946926116944,1.7831093072891235,0.0909912586212158,2023-10-21T14:59:45.772404Z,1697900385772,116
2.452773094177246,1.764751434326172,-0.0667801350355148,2023-10-21T14:59:45.781922Z,1697900385781,117
2.5163605213165283,1.7519807815551758,-0.2463681399822235,2023-10-21T14:59:45.795221Z,1697900385795,118
2.5655808448791504,1.7408063411712646,-0.4487039446830749,2023-10-21T14:59:45.802154Z,1697900385802,119
2.6024296283721924,1.7253751754760742,-0.6763151288032532,2023-10-21T14:59:45.813119Z,1697900385813,120
2.6320950984954834,1.6994346380233765,-0.930531919002533,2023-10-21T14:59:45.822266Z,1697900385822,121
2.6604299545288086,1.6571316719055176,-1.2093589305877686,2023-10-21T14:59:45.833466Z,1697900385833,122
2.6877007484436035,1.5939433574676514,-1.504149317741394,2023-10-21T14:59:45.844672Z,1697900385844,123
2.7057926654815674,1.5065438747406006,-1.8004029989242554,2023-10-21T14:59:45.853488Z,1697900385853,124
2.6990082263946533,1.3962634801864624,-2.0729777812957764,2023-10-21T14:59:45.862928Z,1697900385862,125
2.648723602294922,1.2684234380722046,-2.2868869304656982,2023-10-21T14:59:45.873697Z,1697900385873,126
2.539640426635742,1.1312713623046875,-2.4100711345672607,2023-10-21T14:59:45.883267Z,1697900385883,127
2.3656396865844727,0.9957157373428344,-2.426832675933838,2023-10-21T14:59:45.894988Z,1697900385894,128
2.128051280975342,0.8731967806816101,-2.3440890312194824,2023-10-21T14:59:45.903397Z,1697900385903,129
1.8307334184646609,0.7728935480117798,-2.180065393447876,2023-10-21T14:59:45.914481Z,1697900385914,130
1.4832638502120972,0.6966684460639954,-1.9564449787139893,2023-10-21T14:59:45.923493Z,1697900385923,131
1.10320246219635,0.6385351419448853,-1.6930493116378784,2023-10-21T14:59:45.934775Z,1697900385934,132
0.7171547412872314,0.5834614634513855,-1.401850700378418,2023-10-21T14:59:45.944550Z,1697900385944,133
0.3498640358448028,0.5112271904945374,-1.086840033531189,2023-10-21T14:59:45.954781Z,1697900385954,134
0.0234129540622234,0.4016119837760925,-0.7436273694038391,2023-10-21T14:59:45.964272Z,1697900385964,135
-0.2478314489126205,0.2414460927248001,-0.3674237430095672,2023-10-21T14:59:45.978361Z,1697900385978,136
-0.4260891675949096,0.1068216040730476,0.0364497154951095,2023-10-21T14:59:45.984520Z,1697900385984,137
-0.5721541047096252,-0.0767572447657585,0.4477727711200714,2023-10-21T14:59:45.995578Z,1697900385995,138
-0.749081552028656,-0.3553181886672973,0.8299626111984253,2023-10-21T14:59:46.004645Z,1697900386004,139
1.1361933946609497,0.6833656430244446,0.4127863645553589,2023-10-21T14:59:52.573295Z,1697900392573,140
1.22053325176239,0.7851321697235107,0.3339006602764129,2023-10-21T14:59:52.581030Z,1697900392581,141
1.3143181800842283,0.8964767456054688,0.2434415221214294,2023-10-21T14:59:52.590391Z,1697900392590,142
1.418213129043579,1.0143396854400637,0.1453997641801834,2023-10-21T14:59:52.601196Z,1697900392601,143
1.5303558111190796,1.1357944011688232,0.0449635162949562,2023-10-21T14:59:52.610743Z,1697900392610,144
1.64555823802948,1.2563178539276123,-0.051348865032196,2023-10-21T14:59:52.623623Z,1697900392623,145
1.756503701210022,1.3712542057037354,-0.1378171592950821,2023-10-21T14:59:52.630948Z,1697900392630,146
1.856008768081665,1.4776767492294312,-0.2107165902853012,2023-10-21T14:59:52.641958Z,1697900392641,147
1.9406147003173828,1.5762505531311035,-0.269781082868576,2023-10-21T14:59:52.651203Z,1697900392651,148
2.009789228439331,1.6693702936172483,-0.3154097497463226,2023-10-21T14:59:52.662302Z,1697900392662,149
2.059941053390503,1.7557055950164795,-0.3452080488204956,2023-10-21T14:59:52.673249Z,1697900392673,150
2.0833539962768555,1.830600380897522,-0.3539879024028778,2023-10-21T14:59:52.682330Z,1697900392682,151
2.0732438564300537,1.8889997005462649,-0.337093323469162,2023-10-21T14:59:52.691771Z,1697900392691,152
2.0284132957458496,1.9286421537399288,-0.2921298146247864,2023-10-21T14:59:52.702554Z,1697900392702,153
1.951522946357727,1.9488624334335327,-0.2182991951704025,2023-10-21T14:59:52.712097Z,1697900392712,154
1.8457655906677248,1.948330283164978,-0.1153354048728942,2023-10-21T14:59:52.723459Z,1697900392723,155
1.7153980731964111,1.9275779724121087,0.013701899908483,2023-10-21T14:59:52.732249Z,1697900392732,156
1.5669386386871338,1.88953185081482,0.1610970944166183,2023-10-21T14:59:52.743366Z,1697900392743,157
1.4115617275238037,1.8412426710128784,0.3146115839481354,2023-10-21T14:59:52.752370Z,1697900392752,158
1.262836217880249,1.7917561531066897,0.4616076946258545,2023-10-21T14:59:52.763744Z,1697900392763,159
1.1283447742462158,1.7470587491989136,0.5921083092689514,2023-10-21T14:59:52.772997Z,1697900392772,160
1.010481834411621,1.7112741470336914,0.699595034122467,2023-10-21T14:59:52.783603Z,1697900392783,161
0.9117749333381652,1.6878612041473389,0.7807422280311584,2023-10-21T14:59:52.793133Z,1697900392793,162
0.8324901461601257,1.6782832145690918,0.8352837562561035,2023-10-21T14:59:52.806767Z,1697900392806,163
0.770898163318634,1.6802785396575928,0.8657472133636475,2023-10-21T14:59:52.813328Z,1697900392813,164
0.7226089239120483,1.690255641937256,0.8762564659118652,2023-10-21T14:59:52.824311Z,1697900392824,165
0.6840307712554932,1.7052879333496094,0.8717334866523743,2023-10-21T14:59:52.833502Z,1697900392833,166
0.6529021859169006,1.7233797311782837,0.8560361862182617,2023-10-21T14:59:52.844715Z,1697900392844,167
0.6282919645309448,1.741604566574097,0.8319580554962158,2023-10-21T14:59:52.856412Z,1697900392856,168
0.611796498298645,1.7578339576721191,0.8008294701576233,2023-10-21T14:59:52.864714Z,1697900392864,169
0.60820472240448,1.7703386545181274,0.7630494832992554,2023-10-21T14:59:52.874133Z,1697900392874,170
0.6231038570404053,1.7777882814407349,0.7186180949211121,2023-10-21T14:59:52.884862Z,1697900392884,171
0.6603517532348633,1.778719425201416,0.6683334112167358,2023-10-21T14:59:52.894455Z,1697900392894,172
0.7202144265174866,1.7714028358459473,0.6140579581260681,2023-10-21T14:59:52.906685Z,1697900392906,173
0.7952423095703125,1.755040407180786,0.5593833923339844,2023-10-21T14:59:52.914655Z,1697900392914,174
0.874127984046936,1.731095314025879,0.508167564868927,2023-10-21T14:59:52.925699Z,1697900392925,175
0.9448989629745485,1.704356670379639,0.463204026222229,2023-10-21T14:59:52.934923Z,1697900392934,176
0.9994404911994934,1.6804115772247314,0.4247588813304901,2023-10-21T14:59:52.948161Z,1697900392948,177
1.0332297086715698,1.6628519296646118,0.3900385499000549,2023-10-21T14:59:52.956401Z,1697900392956,178
1.045202136039734,1.6530078649520874,0.3546530604362488,2023-10-21T14:59:52.966099Z,1697900392966,179
1.036954402923584,1.651677489280701,0.314345508813858,2023-10-21T14:59:52.975580Z,1697900392975,180
1.0124772787094116,1.6596592664718628,0.2669875025749206,2023-10-21T14:59:52.989915Z,1697900392989,181
0.977224826812744,1.6765538454055786,0.2127120196819305,2023-10-21T14:59:52.995814Z,1697900392995,182
0.937715470790863,1.700631856918335,0.1517851203680038,2023-10-21T14:59:53.007518Z,1697900393007,183
0.8991372585296631,1.728301763534546,0.0846059024333953,2023-10-21T14:59:53.015981Z,1697900393015,184
0.8633527159690857,1.7539762258529663,0.0117064770311117,2023-10-21T14:59:53.027825Z,1697900393027,185
0.8327562212944031,1.7729991674423218,-0.066114991903305,2023-10-21T14:59:53.039607Z,1697900393039,186
0.8130680918693542,1.7813799381256104,-0.148193359375,2023-10-21T14:59:53.047081Z,1697900393047,187
0.8090772032737732,1.7765909433364868,-0.232932299375534,2023-10-21T14:59:53.056476Z,1697900393056,188
0.8207836747169495,1.7562376260757446,-0.3168730437755584,2023-10-21T14:59:53.067380Z,1697900393067,189
0.8386094570159912,1.7184576988220217,-0.3936302959918976,2023-10-21T14:59:53.076818Z,1697900393076,190
0.849118709564209,1.6631180047988892,-0.4557544589042663,2023-10-21T14:59:53.090010Z,1697900393089,191
0.8380773663520813,1.5914157629013062,-0.4956628978252411,2023-10-21T14:59:53.097110Z,1697900393097,192
0.7937789559364319,1.505213499069214,-0.5083005428314209,2023-10-21T14:59:53.108113Z,1697900393108,193
0.7113015055656433,1.407969951629639,-0.4948647320270538,2023-10-21T14:59:53.117308Z,1697900393117,194
0.5926403999328613,1.3048731088638306,-0.4618737399578094,2023-10-21T14:59:53.128376Z,1697900393128,195
0.4465754926204681,1.2003129720687866,-0.4194377660751343,2023-10-21T14:59:53.139527Z,1697900393139,196
0.2842811644077301,1.0965510606765747,-0.3756715059280395,2023-10-21T14:59:53.148444Z,1697900393148,197
0.1141381561756134,0.9901285171508788,-0.3319052457809448,2023-10-21T14:59:53.157862Z,1697900393157,198
-0.0605278089642524,0.874660074710846,-0.2832169234752655,2023-10-21T14:59:53.168693Z,1697900393168,199
-0.2414460927248001,0.7408337593078613,-0.2186982780694961,2023-10-21T14:59:53.178222Z,1697900393178,200
-0.4332726895809173,0.5813330411911011,-0.1267758309841156,2023-10-21T14:59:53.189866Z,1697900393189,201
-0.6525030732154846,0.3981532454490661,-0.0041238726116716,2023-10-21T14:59:53.198410Z,1697900393198,202
-0.9248117208480836,0.2014046162366867,0.1410098373889923,2023-10-21T14:59:53.209438Z,1697900393209,203
-1.2537903785705566,0.0021284504327923,0.2906665205955505,2023-10-21T14:59:53.218555Z,1697900393218,204
-1.6107048988342283,-0.1930238455533981,0.425956130027771,2023-10-21T14:59:53.229761Z,1697900393229,205
-1.9571101665496824,-0.3770017921924591,0.5283878445625305,2023-10-21T14:59:53.239353Z,1697900393239,206
-2.2727859020233154,-0.5374337434768677,0.5831954479217529,2023-10-21T14:59:53.249748Z,1697900393249,207
-2.5462918281555176,-0.6643425822257996,0.5833284258842468,2023-10-21T14:59:53.259150Z,1697900393259,208
-2.757141590118408,-0.7586595416069031,0.5318465232849121,2023-10-21T14:59:53.273163Z,1697900393273,209
-2.892697095870972,-0.8275681138038635,0.4387268424034118,2023-10-21T14:59:53.279453Z,1697900393279,210
-2.9624040126800537,-0.8759903907775879,0.3144785463809967,2023-10-21T14:59:53.290400Z,1697900393290,211
-2.989408731460572,-0.9067198634147644,0.1696108877658844,2023-10-21T14:59:53.299701Z,1697900393299,212
-2.991137981414795,-0.9244126081466676,0.0138349281623959,2023-10-21T14:59:53.310739Z,1697900393310,213
-2.9699864387512207,-0.932793378829956,-0.1457988619804382,2023-10-21T14:59:53.322709Z,1697900393322,214
-2.919435739517212,-0.9303988814353944,-0.3054326474666595,2023-10-21T14:59:53.330803Z,1697900393330,215
-2.8358941078186035,-0.9135043025016784,-0.4644012749195099,2023-10-21T14:59:53.340188Z,1697900393340,216
-2.724815607070923,-0.8805133104324341,-0.6239020228385925,2023-10-21T14:59:53.350978Z,1697900393350,217
-2.593782901763916,-0.8298296332359314,-0.7828706502914429,2023-10-21T14:59:53.360515Z,1697900393360,218
-2.4474518299102783,-0.7586595416069031,-0.9383805990219116,2023-10-21T14:59:53.373040Z,1697900393373,219
-2.291676044464112,-0.6659389138221741,-1.0857757329940796,2023-10-21T14:59:53.380764Z,1697900393380,220
-2.138427495956421,-0.5563237071037292,-1.2211984395980835,2023-10-21T14:59:53.391833Z,1697900393391,221
-2.0071287155151367,-0.4415204226970672,-1.3417218923568726,2023-10-21T14:59:53.400915Z,1697900393400,222
-1.917068719863892,-0.3366942405700683,-1.4433554410934448,2023-10-21T14:59:53.412073Z,1697900393412,223
-1.8775593042373653,-0.2534186244010925,-1.5234384536743164,2023-10-21T14:59:53.422565Z,1697900393422,224
-1.884210705757141,-0.1951522976160049,-1.5826358795166016,2023-10-21T14:59:53.432117Z,1697900393432,225
-1.9221237897872925,-0.1584365218877792,-1.6257370710372925,2023-10-21T14:59:53.441567Z,1697900393441,226
-1.9718762636184688,-0.1367529332637787,-1.658728003501892,2023-10-21T14:59:53.452349Z,1697900393452,227
-2.0092573165893555,-0.1217207610607147,-1.6854666471481323,2023-10-21T14:59:53.461838Z,1697900393461,228
-2.013780117034912,-0.1070876643061637,-1.707815408706665,2023-10-21T14:59:53.473053Z,1697900393473,229
-1.976532340049744,-0.0940509065985679,-1.72683846950531,2023-10-21T14:59:53.482037Z,1697900393482,230
-1.9013713598251345,-0.0913903415203094,-1.7426687479019165,2023-10-21T14:59:53.493271Z,1697900393493,231
-1.804526925086975,-0.1137390732765197,-1.753710150718689,2023-10-21T14:59:53.506365Z,1697900393506,232
-1.707815408706665,-0.1761292666196823,-1.7578339576721191,2023-10-21T14:59:53.513289Z,1697900393513,233
-1.6353150606155396,-0.2904004454612732,-1.753311038017273,2023-10-21T14:59:53.523187Z,1697900393523,234
-1.605117678642273,-0.4609425365924835,-1.7396091222763062,2023-10-21T14:59:53.533515Z,1697900393533,235
-1.621480107307434,-0.679108738899231,-1.7175264358520508,2023-10-21T14:59:53.542926Z,1697900393542,236
-1.675622582435608,-0.9274722933769226,-1.690255641937256,2023-10-21T14:59:53.556543Z,1697900393556,237
-1.7479898929595947,-1.1842166185379028,-1.6612555980682373,2023-10-21T14:59:53.563143Z,1697900393563,238
-1.8153021335601809,-1.4287223815917969,-1.6339848041534424,2023-10-21T14:59:53.574243Z,1697900393574,239
-1.855609655380249,-1.6448930501937866,-1.6100397109985352,2023-10-21T14:59:53.583429Z,1697900393583,240
-1.854678511619568,-1.8235498666763303,-1.5902185440063477,2023-10-21T14:59:53.594630Z,1697900393594,241
-1.815169095993042,-1.9684175252914429,-1.5741220712661743,2023-10-21T14:59:53.605866Z,1697900393605,242
-1.7521138191223145,-2.090670347213745,-1.5593559741973877,2023-10-21T14:59:53.614649Z,1697900393614,243
-1.6879942417144775,-2.206138849258423,-1.5419293642044067,2023-10-21T14:59:53.623906Z,1697900393623,244
-1.6468884944915771,-2.331052303314209,-1.5182503461837769,2023-10-21T14:59:53.634858Z,1697900393634,245
-1.649549126625061,-2.480443000793457,-1.4849932193756104,2023-10-21T14:59:53.644249Z,1697900393644,246
-1.706884264945984,-2.6624255180358887,-1.4380342960357666,2023-10-21T14:59:53.656179Z,1697900393656,247
-1.8141049146652224,-2.873541116714477,-1.3743138313293457,2023-10-21T14:59:53.664443Z,1697900393664,248
-1.9571101665496824,-3.1015512943267822,-1.2939648628234863,2023-10-21T14:59:53.675515Z,1697900393675,249
-2.1168770790100098,-3.329827785491944,-1.1997809410095217,2023-10-21T14:59:53.684643Z,1697900393684,250
-2.271721839904785,-3.539479970932007,-1.0944225788116455,2023-10-21T14:59:53.695778Z,1697900393695,251
-2.401158094406128,-3.712283611297608,-0.9806835651397704,2023-10-21T14:59:53.705637Z,1697900393705,252
-2.488823652267456,-3.834536552429199,-0.8618894219398499,2023-10-21T14:59:53.715811Z,1697900393715,253
-2.5266036987304688,-3.898390054702759,-0.7417649626731873,2023-10-21T14:59:53.725220Z,1697900393725,254
-2.5130348205566406,-3.902247905731201,-0.6233699321746826,2023-10-21T14:59:53.735999Z,1697900393735,255
-2.451176643371582,-3.8487703800201416,-0.5085666179656982,2023-10-21T14:59:53.745535Z,1697900393745,256
-2.3471486568450928,-3.744077444076538,-0.3974881172180176,2023-10-21T14:59:53.756457Z,1697900393756,257
-2.208799362182617,-3.596282958984375,-0.2900013625621795,2023-10-21T14:59:53.765751Z,1697900393765,258
-2.0447757244110107,-3.41469955444336,-0.1857073009014129,2023-10-21T14:59:53.776792Z,1697900393776,259
-1.8629262447357176,-3.208904981613159,-0.0854040756821632,2023-10-21T14:59:53.789035Z,1697900393788,260
-1.6685720682144165,-2.9878122806549072,0.00957802683115,2023-10-21T14:59:53.796900Z,1697900393796,261
-1.466901421546936,-2.759669065475464,0.0971105545759201,2023-10-21T14:59:53.806245Z,1697900393806,262
-1.2625701427459717,-2.530461549758911,0.1749320179224014,2023-10-21T14:59:53.817157Z,1697900393817,263
-1.0557113885879517,-2.3024513721466064,0.2398497611284256,2023-10-21T14:59:53.826578Z,1697900393826,264
-0.847788393497467,-2.0785648822784424,0.2894692718982696,2023-10-21T14:59:53.839484Z,1697900393839,265
-0.6430580615997314,-1.8626601696014404,0.3224602341651916,2023-10-21T14:59:53.846842Z,1697900393846,266
-0.4461764097213745,-1.6575307846069336,0.3390887677669525,2023-10-21T14:59:53.857818Z,1697900393857,267
-0.2583406567573547,-1.462777614593506,0.3414832651615143,2023-10-21T14:59:53.867054Z,1697900393867,268
-0.0792847797274589,-1.2772033214569092,0.3323043286800384,2023-10-21T14:59:53.878174Z,1697900393878,269
0.0892618894577026,-1.101073980331421,0.3146115839481354,2023-10-21T14:59:53.889013Z,1697900393888,270
0.2455699741840362,-0.9339906573295592,0.2910656034946441,2023-10-21T14:59:53.898239Z,1697900393898,271
0.3903045952320099,-0.7742238640785217,0.2631296813488006,2023-10-21T14:59:53.907647Z,1697900393907,272
0.5247960686683655,-0.6201772689819336,0.2333313822746276,2023-10-21T14:59:53.918426Z,1697900393918,273
0.6487783193588257,-0.4723829627037048,0.2032670229673385,2023-10-21T14:59:53.927920Z,1697900393927,274
0.7590586543083191,-0.333634614944458,0.1740008294582367,2023-10-21T14:59:53.939459Z,1697900393939,275
0.8527104258537292,-0.207523912191391,0.1452667415142059,2023-10-21T14:59:53.948147Z,1697900393948,276
0.9311970472335817,-0.0952481552958488,0.116000548005104,2023-10-21T14:59:53.959206Z,1697900393959,277
0.9965139031410216,0.0013302814913913,0.0859361886978149,2023-10-21T14:59:53.968345Z,1697900393968,278
1.0481288433074951,0.0792847797274589,0.0552066825330257,2023-10-21T14:59:53.979562Z,1697900393979,279
1.084977626800537,0.1366199105978012,0.0234129540622234,2023-10-21T14:59:53.988980Z,1697900393988,280
1.1087896823883057,0.173867791891098,-0.0107752801850438,2023-10-21T14:59:53.999573Z,1697900393999,281
1.122890591621399,0.193955048918724,-0.0481561906635761,2023-10-21T14:59:54.008973Z,1697900394008,282
1.1292760372161863,0.2006064504384994,-0.08753252774477,2023-10-21T14:59:54.022768Z,1697900394022,283
1.1288769245147705,0.1976798325777053,-0.1275739967823028,2023-10-21T14:59:54.029218Z,1697900394029,284
1.123688817024231,0.1896981447935104,-0.1684136390686035,2023-10-21T14:59:54.040240Z,1697900394040,285
1.1151750087738037,0.1823816001415252,-0.2107165902853012,2023-10-21T14:59:54.049456Z,1697900394049,286
1.1049318313598633,0.1826476454734802,-0.2544828653335571,2023-10-21T14:59:54.060508Z,1697900394060,287
1.092826247215271,0.1959504634141922,-0.2971848845481872,2023-10-21T14:59:54.072316Z,1697900394072,288
1.0772619247436523,0.2222900390625,-0.3348318636417389,2023-10-21T14:59:54.080586Z,1697900394080,289
1.055977463722229,0.2582076489925384,-0.3639650344848633,2023-10-21T14:59:54.089956Z,1697900394089,290
1.0271103382110596,0.299978494644165,-0.3829880356788635,2023-10-21T14:59:54.100875Z,1697900394100,291
0.9893303513526917,0.3430795967578888,-0.3917679190635681,2023-10-21T14:59:54.110284Z,1697900394110,292
0.9429035186767578,0.3817907869815826,-0.3912357985973358,2023-10-21T14:59:54.122519Z,1697900394122,293
0.8899583220481873,0.4103918373584747,-0.3827219903469085,2023-10-21T14:59:54.130528Z,1697900394130,294
0.8346186280250549,0.4251579642295837,-0.3692861497402191,2023-10-21T14:59:54.141572Z,1697900394141,295
0.7802101373672485,0.4243597984313965,-0.3543869853019714,2023-10-21T14:59:54.150706Z,1697900394150,296
0.7284621596336365,0.4062679708003998,-0.3396208584308624,2023-10-21T14:59:54.161870Z,1697900394161,297
0.6805720329284668,0.3700843155384063,-0.3253868520259857,2023-10-21T14:59:54.172120Z,1697900394172,298
0.6369388103485107,0.3148776292800903,-0.3110198080539703,2023-10-21T14:59:54.181882Z,1697900394181,299
0.2970518767833709,0.2359919399023056,-0.205794557929039,2023-10-21T14:56:45.091191Z,1697900205091,300
0.296120673418045,0.2381203919649124,-0.2077899724245071,2023-10-21T14:56:45.100188Z,1697900205100,301
0.2933270633220672,0.240913987159729,-0.2063266634941101,2023-10-21T14:56:45.111463Z,1697900205111,302
0.28867107629776,0.2435745447874069,-0.2008725106716156,2023-10-21T14:56:45.121247Z,1697900205121,303
0.2826848328113556,0.2459690570831298,-0.1914275139570236,2023-10-21T14:56:45.131448Z,1697900205131,304
0.2760334014892578,0.2480975091457367,-0.1782577186822891,2023-10-21T14:56:45.140871Z,1697900205140,305
0.2526204586029053,0.2306708097457885,-0.1583034992218017,2023-10-21T14:56:45.155005Z,1697900205154,306
0.2458360195159912,0.2285423725843429,-0.1396795660257339,2023-10-21T14:56:45.161150Z,1697900205161,307
0.239982783794403,0.2268130034208297,-0.1237161830067634,2023-10-21T14:56:45.172186Z,1697900205172,308
0.2049963772296905,0.1936889886856079,-0.1057573780417442,2023-10-21T14:56:45.181361Z,1697900205181,309
0.2079229950904846,0.1896981447935104,-0.0803490057587623,2023-10-21T14:56:45.192519Z,1697900205192,310
0.2103175073862075,0.1863724440336227,-0.0586654134094715,2023-10-21T14:56:45.204521Z,1697900205204,311
0.1795880049467086,0.1592347025871276,-0.0501516126096248,2023-10-21T14:56:45.212541Z,1697900205212,312
0.186239406466484,0.1491245627403259,-0.0235459823161363,2023-10-21T14:56:45.221893Z,1697900205221,313
0.1919596195220947,0.1406107544898986,-0.0007981689414009,2023-10-21T14:56:45.232752Z,1697900205232,314
0.1638906896114349,0.1201244220137596,-0.0006651407456956,2023-10-21T14:56:45.242271Z,1697900205242,315
0.1712072342634201,0.1030968204140663,0.0215505603700876,2023-10-21T14:56:45.254645Z,1697900205254,316
0.1773265302181244,0.0884637236595153,0.040440559387207,2023-10-21T14:56:45.262430Z,1697900205262,317
0.1513860374689102,0.075559988617897,0.0345873199403286,2023-10-21T14:56:45.273422Z,1697900205273,318
0.1536475121974945,0.0574681609869003,0.054674569517374,2023-10-21T14:56:45.282621Z,1697900205282,319
0.1553768813610077,0.041903868317604,0.0719682276248931,2023-10-21T14:56:45.293791Z,1697900205293,320
0.1403446942567825,0.027403799816966,0.0810141414403915,2023-10-21T14:56:45.304359Z,1697900205304,321
0.1274409741163253,0.0150321815162897,0.0885967463254928,2023-10-21T14:56:45.313836Z,1697900205313,322
0.1088170260190963,0.0127707030624151,0.0756930187344551,2023-10-21T14:56:45.323334Z,1697900205323,323
0.1029637902975082,0.0150321815162897,0.0919224545359611,2023-10-21T14:56:45.334003Z,1697900205333,324
0.0979087203741073,0.0168945752084255,0.1058904081583023,2023-10-21T14:56:45.343586Z,1697900205343,325
0.08367470651865,0.014367040246725,0.0904591456055641,2023-10-21T14:56:45.354706Z,1697900205354,326
0.0714361146092414,0.0123716183006763,0.0771563276648521,2023-10-21T14:56:45.363747Z,1697900205363,327
0.0610599219799041,0.0105092236772179,0.0659819617867469,2023-10-21T14:56:45.374849Z,1697900205374,328
0.0521470345556736,0.008912886492908,0.0562709085643291,2023-10-21T14:56:45.387463Z,1697900205387,329
0.0445644296705722,0.0077156326733529,0.0481561906635761,2023-10-21T14:56:45.394930Z,1697900205394,330
0.0667801350355148,0.0333900675177574,0.0929866805672645,2023-10-21T14:56:45.404262Z,1697900205404,331
0.0856701284646987,0.0553397126495838,0.1312987804412841,2023-10-21T14:56:45.415193Z,1697900205415,332
0.0731654837727546,0.0473580211400985,0.1121427342295646,2023-10-21T14:56:45.424623Z,1697900205424,333
0.0625232309103012,0.040440559387207,0.0957802683115005,2023-10-21T14:56:45.437853Z,1697900205437,334
0.0810141414403915,0.0309955589473247,0.1025647073984146,2023-10-21T14:56:45.444858Z,1697900205444,335
0.0968444943428039,0.0230138711631298,0.1084179431200027,2023-10-21T14:56:45.455894Z,1697900205455,336
0.0827435106039047,0.0196881666779518,0.0925875902175903,2023-10-21T14:56:45.465035Z,1697900205465,337
0.0706379488110542,0.0167615469545125,0.0791517496109008,2023-10-21T14:56:45.476210Z,1697900205476,338
0.0892618894577026,0.0331240110099315,0.0747618228197097,2023-10-21T14:56:45.487588Z,1697900205487,339
0.1052252650260925,0.0470919646322727,0.0710370317101478,2023-10-21T14:56:45.496171Z,1697900205496,340
0.1000371724367141,0.0643856227397918,0.0574681609869003,2023-10-21T14:56:45.505597Z,1697900205505,341
0.0956472381949424,0.0792847797274589,0.0458947122097015,2023-10-21T14:56:45.516375Z,1697900205516,342
0.0920554846525192,0.1032298430800437,0.0312616154551506,2023-10-21T14:56:45.525918Z,1697900205525,343
0.0940509065985679,0.1442025154829025,0.0147661250084638,2023-10-21T14:56:45.538045Z,1697900205538,344
0.0908582285046577,0.1641567349433899,0.0045229573734104,2023-10-21T14:56:45.546076Z,1697900205546,345
0.0885967463254928,0.1807852536439895,-0.0041238726116716,2023-10-21T14:56:45.557206Z,1697900205557,346
0.0868673846125602,0.1931568831205368,-0.0110413366928696,2023-10-21T14:56:45.566269Z,1697900205566,347
0.0796838626265525,0.1835788488388061,-0.0130367586389184,2023-10-21T14:56:45.577499Z,1697900205577,348
0.0792847797274589,0.1875696927309036,-0.0168945752084255,2023-10-21T14:56:45.588368Z,1697900205588,349
0.0790187194943428,0.1908953934907913,-0.0200872514396905,2023-10-21T14:56:45.597570Z,1697900205597,350
0.0782205536961555,0.1859733611345291,-0.0199542231857776,2023-10-21T14:56:45.606954Z,1697900205606,351
0.0776884406805038,0.1818494796752929,-0.0199542231857776,2023-10-21T14:56:45.618456Z,1697900205618,352
0.0663810446858406,0.1553768813610077,-0.0170276034623384,2023-10-21T14:56:45.627255Z,1697900205627,353
0.0566699914634227,0.1326290667057037,-0.014500068500638,2023-10-21T14:56:45.638181Z,1697900205638,354
0.0695737227797508,0.1383492797613144,-0.0102431681007146,2023-10-21T14:56:45.647364Z,1697900205647,355
0.0806150585412979,0.1431382894515991,-0.0065183793194592,2023-10-21T14:56:45.658562Z,1697900205658,356
0.068908579647541,0.1222528740763664,-0.0055871824733912,2023-10-21T14:56:45.670951Z,1697900205670,357
0.0587984435260295,0.1044270992279052,-0.004789013415575,2023-10-21T14:56:45.678592Z,1697900205678,358
0.0502846427261829,0.0891288593411445,-0.0039908443577587,2023-10-21T14:56:45.687989Z,1697900205687,359
0.0429680943489074,0.0762251317501068,-0.0034587320405989,2023-10-21T14:56:45.698845Z,1697900205698,360
0.0367157682776451,0.0650507658720016,-0.0029266192577779,2023-10-21T14:56:45.708299Z,1697900205708,361
0.0312616154551506,0.0556057691574096,-0.0025275349617004,2023-10-21T14:56:45.720953Z,1697900205720,362
0.0267386585474014,0.0474910512566566,-0.0021284504327923,2023-10-21T14:56:45.728455Z,1697900205728,363
0.0228808429092168,0.0405735857784748,-0.001862394157797,2023-10-21T14:56:45.739635Z,1697900205739,364
0.0558718256652355,0.0572021044790744,0.0441653467714786,2023-10-21T14:56:45.748670Z,1697900205748,365
0.0839407667517662,0.071303091943264,0.0834086537361145,2023-10-21T14:56:45.759923Z,1697900205759,366
0.0759590715169906,0.0536103434860706,0.0892618894577026,2023-10-21T14:56:45.770666Z,1697900205770,367
0.0691746398806572,0.0383121073246002,0.0941839292645454,2023-10-21T14:56:45.779862Z,1697900205779,368
0.0647847130894661,0.0259404890239238,0.0965784415602684,2023-10-21T14:56:45.789376Z,1697900205789,369
0.0609268918633461,0.0152982370927929,0.0985738635063171,2023-10-21T14:56:45.800202Z,1697900205800,370
0.0520140081644058,0.0131697868928313,0.0842068195343017,2023-10-21T14:56:45.809695Z,1697900205809,371
0.0444314032793045,0.0111743649467825,0.0719682276248931,2023-10-21T14:56:45.820944Z,1697900205820,372
0.0379130244255065,0.00957802683115,0.0614590048789978,2023-10-21T14:56:45.829822Z,1697900205829,373
0.0324588678777217,0.0081147169694304,0.0524130910634994,2023-10-21T14:56:45.841319Z,1697900205841,374
0.0484222471714019,0.0119725335389375,0.074229709804058,2023-10-21T14:56:45.849944Z,1697900205849,375
0.0622571744024753,0.0152982370927929,0.0928536504507064,2023-10-21T14:56:45.861261Z,1697900205861,376
0.0530782341957092,0.0130367586389184,0.0792847797274589,2023-10-21T14:56:45.870551Z,1697900205870,377
0.0453625991940498,0.0111743649467825,0.0677113309502601,2023-10-21T14:56:45.881221Z,1697900205881,378
0.0590645000338554,0.0360506288707256,0.0627892911434173,2023-10-21T14:56:45.890661Z,1697900205890,379
0.0707709789276123,0.0573351345956325,0.0585323870182037,2023-10-21T14:56:45.904405Z,1697900205904,380
0.0605278089642524,0.0489543601870536,0.049885556101799,2023-10-21T14:56:45.910831Z,1697900205910,381
0.0698397830128669,0.0619911178946495,0.0407066158950328,2023-10-21T14:56:45.921913Z,1697900205921,382
0.0778214707970619,0.0731654837727546,0.0328579545021057,2023-10-21T14:56:45.931030Z,1697900205930,383
0.0665140748023986,0.0625232309103012,0.0280689392238855,2023-10-21T14:56:45.942246Z,1697900205942,384
0.0568030215799808,0.053344290703535,0.0239450670778751,2023-10-21T14:56:45.953869Z,1697900205953,385
0.072766400873661,0.0671792179346084,0.0168945752084255,2023-10-21T14:56:45.962254Z,1697900205962,386
0.0864683017134666,0.0790187194943428,0.0107752801850438,2023-10-21T14:56:45.971664Z,1697900205971,387
0.0738306269049644,0.067578300833702,0.0091789420694112,2023-10-21T14:56:45.982469Z,1697900205982,388
0.0630553439259529,0.0576011911034584,0.0078486613929271,2023-10-21T14:56:45.991983Z,1697900205991,389
0.0538763999938964,0.0492204166948795,0.0066514075733721,2023-10-21T14:56:46.004346Z,1697900206004,390
0.0460277423262596,0.0420368947088718,0.0057202107273042,2023-10-21T14:56:46.012146Z,1697900206012,391
0.0666471049189567,0.0399084463715553,0.0224817581474781,2023-10-21T14:56:46.023282Z,1697900206023,392
0.0842068195343017,0.0381790809333324,0.0367157682776451,2023-10-21T14:56:46.032332Z,1697900206032,393
0.0719682276248931,0.0325918979942798,0.0313946455717086,2023-10-21T14:56:46.043580Z,1697900206043,394
0.0714361146092414,0.0150321815162897,0.0456286557018756,2023-10-21T14:56:46.053758Z,1697900206053,395
0.0709040015935897,0.0001330281520495,0.0578672476112842,2023-10-21T14:56:46.063635Z,1697900206063,396
0.0606608390808105,0.0001330281520495,0.0493534430861473,2023-10-21T14:56:46.073057Z,1697900206072,397
0.0517479516565799,0.0001330281520495,0.0421699248254299,2023-10-21T14:56:46.087367Z,1697900206087,398
0.0679773837327957,0.0034587320405989,0.0560048520565032,2023-10-21T14:56:46.093281Z,1697900206093,399
0.0818123146891594,0.0062523232772946,0.0677113309502601,2023-10-21T14:56:46.104306Z,1697900206104,400
0.0699728056788444,0.0053211259655654,0.0578672476112842,2023-10-21T14:56:46.113440Z,1697900206113,401
0.0597296394407749,0.0045229573734104,0.0493534430861473,2023-10-21T14:56:46.124663Z,1697900206124,402
0.0509497821331024,0.0038578163366764,0.0421699248254299,2023-10-21T14:56:46.136941Z,1697900206136,403
0.0790187194943428,0.0324588678777217,0.0425690077245235,2023-10-21T14:56:46.144637Z,1697900206144,404
0.1028307601809501,0.0568030215799808,0.0429680943489074,2023-10-21T14:56:46.154022Z,1697900206153,405
0.1025647073984146,0.0670461878180503,0.0329909808933734,2023-10-21T14:56:46.164870Z,1697900206164,406
0.1024316772818565,0.0758260488510131,0.0244771800935268,2023-10-21T14:56:46.174351Z,1697900206174,407
0.1032298430800437,0.0848719626665115,0.0146330967545509,2023-10-21T14:56:46.187647Z,1697900206187,408
0.1040280163288116,0.0925875902175903,0.0061192950233817,2023-10-21T14:56:46.194533Z,1697900206194,409
0.1052252650260925,0.0987068861722946,-0.0017293660202994,2023-10-21T14:56:46.205675Z,1697900206205,410
0.1062894910573959,0.1040280163288116,-0.0085138017311692,2023-10-21T14:56:46.214731Z,1697900206214,411
0.1081518903374672,0.1086840033531189,-0.014367040246725,2023-10-21T14:56:46.225939Z,1697900206225,412
0.1097482219338417,0.1126748472452163,-0.019289081916213,2023-10-21T14:56:46.236960Z,1697900206236,413
0.1085509732365608,0.1120097041130065,-0.0223487298935651,2023-10-21T14:56:46.245938Z,1697900206245,414
0.1076197773218154,0.1116106212139129,-0.0248762648552656,2023-10-21T14:56:46.255416Z,1697900206255,415
0.0919224545359611,0.0952481552958488,-0.0212845038622617,2023-10-21T14:56:46.266120Z,1697900206266,416
0.0996380895376205,0.1018995642662048,-0.0239450670778751,2023-10-21T14:56:46.275697Z,1697900206275,417
0.1062894910573959,0.1076197773218154,-0.0263395737856626,2023-10-21T14:56:46.287531Z,1697900206287,418
0.0907251983880996,0.0919224545359611,-0.0224817581474781,2023-10-21T14:56:46.295852Z,1697900206295,419
0.0775554105639457,0.0784866064786911,-0.0191560536623001,2023-10-21T14:56:46.306915Z,1697900206306,420
0.0662480220198631,0.0670461878180503,-0.0163624621927738,2023-10-21T14:56:46.315978Z,1697900206315,421
0.0859361886978149,0.08367470651865,-0.0150321815162897,2023-10-21T14:56:46.327261Z,1697900206327,422
0.1028307601809501,0.0980417504906654,-0.0138349281623959,2023-10-21T14:56:46.336939Z,1697900206336,423
0.0877985805273056,0.08367470651865,-0.0118395052850246,2023-10-21T14:56:46.347249Z,1697900206347,424
0.0750278756022453,0.0714361146092414,-0.0101101398468017,2023-10-21T14:56:46.356728Z,1697900206356,425
0.0639865398406982,0.0610599219799041,-0.0086468299850821,2023-10-21T14:56:46.370500Z,1697900206370,426
0.054674569517374,0.0521470345556736,-0.0073165483772754,2023-10-21T14:56:46.376915Z,1697900206376,427
0.0679773837327957,0.0671792179346084,-0.0037247883155941,2023-10-21T14:56:46.387961Z,1697900206387,428
0.079417809844017,0.0800829455256462,-0.0006651407456956,2023-10-21T14:56:46.397181Z,1697900206397,429
0.0678443610668182,0.0683764666318893,-0.000532112608198,2023-10-21T14:56:46.408400Z,1697900206408,430
0.0578672476112842,0.0583993569016456,-0.0003990844707004,2023-10-21T14:56:46.420108Z,1697900206420,431
0.0494864732027053,0.049885556101799,-0.0003990844707004,2023-10-21T14:56:46.428427Z,1697900206428,432
0.0637204870581626,0.0694406926631927,0.0011972533538937,2023-10-21T14:56:46.437773Z,1697900206437,433
0.0759590715169906,0.0860692113637924,0.0025275349617004,2023-10-21T14:56:46.448529Z,1697900206448,434
0.0649177357554435,0.0734315365552902,0.0022614786867052,2023-10-21T14:56:46.458061Z,1697900206458,435
0.0554727390408515,0.0627892911434173,0.001862394157797,2023-10-21T14:56:46.470641Z,1697900206470,436
0.0473580211400985,0.0536103434860706,0.0015963378828018,2023-10-21T14:56:46.478273Z,1697900206478,437
0.040440559387207,0.0457616858184337,0.0013302814913913,2023-10-21T14:56:46.489332Z,1697900206489,438
0.0345873199403286,0.0391102768480777,0.0011972533538937,2023-10-21T14:56:46.498403Z,1697900206498,439
0.0295322500169277,0.0333900675177574,0.0010642252163961,2023-10-21T14:56:46.509680Z,1697900206509,440
0.040440559387207,0.0553397126495838,0.0062523232772946,2023-10-21T14:56:46.519907Z,1697900206519,441
0.0497525297105312,0.0740966796875,0.0106422519311308,2023-10-21T14:56:46.529648Z,1697900206529,442
0.0425690077245235,0.0633213967084884,0.0090459147468209,2023-10-21T14:56:46.539074Z,1697900206539,443
0.0363166853785514,0.0540094301104545,0.0077156326733529,2023-10-21T14:56:46.553592Z,1697900206553,444
0.0309955589473247,0.0461607687175273,0.0066514075733721,2023-10-21T14:56:46.559320Z,1697900206559,445
0.0264726020395755,0.0393763333559036,0.0057202107273042,2023-10-21T14:56:46.570384Z,1697900206570,446
0.022614786401391,0.0336561240255832,0.004789013415575,2023-10-21T14:56:46.579545Z,1697900206579,447
0.019289081916213,0.0287340804934501,0.0041238726116716,2023-10-21T14:56:46.590672Z,1697900206590,448
0.0164954904466867,0.0246102083474397,0.0034587320405989,2023-10-21T14:56:46.599669Z,1697900206599,449
0.0141009837388992,0.0210184473544359,0.0030596475116908,2023-10-21T14:56:46.610973Z,1697900206610,450
0.0119725335389375,0.0179588012397289,0.0025275349617004,2023-10-21T14:56:46.620092Z,1697900206620,451
0.0102431681007146,0.0152982370927929,0.0021284504327923,2023-10-21T14:56:46.630875Z,1697900206630,452
0.0372478812932968,0.0235459823161363,0.0071835201233625,2023-10-21T14:56:46.640416Z,1697900206640,453
0.0603947825729846,0.0305964741855859,0.0114404214546084,2023-10-21T14:56:46.653690Z,1697900206653,454
0.0514818951487541,0.0260735172778368,0.0097110550850629,2023-10-21T14:56:46.660653Z,1697900206660,455
0.0440323166549205,0.0223487298935651,0.0083807734772562,2023-10-21T14:56:46.671699Z,1697900206671,456
0.0376469679176807,0.0190230254083871,0.0070504918694496,2023-10-21T14:56:46.680803Z,1697900206680,457
0.0320597849786281,0.0162294339388608,0.0061192950233817,2023-10-21T14:56:46.692017Z,1697900206691,458
0.027403799816966,0.0139679564163088,0.0051880977116525,2023-10-21T14:56:46.703038Z,1697900206703,459
0.5019152164459229,0.6965354084968567,0.1656200438737869,2023-10-21T15:01:33.821545Z,1697900493821,460
0.4585480391979217,0.6664710640907288,0.160564973950386,2023-10-21T15:01:33.830646Z,1697900493830,461
0.4014789760112762,0.6262965202331543,0.15205118060112,2023-10-21T15:01:33.841830Z,1697900493841,462
0.3428135514259338,0.5596494078636169,0.136353850364685,2023-10-21T15:01:33.852238Z,1697900493852,463
0.266588419675827,0.5037776231765747,0.1267758309841156,2023-10-21T15:01:33.861791Z,1697900493861,464
0.2015376538038253,0.4558874666690826,0.1185280829668045,2023-10-21T15:01:33.871325Z,1697900493871,465
0.1242482960224151,0.3901715576648712,0.1056243553757667,2023-10-21T15:01:33.885879Z,1697900493885,466
0.0296652782708406,0.3277813792228699,0.0927206203341484,2023-10-21T15:01:33.891656Z,1697900493891,467
-0.0357845723628997,0.2633957266807556,0.0726333707571029,2023-10-21T15:01:33.902701Z,1697900493902,468
-0.102697730064392,0.1986110359430313,0.0494864732027053,2023-10-21T15:01:33.911754Z,1697900493911,469
-0.1781246960163116,0.1294363886117935,0.0246102083474397,2023-10-21T15:01:33.922841Z,1697900493922,470
-0.2691159546375274,0.0512158386409282,-0.0,2023-10-21T15:01:33.935530Z,1697900493935,471
-0.3785981237888336,-0.0383121073246002,-0.0231468975543975,2023-10-21T15:01:33.942841Z,1697900493942,472
-0.504176676273346,-0.1371520310640335,-0.0431011207401752,2023-10-21T15:01:33.952322Z,1697900493952,473
-0.6403975486755371,-0.2417121529579162,-0.0582663305103778,2023-10-21T15:01:33.963138Z,1697900493963,474
-0.7784807682037354,-0.3454741239547729,-0.0667801350355148,2023-10-21T15:01:33.972659Z,1697900493972,475
-0.9083161950111388,-0.44072225689888,-0.0681104138493537,2023-10-21T15:01:33.985936Z,1697900493985,476
-1.0189956426620483,-0.5204061269760132,-0.0638535097241401,2023-10-21T15:01:33.992855Z,1697900493992,477
-1.1030694246292114,-0.5808008909225464,-0.0566699914634227,2023-10-21T15:01:34.003906Z,1697900494003,478
-1.1568127870559692,-0.6215075254440308,-0.0506837256252765,2023-10-21T15:01:34.013042Z,1697900494013,479
-1.1790285110473633,-0.6433241367340088,-0.0504176691174507,2023-10-21T15:01:34.024239Z,1697900494024,480
-1.1711798906326294,-0.648645281791687,-0.0603947825729846,2023-10-21T15:01:34.035488Z,1697900494035,481
-1.1377897262573242,-0.6421269178390503,-0.0839407667517662,2023-10-21T15:01:34.044231Z,1697900494044,482
-1.0875051021575928,-0.6304203867912292,-0.121188648045063,2023-10-21T15:01:34.053659Z,1697900494053,483
-1.03016996383667,-0.6196451187133789,-0.1689457595348358,2023-10-21T15:01:34.064449Z,1697900494064,484
-0.9740321040153505,-0.6132597923278809,-0.2217579334974289,2023-10-21T15:01:34.074016Z,1697900494073,485
-0.9240135550498962,-0.6120625138282776,-0.2732398211956024,2023-10-21T15:01:34.085832Z,1697900494085,486
-0.8826417922973633,-0.6141909956932068,-0.3160748779773712,2023-10-21T15:01:34.094110Z,1697900494094,487
-0.8507150411605835,-0.6172506213188171,-0.3434786796569824,2023-10-21T15:01:34.105187Z,1697900494105,488
-0.8275681138038635,-0.6181818246841431,-0.3507952392101288,2023-10-21T15:01:34.114378Z,1697900494114,489
-0.8112056851387024,-0.6144570112228394,-0.3357630670070648,2023-10-21T15:01:34.125495Z,1697900494125,490
-0.7984349727630615,-0.6046129465103149,-0.2991803288459778,2023-10-21T15:01:34.135407Z,1697900494135,491
-0.7869945764541626,-0.5881174802780151,-0.2434415221214294,2023-10-21T15:01:34.145504Z,1697900494145,492
-0.7754210829734802,-0.5661678314208984,-0.172404482960701,2023-10-21T15:01:34.154998Z,1697900494154,493
-0.7625173926353455,-0.5398282408714294,-0.0905921682715416,2023-10-21T15:01:34.169433Z,1697900494169,494
-0.7464209794998169,-0.5102959871292114,-0.0030596475116908,2023-10-21T15:01:34.175278Z,1697900494175,495
-0.7252694964408875,-0.4774380326271057,0.0859361886978149,2023-10-21T15:01:34.186158Z,1697900494186,496
-0.69773268699646,-0.4412543773651123,0.1730696260929107,2023-10-21T15:01:34.195459Z,1697900494195,497
-0.663278341293335,-0.4020110666751861,0.2560791969299316,2023-10-21T15:01:34.206505Z,1697900494206,498
-0.6215075254440308,-0.3609053790569305,0.3344327807426452,2023-10-21T15:01:34.218622Z,1697900494218,499
-0.5728192329406738,-0.3190014958381653,0.4075982570648193,2023-10-21T15:01:34.226607Z,1697900494226,500
-0.5178785920143127,-0.2765655219554901,0.4750435352325439,2023-10-21T15:01:34.236067Z,1697900494235,501
-0.4572177529335022,-0.2334644049406051,0.5359704494476318,2023-10-21T15:01:34.246963Z,1697900494246,502
-0.3917679190635681,-0.1891660392284393,0.5890486836433411,2023-10-21T15:01:34.256351Z,1697900494256,503
-0.3233914375305176,-0.1446015983819961,0.6330809593200684,2023-10-21T15:01:34.269156Z,1697900494269,504
-0.2543498277664184,-0.1013674512505531,0.667269229888916,2023-10-21T15:01:34.276539Z,1697900494276,505
-0.1875696927309036,-0.0615920349955558,0.6908152103424072,2023-10-21T15:01:34.287611Z,1697900494287,506
-0.1251794844865799,-0.0272707715630531,0.7039849758148193,2023-10-21T15:01:34.296746Z,1697900494296,507
-0.0683764666318893,0.0010642252163961,0.7075767517089844,2023-10-21T15:01:34.307956Z,1697900494307,508
-0.017825772985816,0.0239450670778751,0.7018565535545349,2023-10-21T15:01:34.318633Z,1697900494318,509
0.025674432516098,0.0413717553019523,0.6877555251121521,2023-10-21T15:01:34.327931Z,1697900494327,510
0.0621241480112075,0.0537433736026287,0.6654068231582642,2023-10-21T15:01:34.337353Z,1697900494337,511
0.0915233716368675,0.06132597848773,0.6344112753868103,2023-10-21T15:01:34.351739Z,1697900494351,512
0.1126748472452163,0.0637204870581626,0.5947688817977905,2023-10-21T15:01:34.357623Z,1697900494357,513
0.12265195697546,0.0582663305103778,0.5471447706222534,2023-10-21T15:01:34.368852Z,1697900494368,514
0.1152023822069168,0.0492204166948795,0.4834243059158325,2023-10-21T15:01:34.377824Z,1697900494377,515
0.0927206203341484,0.0190230254083871,0.4282176196575165,2023-10-21T15:01:34.388900Z,1697900494388,516
0.0556057691574096,-0.030463445931673,0.3831210732460022,2023-10-21T15:01:34.397988Z,1697900494397,517
0.0035917600616812,-0.0799499228596687,0.3305749595165252,2023-10-21T15:01:34.409192Z,1697900494409,518
-0.0545415431261062,-0.133161187171936,0.2874738276004791,2023-10-21T15:01:34.418491Z,1697900494418,519
-0.1118766739964485,-0.1849091351032257,0.2563452422618866,2023-10-21T15:01:34.429206Z,1697900494429,520
-0.1600328683853149,-0.2286753952503204,0.2383864521980285,2023-10-21T15:01:34.438700Z,1697900494438,521
-0.1902302503585815,-0.2571434080600738,0.2325332164764404,2023-10-21T15:01:34.452243Z,1697900494452,522
-0.1975468099117279,-0.2672535479068756,0.236124962568283,2023-10-21T15:01:34.458913Z,1697900494458,523
-0.1850421577692031,-0.2624645531177521,0.2454369366168975,2023-10-21T15:01:34.469873Z,1697900494469,524
-0.1616291999816894,-0.2526204586029053,0.2564782798290252,2023-10-21T15:01:34.479110Z,1697900494479,525
-0.1360878050327301,-0.2458360195159912,0.2652581334114074,2023-10-21T15:01:34.490228Z,1697900494490,526
-0.1118766739964485,-0.2449048310518264,0.2679187059402466,2023-10-21T15:01:34.501618Z,1697900494501,527
-0.0867343544960022,-0.246501162648201,0.2612673044204712,2023-10-21T15:01:34.510279Z,1697900494510,528
-0.056137878447771,-0.2463681399822235,0.2445057481527328,2023-10-21T15:01:34.519735Z,1697900494519,529
-0.0183578841388225,-0.2437075674533844,0.2189643383026123,2023-10-21T15:01:34.530530Z,1697900494530,530
0.0022614786867052,-0.2241524308919906,0.1895651221275329,2023-10-21T15:01:34.540066Z,1697900494540,531
0.0570690780878067,-0.2190973609685897,0.160564973950386,2023-10-21T15:01:34.552146Z,1697900494552,532
0.1396795660257339,-0.2250836342573166,0.1352896243333816,2023-10-21T15:01:34.560172Z,1697900494560,533
0.1920926570892334,-0.2116477936506271,0.1165326610207557,2023-10-21T15:01:34.571307Z,1697900494571,534
0.232932299375534,-0.2012715935707092,0.1060234382748603,2023-10-21T15:01:34.580372Z,1697900494580,535
0.2527534961700439,-0.1996752619743347,0.1032298430800437,2023-10-21T15:01:34.591566Z,1697900494591,536
0.2471663057804107,-0.2099184244871139,0.1057573780417442,2023-10-21T15:01:34.601763Z,1697900494601,537
0.2176340520381927,-0.2308038473129272,0.1090830862522125,2023-10-21T15:01:34.611600Z,1697900494611,538
0.1721384227275848,-0.2582076489925384,0.1069546341896057,2023-10-21T15:01:34.621080Z,1697900494621,539
0.1209225878119468,-0.2864096164703369,0.0932527333498001,2023-10-21T15:01:34.635463Z,1697900494635,540
0.0743627399206161,-0.3104877173900604,0.0650507658720016,2023-10-21T15:01:34.641347Z,1697900494641,541
0.0392433032393455,-0.3279143869876861,0.0230138711631298,2023-10-21T15:01:34.652271Z,1697900494652,542
0.0187569689005613,-0.3385566473007202,-0.0286010522395372,2023-10-21T15:01:34.661509Z,1697900494661,543
0.0126376748085021,-0.3432126343250274,-0.0852710455656051,2023-10-21T15:01:34.672608Z,1697900494672,544
0.0168945752084255,-0.3434786796569824,-0.1410098373889923,2023-10-21T15:01:34.684861Z,1697900494684,545
0.0264726020395755,-0.340685099363327,-0.1891660392284393,2023-10-21T15:01:34.692607Z,1697900494692,546
0.0376469679176807,-0.3348318636417389,-0.225216656923294,2023-10-21T15:01:34.702065Z,1697900494702,547
0.0486883036792278,-0.3247217237949371,-0.2470332831144333,2023-10-21T15:01:34.712848Z,1697900494712,548
0.0590645000338554,-0.3106207251548767,-0.2560791969299316,2023-10-21T15:01:34.722385Z,1697900494722,549
0.0591975264251232,-0.2805563807487488,-0.2387855350971222,2023-10-21T15:01:34.735294Z,1697900494735,550
0.0653168261051178,-0.2653911709785461,-0.231468990445137,2023-10-21T15:01:34.742583Z,1697900494742,551
0.0706379488110542,-0.2524874210357666,-0.2250836342573166,2023-10-21T15:01:34.753594Z,1697900494753,552
0.0763581618666648,-0.2350607514381408,-0.2157716602087021,2023-10-21T15:01:34.762788Z,1697900494762,553
0.0812802016735076,-0.2201615869998932,-0.2077899724245071,2023-10-21T15:01:34.773924Z,1697900494773,554
0.0899270325899124,-0.2018037140369415,-0.211381733417511,2023-10-21T15:01:34.784915Z,1697900494784,555
0.1098812520503997,-0.1915605366230011,-0.2386524975299835,2023-10-21T15:01:34.794004Z,1697900494793,556
0.1206565350294113,-0.1730696260929107,-0.2568773627281189,2023-10-21T15:01:34.803433Z,1697900494803,557
0.133427232503891,-0.1552438586950302,-0.281354546546936,2023-10-21T15:01:34.814270Z,1697900494814,558
0.148193359375,-0.1376841366291046,-0.3104877173900604,2023-10-21T15:01:34.823722Z,1697900494823,559
0.1652209609746933,-0.1197253391146659,-0.3422814309597015,2023-10-21T15:01:34.835071Z,1697900494835,560
0.1841109693050384,-0.1015004813671112,-0.3739421367645263,2023-10-21T15:01:34.843910Z,1697900494843,561
0.2039321511983871,-0.0835416764020919,-0.4018780589103699,2023-10-21T15:01:34.854976Z,1697900494854,562
0.2244184911251068,-0.0659819617867469,-0.4223643839359283,2023-10-21T15:01:34.864087Z,1697900494864,563
0.2459690570831298,-0.0480231642723083,-0.4326075613498688,2023-10-21T15:01:34.875280Z,1697900494875,564
0.269781082868576,-0.0283349957317113,-0.4316763579845428,2023-10-21T15:01:34.884636Z,1697900494884,565
0.2965197563171386,-0.0053211259655654,-0.4193047285079956,2023-10-21T15:01:34.895313Z,1697900494895,566
0.3267171382904053,0.0214175321161746,-0.3964239060878753,2023-10-21T15:01:34.904756Z,1697900494904,567
0.359575092792511,0.0506837256252765,-0.3642310798168182,2023-10-21T15:01:34.918807Z,1697900494918,568
0.3940293788909912,0.0811471715569496,-0.3251208066940307,2023-10-21T15:01:34.925006Z,1697900494924,569
0.429547905921936,0.1128078699111938,-0.2818866670131683,2023-10-21T15:01:34.935993Z,1697900494935,570
0.4646673202514648,0.145532801747322,-0.2373222261667251,2023-10-21T15:01:34.945255Z,1697900494945,571
0.4977913498878479,0.1783907562494278,-0.1938220113515854,2023-10-21T15:01:34.956377Z,1697900494956,572
0.5262593626976013,0.208721175789833,-0.1525832861661911,2023-10-21T15:01:34.967948Z,1697900494967,573
0.5474108457565308,0.2337304651737213,-0.1141381561756134,2023-10-21T15:01:34.976359Z,1697900494976,574
0.5588512420654297,0.2514232099056244,-0.0778214707970619,2023-10-21T15:01:34.985757Z,1697900494985,575
0.5584521889686584,0.2611342668533325,-0.0423029512166976,2023-10-21T15:01:34.996592Z,1697900494996,576
0.5467457175254822,0.2640608847141266,-0.0071835201233625,2023-10-21T15:01:35.006059Z,1697900495006,577
0.5261263251304626,0.262730598449707,0.0272707715630531,2023-10-21T15:01:35.018269Z,1697900495018,578
0.4999198019504547,0.2599370181560516,0.0601287260651588,2023-10-21T15:01:35.026335Z,1697900495026,579
0.469988465309143,0.2574094831943512,0.0908582285046577,2023-10-21T15:01:35.037249Z,1697900495037,580
0.4368644654750824,0.2551479935646057,0.1205235049128532,2023-10-21T15:01:35.046461Z,1697900495046,581
0.4010798931121826,0.2519553303718567,0.1507208943367004,2023-10-21T15:01:35.057578Z,1697900495057,582
0.3630338311195373,0.246501162648201,0.1837118715047836,2023-10-21T15:01:35.068044Z,1697900495068,583
0.3228593170642853,0.2386524975299835,0.2210927903652191,2023-10-21T15:01:35.077686Z,1697900495077,584
0.2788270115852356,0.2294735610485077,0.2648590505123138,2023-10-21T15:01:35.087123Z,1697900495087,585
0.2274781465530395,0.2202946245670318,0.3171391189098358,2023-10-21T15:01:35.101603Z,1697900495101,586
0.1630925089120865,0.2103175073862075,0.3793962895870209,2023-10-21T15:01:35.107398Z,1697900495107,587
0.0803490057587623,0.1974137723445892,0.4518966376781463,2023-10-21T15:01:35.118373Z,1697900495118,588
-0.0232799258083105,0.1794549822807312,0.5335758924484253,2023-10-21T15:01:35.127634Z,1697900495127,589
-0.1463309675455093,0.1560420244932174,0.6229708194732666,2023-10-21T15:01:35.138643Z,1697900495138,590
-0.2797582149505615,0.1294363886117935,0.7171547412872314,2023-10-21T15:01:35.151303Z,1697900495151,591
-0.407066136598587,0.1048261821269989,0.8112056851387024,2023-10-21T15:01:35.158727Z,1697900495158,592
-0.5065711736679077,0.0887297764420509,0.9015318155288696,2023-10-21T15:01:35.168136Z,1697900495168,593
-0.562309980392456,0.0855370983481407,0.98693585395813,2023-10-21T15:01:35.178955Z,1697900495178,594
-0.574149489402771,0.0943169593811035,1.0676839351654053,2023-10-21T15:01:35.188441Z,1697900495188,595
-0.5573879480361938,0.1102803349494934,1.1421797275543213,2023-10-21T15:01:35.201582Z,1697900495201,596
-0.5359704494476318,0.1249134317040443,1.2059001922607422,2023-10-21T15:01:35.208669Z,1697900495208,597
-0.5314474701881409,0.1286382228136062,1.25246000289917,2023-10-21T15:01:35.219708Z,1697900495219,598
-0.5615118145942688,0.11307393014431,1.2745426893234253,2023-10-21T15:01:35.228863Z,1697900495228,599
-0.641860842704773,0.0730324536561966,1.2681573629379272,2023-10-21T15:01:35.240043Z,1697900495240,600
-0.7755541205406189,0.0097110550850629,1.2335700988769531,2023-10-21T15:01:35.251210Z,1697900495251,601
-0.9479585886001588,-0.0686425268650055,1.1742395162582395,2023-10-21T15:01:35.260078Z,1697900495260,602
-1.1311383247375488,-0.1493906080722808,1.0965510606765747,2023-10-21T15:01:35.269457Z,1697900495269,603
-1.3020795583724976,-0.2232212424278259,1.0099496841430664,2023-10-21T15:01:35.280251Z,1697900495280,604
-1.4494746923446655,-0.2849462926387787,0.9272062182426452,2023-10-21T15:01:35.289778Z,1697900495289,605
-1.568268895149231,-0.3305749595165252,0.8620223999023438,2023-10-21T15:01:35.301573Z,1697900495301,606
-1.6585949659347534,-0.3587769269943237,0.8241093754768372,2023-10-21T15:01:35.309985Z,1697900495309,607
-1.7252421379089355,-0.3720797300338745,0.8163937926292419,2023-10-21T15:01:35.321117Z,1697900495321,608
-1.7800496816635132,-0.3762036263942718,0.8350176811218262,2023-10-21T15:01:35.330157Z,1697900495330,609
-1.837384819984436,-0.3759375512599945,0.8735958933830261,2023-10-21T15:01:35.341306Z,1697900495341,610
-1.9074907302856443,-0.3730109333992004,0.926008939743042,2023-10-21T15:01:35.351184Z,1697900495351,611
-1.993825912475586,-0.3676898181438446,0.9868028163909912,2023-10-21T15:01:35.361321Z,1697900495361,612
-2.092798948287964,-0.359575092792511,1.0507893562316897,2023-10-21T15:01:35.370799Z,1697900495370,613
-2.196959972381592,-0.3476025760173797,1.1135786771774292,2023-10-21T15:01:35.385382Z,1697900495385,614
-2.296597957611084,-0.3299098312854767,1.172377109527588,2023-10-21T15:01:35.391079Z,1697900495391,615
-2.3809378147125244,-0.3047674894332886,1.2253223657608032,2023-10-21T15:01:35.401974Z,1697900495401,616
-2.440268516540528,-0.2709783315658569,1.2716161012649536,2023-10-21T15:01:35.411247Z,1697900495411,617
-2.4671401977539062,-0.2293405383825302,1.3089970350265503,2023-10-21T15:01:35.422371Z,1697900495422,618
-2.4578280448913574,-0.181583434343338,1.333607196807861,2023-10-21T15:01:35.434512Z,1697900495434,619
0.1628264635801315,0.3501301109790802,-0.4137175381183624,2023-10-21T14:59:44.171627Z,1697900384171,620
0.1308996975421905,0.337492436170578,-0.3817907869815826,2023-10-21T14:59:44.181027Z,1697900384180,621
0.0985738635063171,0.3229923546314239,-0.348666787147522,2023-10-21T14:59:44.191767Z,1697900384191,622
0.0662480220198631,0.3080931901931762,-0.3151437044143677,2023-10-21T14:59:44.201339Z,1697900384201,623
0.0333900675177574,0.2935931384563446,-0.2821527123451233,2023-10-21T14:59:44.212866Z,1697900384212,624
-0.0003990844707004,0.2805563807487488,-0.2502259612083435,2023-10-21T14:59:44.221618Z,1697900384221,625
-0.0347203463315963,0.2712444067001343,-0.2212258130311966,2023-10-21T14:59:44.232584Z,1697900384232,626
-0.0690416097640991,0.2679187059402466,-0.1963495463132858,2023-10-21T14:59:44.241635Z,1697900384241,627
-0.1037619560956955,0.2712444067001343,-0.1742668747901916,2023-10-21T14:59:44.252928Z,1697900384252,628
-0.1407437920570373,0.2792260944843292,-0.1516520977020263,2023-10-21T14:59:44.262154Z,1697900384262,629
-0.1822485625743866,0.2889371514320373,-0.1249134317040443,2023-10-21T14:59:44.272881Z,1697900384272,630
-0.2286753952503204,0.2986482083797455,-0.0927206203341484,2023-10-21T14:59:44.282412Z,1697900384282,631
-0.2790930569171905,0.3082262277603149,-0.0556057691574096,2023-10-21T14:59:44.296118Z,1697900384296,632
-0.3327034115791321,0.3194005787372589,-0.0155642936006188,2023-10-21T14:59:44.302605Z,1697900384302,633
-0.3873779773712158,0.3352309465408325,0.0239450670778751,2023-10-21T14:59:44.313597Z,1697900384313,634
-0.440456211566925,0.3594420552253723,0.0582663305103778,2023-10-21T14:59:44.322809Z,1697900384322,635
-0.488878458738327,0.3953596651554107,0.0834086537361145,2023-10-21T14:59:44.333972Z,1697900384333,636
-0.5306493043899536,0.444580078125,0.0949821025133133,2023-10-21T14:59:44.345679Z,1697900384345,637
-0.5628421306610107,0.508167564868927,0.0885967463254928,2023-10-21T14:59:44.353980Z,1697900384353,638
-0.5843926668167114,0.5841265916824341,0.0623902045190334,2023-10-21T14:59:44.363424Z,1697900384363,639
-0.596897304058075,0.6668701171875,0.0195551384240388,2023-10-21T14:59:44.374187Z,1697900384374,640
-0.6031496524810791,0.7504118084907532,-0.0347203463315963,2023-10-21T14:59:44.383714Z,1697900384383,641
-0.6043468713760376,0.8311598896980286,-0.0961793512105941,2023-10-21T14:59:44.396002Z,1697900384395,642
-0.6022184491157532,0.9067198634147644,-0.1592347025871276,2023-10-21T14:59:44.403881Z,1697900384403,643
-0.5999569892883301,0.9731009602546692,-0.2163037806749344,2023-10-21T14:59:44.414972Z,1697900384414,644
-0.6014202833175659,1.0247159004211426,-0.259537935256958,2023-10-21T14:59:44.424037Z,1697900384424,645
-0.6075395941734314,1.0577068328857422,-0.2846802473068237,2023-10-21T14:59:44.435300Z,1697900384435,646
-0.6160533428192139,1.071408748626709,-0.2923958897590637,2023-10-21T14:59:44.445532Z,1697900384445,647
-0.6237689852714539,1.066353678703308,-0.2857444584369659,2023-10-21T14:59:44.455274Z,1697900384455,648
-0.6285580396652222,1.043206810951233,-0.2677856683731079,2023-10-21T14:59:44.464787Z,1697900384464,649
-0.6301543712615967,1.0017019510269165,-0.240913987159729,2023-10-21T14:59:44.479212Z,1697900384479,650
-0.6297552585601807,0.942770540714264,-0.2071248292922973,2023-10-21T14:59:44.484988Z,1697900384484,651
-0.6272277235984802,0.8690729141235352,-0.1689457595348358,2023-10-21T14:59:44.495989Z,1697900384495,652
-0.6229708194732666,0.7847330570220947,-0.1290373057126999,2023-10-21T14:59:44.505157Z,1697900384505,653
-0.6172506213188171,0.6946730017662048,-0.0893949195742607,2023-10-21T14:59:44.516345Z,1697900384516,654
-0.6107322573661804,0.604080855846405,-0.0518809780478477,2023-10-21T14:59:44.528849Z,1697900384528,655
-0.6031496524810791,0.5182777047157288,-0.0182248577475547,2023-10-21T14:59:44.536356Z,1697900384536,656
-0.5939707159996033,0.440456211566925,0.0106422519311308,2023-10-21T14:59:44.545748Z,1697900384545,657
-0.5838605761528015,0.3711485564708709,0.0349864028394222,2023-10-21T14:59:44.556551Z,1697900384556,658
-0.5738834738731384,0.3087583482265472,0.0569360479712486,2023-10-21T14:59:44.566076Z,1697900384566,659
-0.5651035904884338,0.2512901723384857,0.0782205536961555,2023-10-21T14:59:44.579279Z,1697900384579,660
-0.5577870607376099,0.1963495463132858,0.0999041423201561,2023-10-21T14:59:44.586267Z,1697900384586,661
-0.5510026216506958,0.1430052667856216,0.1217207610607147,2023-10-21T14:59:44.597318Z,1697900384597,662
-0.5420897006988525,0.0925875902175903,0.1419410407543182,2023-10-21T14:59:44.606438Z,1697900384606,663
-0.5287868976593018,0.0473580211400985,0.1585695594549179,2023-10-21T14:59:44.617630Z,1697900384617,664
-0.5110941529273987,0.0078486613929271,0.1708081513643264,2023-10-21T14:59:44.628771Z,1697900384628,665
-0.4910069108009338,-0.0272707715630531,0.1793219447135925,2023-10-21T14:59:44.637703Z,1697900384637,666
-0.4701215028762817,-0.0573351345956325,0.1841109693050384,2023-10-21T14:59:44.647084Z,1697900384647,667
-0.4487039446830749,-0.0803490057587623,0.1854412406682968,2023-10-21T14:59:44.657844Z,1697900384657,668
-0.4274194538593292,-0.0947160422801971,0.1831797659397125,2023-10-21T14:59:44.667403Z,1697900384667,669
-0.4074652194976806,-0.1016335114836692,0.1781246960163116,2023-10-21T14:59:44.679097Z,1697900384679,670
-0.3895064294338226,-0.1021656244993209,0.1698769479990005,2023-10-21T14:59:44.687562Z,1697900384687,671
-0.3531897366046905,-0.0936518162488937,0.1528493463993072,2023-10-21T14:59:44.698689Z,1697900384698,672
-0.3352309465408325,-0.0791517496109008,0.1314318180084228,2023-10-21T14:59:44.707719Z,1697900384707,673
-0.3199326992034912,-0.0669131577014923,0.113206960260868,2023-10-21T14:59:44.718981Z,1697900384718,674
-0.2909325659275055,-0.0311285872012376,0.0714361146092414,2023-10-21T14:59:44.728716Z,1697900384728,675
-0.2693819999694824,0.0208854191005229,0.0134358434006571,2023-10-21T14:59:44.738949Z,1697900384738,676
-0.232932299375534,0.064651682972908,-0.0391102768480777,2023-10-21T14:59:44.748445Z,1697900384748,677
-0.1946201920509338,0.1090830862522125,-0.0943169593811035,2023-10-21T14:59:44.762433Z,1697900384762,678
-0.1555099040269851,0.15205118060112,-0.1489915251731872,2023-10-21T14:59:44.768646Z,1697900384768,679
-0.1163996309041976,0.19102843105793,-0.1999413073062896,2023-10-21T14:59:44.779673Z,1697900384779,680
-0.0788856968283653,0.2228221595287323,-0.2442396879196167,2023-10-21T14:59:44.788857Z,1697900384788,681
-0.0448304861783981,0.2446387708187103,-0.2793591320514679,2023-10-21T14:59:44.800050Z,1697900384800,682
-0.0151652097702026,0.2559461593627929,-0.3043684065341949,2023-10-21T14:59:44.811737Z,1697900384811,683
0.0105092236772179,0.2583406567573547,-0.3196666538715362,2023-10-21T14:59:44.820086Z,1697900384820,684
0.0321928113698959,0.2548819482326507,-0.3267171382904053,2023-10-21T14:59:44.829435Z,1697900384829,685
0.0501516126096248,0.2483635544776916,-0.3267171382904053,2023-10-21T14:59:44.840289Z,1697900384840,686
0.0638535097241401,0.2403818666934967,-0.3200657367706299,2023-10-21T14:59:44.849790Z,1697900384849,687
0.0725003406405448,0.2309368699789047,-0.3068959414958954,2023-10-21T14:59:44.862384Z,1697900384862,688
0.0699728056788444,0.2091202586889267,-0.2769646048545837,2023-10-21T14:59:44.870015Z,1697900384869,689
0.0702388659119606,0.1944871544837951,-0.2543498277664184,2023-10-21T14:59:44.881013Z,1697900384880,690
0.0703718960285186,0.1818494796752929,-0.2351937741041183,2023-10-21T14:59:44.890164Z,1697900384890,691
0.0601287260651588,0.1552438586950302,-0.2008725106716156,2023-10-21T14:59:44.901348Z,1697900384901,692
0.051348865032196,0.1326290667057037,-0.1714732944965362,2023-10-21T14:59:44.912007Z,1697900384911,693
0.0438992902636528,0.113206960260868,-0.1464639902114868,2023-10-21T14:59:44.921367Z,1697900384921,694
0.0375139378011226,0.0967114642262458,-0.1251794844865799,2023-10-21T14:59:44.930948Z,1697900384930,695
0.0497525297105312,0.0774223878979682,-0.0948490723967552,2023-10-21T14:59:44.941566Z,1697900384941,696
0.059463582932949,0.0445644296705722,-0.0484222471714019,2023-10-21T14:59:44.951097Z,1697900384951,697
0.0462937951087951,-0.0034587320405989,0.0102431681007146,2023-10-21T14:59:44.962025Z,1697900384961,698
0.027403799816966,-0.0639865398406982,0.082211397588253,2023-10-21T14:59:44.971276Z,1697900384971,699
0.0023945067077875,-0.1351566016674041,0.1666842699050903,2023-10-21T14:59:44.982416Z,1697900384982,700
-0.0259404890239238,-0.2119138389825821,0.2594048976898193,2023-10-21T14:59:44.995050Z,1697900384995,701
-0.0544085130095481,-0.289336234331131,0.355717271566391,2023-10-21T14:59:45.002485Z,1697900385002,702
-0.0807480886578559,-0.3652952909469604,0.4518966376781463,2023-10-21T14:59:45.013020Z,1697900385012,703
-0.1025647073984146,-0.4401901662349701,0.5456814765930176,2023-10-21T14:59:45.022659Z,1697900385022,704
-0.1163996309041976,-0.5132226347923279,0.633213996887207,2023-10-21T14:59:45.032143Z,1697900385032,705
-0.1194592788815498,-0.5809339284896851,0.7089070081710815,2023-10-21T14:59:45.045520Z,1697900385045,706
-0.1104133650660514,-0.6384021043777466,0.7663751840591431,2023-10-21T14:59:45.052308Z,1697900385052,707
-0.0899270325899124,-0.680971086025238,0.8014945983886719,2023-10-21T14:59:45.063438Z,1697900385063,708
-0.0590645000338554,-0.7050492167472839,0.8132010698318481,2023-10-21T14:59:45.072569Z,1697900385072,709
-0.0179588012397289,-0.7074437141418457,0.8017606735229492,2023-10-21T14:59:45.083762Z,1697900385083,710
0.0327249243855476,-0.6876225471496582,0.7703660130500793,2023-10-21T14:59:45.095044Z,1697900385095,711
0.0896609723567962,-0.6495764851570129,0.7247373461723328,2023-10-21T14:59:45.103767Z,1697900385103,712
0.1469961106777191,-0.6020854115486145,0.6748518347740173,2023-10-21T14:59:45.113160Z,1697900385113,713
0.2000743448734283,-0.5547273755073547,0.6320167779922485,2023-10-21T14:59:45.123941Z,1697900385123,714
0.2458360195159912,-0.515484094619751,0.6056771874427795,2023-10-21T14:59:45.133460Z,1697900385133,715
0.281620591878891,-0.4904747903347015,0.6015533208847046,2023-10-21T14:59:45.145455Z,1697900385145,716
0.3051665723323822,-0.481162816286087,0.6217736005783081,2023-10-21T14:59:45.153655Z,1697900385153,717
0.3148776292800903,-0.4855527579784393,0.6667370796203613,2023-10-21T14:59:45.164876Z,1697900385164,718
0.310886800289154,-0.4979243874549866,0.7341823577880859,2023-10-21T14:59:45.173815Z,1697900385173,719
0.2957215905189514,-0.5117592811584473,0.8187882900238037,2023-10-21T14:59:45.185058Z,1697900385185,720
0.274570107460022,-0.5202730894088745,0.9111098051071168,2023-10-21T14:59:45.195005Z,1697900385194,721
0.2532855868339538,-0.5182777047157288,1.0003716945648191,2023-10-21T14:59:45.205046Z,1697900385205,722
0.2386524975299835,-0.5012500882148743,1.0752665996551514,2023-10-21T14:59:45.214505Z,1697900385214,723
0.2373222261667251,-0.466396689414978,1.126083254814148,2023-10-21T14:59:45.229167Z,1697900385229,724
0.2524874210357666,-0.4139836132526397,1.1475008726119995,2023-10-21T14:59:45.234763Z,1697900385234,725
0.2832169234752655,-0.3482677042484283,1.1393861770629885,2023-10-21T14:59:45.245740Z,1697900385245,726
0.3288455903530121,-0.274304062128067,1.104665756225586,2023-10-21T14:59:45.254946Z,1697900385254,727
0.3911027610301971,-0.1959504634141922,1.0461333990097046,2023-10-21T14:59:45.266076Z,1697900385266,728
0.469988465309143,-0.1175968870520591,0.9667155742645264,2023-10-21T14:59:45.278341Z,1697900385278,729
0.5631081461906433,-0.0428350642323493,0.8686738610267639,2023-10-21T14:59:45.286190Z,1697900385286,730
0.6699298024177551,0.0283349957317113,0.7544026374816895,2023-10-21T14:59:45.295566Z,1697900385295,731
0.7903202772140503,0.0980417504906654,0.6276268362998962,2023-10-21T14:59:45.306311Z,1697900385306,732
0.9210869073867798,0.1684136390686035,0.4940665662288666,2023-10-21T14:59:45.315847Z,1697900385315,733
1.0553122758865356,0.2407809495925903,0.3598411381244659,2023-10-21T14:59:45.328692Z,1697900385328,734
1.1862120628356934,0.3183363676071167,0.2298726439476013,2023-10-21T14:59:45.336051Z,1697900385336,735
1.3081988096237185,0.4056028425693512,0.1084179431200027,2023-10-21T14:59:45.347028Z,1697900385346,736
1.4186122417449951,0.5069702863693237,-0.0019954221788793,2023-10-21T14:59:45.356225Z,1697900385356,737
1.5185163021087646,0.6256313920021057,-0.1008353382349014,2023-10-21T14:59:45.367426Z,1697900385367,738
1.6077781915664673,0.7583934664726257,-0.1879687756299972,2023-10-21T14:59:45.378324Z,1697900385378,739
1.6842694282531738,0.8986051678657532,-0.2625975608825683,2023-10-21T14:59:45.387443Z,1697900385387,740
1.7465265989303589,1.0382847785949707,-0.3225932717323303,2023-10-21T14:59:45.396914Z,1697900385396,741
1.7957470417022705,1.1710468530654907,-0.3658274114131927,2023-10-21T14:59:45.407732Z,1697900385407,742
1.8336600065231323,1.289042830467224,-0.3893733918666839,2023-10-21T14:59:45.417157Z,1697900385417,743
1.862394094467163,1.3848230838775637,-0.3911027610301971,2023-10-21T14:59:45.428563Z,1697900385428,744
1.886206150054932,1.4558601379394531,-0.3728778958320617,2023-10-21T14:59:45.437361Z,1697900385437,745
1.9085549116134644,1.5028190612792969,-0.3385566473007202,2023-10-21T14:59:45.448524Z,1697900385448,746
1.9303715229034424,1.5292916297912598,-0.2938591837882995,2023-10-21T14:59:45.457425Z,1697900385457,747
1.954183578491211,1.541796326637268,-0.2459690570831298,2023-10-21T14:59:45.468877Z,1697900385468,748
1.9830507040023804,1.5491127967834473,-0.2012715935707092,2023-10-21T14:59:45.478150Z,1697900385478,749
2.015509605407715,1.5574935674667358,-0.1614961773157119,2023-10-21T14:59:45.488814Z,1697900385488,750
2.0437114238739014,1.5689340829849243,-0.1238492131233215,2023-10-21T14:59:45.498200Z,1697900385498,751
2.063133716583252,1.5848973989486694,-0.0847389325499534,2023-10-21T14:59:45.512077Z,1697900385512,752
2.070716142654419,1.6057828664779663,-0.0405735857784748,2023-10-21T14:59:45.518424Z,1697900385518,753
2.059541940689087,1.630126953125,0.0135688716545701,2023-10-21T14:59:45.529516Z,1697900385529,754
2.023757219314575,1.656599521636963,0.0819453448057174,2023-10-21T14:59:45.538569Z,1697900385538,755
1.963362455368042,1.685599684715271,0.1646888554096222,2023-10-21T14:59:45.549887Z,1697900385549,756
1.88327956199646,1.7180585861206057,0.2583406567573547,2023-10-21T14:59:45.561449Z,1697900385561,757
1.7898937463760376,1.7545082569122314,0.3574466407299042,2023-10-21T14:59:45.569885Z,1697900385569,758
1.6890584230422974,1.794549822807312,0.4569517076015472,2023-10-21T14:59:45.579247Z,1697900385579,759
-0.001862394157797,0.0037247883155941,-0.0001330281520495,2023-10-21T14:58:50.929078Z,1697900330929,760
-0.001862394157797,0.0046559851616621,0.001862394157797,2023-10-21T14:58:50.940346Z,1697900330940,761
0.0042569008655846,0.0031926757656037,-0.0022614786867052,2023-10-21T14:58:50.949441Z,1697900330949,762
-0.0034587320405989,0.0019954221788793,0.0027935912366956,2023-10-21T14:58:50.960290Z,1697900330960,763
0.0026605629827827,-0.0034587320405989,0.0029266192577779,2023-10-21T14:58:50.969754Z,1697900330969,764
0.0022614786867052,-0.0046559851616621,-0.0014633096288889,2023-10-21T14:58:50.982818Z,1697900330982,765
0.0019954221788793,0.0027935912366956,-0.004789013415575,2023-10-21T14:58:50.990001Z,1697900330989,766
0.0006651407456956,-0.004789013415575,0.004789013415575,2023-10-21T14:58:51.001063Z,1697900331000,767
0.0010642252163961,0.0010642252163961,-0.0029266192577779,2023-10-21T14:58:51.010228Z,1697900331010,768
0.0030596475116908,0.0010642252163961,0.000532112608198,2023-10-21T14:58:51.021383Z,1697900331021,769
-0.0021284504327923,-0.0017293660202994,0.0022614786867052,2023-10-21T14:58:51.032534Z,1697900331032,770
-0.0041238726116716,-0.0037247883155941,0.003325703786686,2023-10-21T14:58:51.041443Z,1697900331041,771
0.0039908443577587,-0.0049220416694879,0.0006651407456956,2023-10-21T14:58:51.050837Z,1697900331050,772
0.0010642252163961,-0.0031926757656037,0.0011972533538937,2023-10-21T14:58:51.061609Z,1697900331061,773
-0.0035917600616812,0.0017293660202994,-0.003325703786686,2023-10-21T14:58:51.071140Z,1697900331071,774
-0.0035917600616812,-0.0013302814913913,0.0045229573734104,2023-10-21T14:58:51.082742Z,1697900331082,775
0.0037247883155941,-0.0013302814913913,-0.0027935912366956,2023-10-21T14:58:51.091358Z,1697900331091,776
-0.0001330281520495,-0.0043899291194975,-0.0009311970788985,2023-10-21T14:58:51.102448Z,1697900331102,777
-0.0035917600616812,-0.0025275349617004,0.0035917600616812,2023-10-21T14:58:51.111507Z,1697900331111,778
0.0015963378828018,0.0039908443577587,-0.004789013415575,2023-10-21T14:58:51.122670Z,1697900331122,779
0.0037247883155941,-0.0001330281520495,-0.0017293660202994,2023-10-21T14:58:51.132491Z,1697900331132,780
0.0037247883155941,0.0017293660202994,-0.0030596475116908,2023-10-21T14:58:51.142707Z,1697900331142,781
0.0042569008655846,-0.0037247883155941,-0.0026605629827827,2023-10-21T14:58:51.152132Z,1697900331152,782
0.0045229573734104,-0.003325703786686,0.0015963378828018,2023-10-21T14:58:51.166339Z,1697900331166,783
0.0015963378828018,-0.0049220416694879,0.0010642252163961,2023-10-21T14:58:51.172449Z,1697900331172,784
-0.001862394157797,-0.0013302814913913,-0.0027935912366956,2023-10-21T14:58:51.183527Z,1697900331183,785
0.0037247883155941,0.000266056304099,0.0025275349617004,2023-10-21T14:58:51.192610Z,1697900331192,786
-0.0039908443577587,0.0015963378828018,0.0010642252163961,2023-10-21T14:58:51.203749Z,1697900331203,787
-0.0026605629827827,0.0023945067077875,0.004789013415575,2023-10-21T14:58:51.215671Z,1697900331215,788
-0.0041238726116716,-0.0017293660202994,0.0026605629827827,2023-10-21T14:58:51.223831Z,1697900331223,789
0.0022614786867052,0.0017293660202994,-0.0027935912366956,2023-10-21T14:58:51.233163Z,1697900331233,790
-0.000266056304099,0.0026605629827827,-0.0049220416694879,2023-10-21T14:58:51.243982Z,1697900331243,791
-0.0003990844707004,-0.0017293660202994,0.0043899291194975,2023-10-21T14:58:51.253521Z,1697900331253,792
0.0015963378828018,0.001862394157797,-0.0023945067077875,2023-10-21T14:58:51.266270Z,1697900331266,793
-0.0009311970788985,0.0014633096288889,0.0025275349617004,2023-10-21T14:58:51.273719Z,1697900331273,794
0.0010642252163961,-0.0041238726116716,0.001862394157797,2023-10-21T14:58:51.284783Z,1697900331284,795
0.001862394157797,-0.0023945067077875,-0.0022614786867052,2023-10-21T14:58:51.293829Z,1697900331293,796
-0.0039908443577587,-0.0010642252163961,-0.0039908443577587,2023-10-21T14:58:51.305032Z,1697900331304,797
0.0013302814913913,-0.0013302814913913,-0.0023945067077875,2023-10-21T14:58:51.315594Z,1697900331315,798
-0.0019954221788793,0.0006651407456956,0.0021284504327923,2023-10-21T14:58:51.325086Z,1697900331325,799
0.0031926757656037,0.0031926757656037,-0.0043899291194975,2023-10-21T14:58:51.334466Z,1697900331334,800
0.0034587320405989,-0.0001330281520495,0.0007981689414009,2023-10-21T14:58:51.345287Z,1697900331345,801
-0.001862394157797,0.0029266192577779,-0.0025275349617004,2023-10-21T14:58:51.354824Z,1697900331354,802
0.0014633096288889,0.0029266192577779,0.0023945067077875,2023-10-21T14:58:51.365824Z,1697900331365,803
-0.0015963378828018,-0.0049220416694879,0.0042569008655846,2023-10-21T14:58:51.375024Z,1697900331374,804
-0.0045229573734104,0.0017293660202994,0.0050550699234008,2023-10-21T14:58:51.386106Z,1697900331386,805
-0.0049220416694879,0.0045229573734104,-0.0027935912366956,2023-10-21T14:58:51.395121Z,1697900331395,806
0.000532112608198,-0.000532112608198,0.0009311970788985,2023-10-21T14:58:51.406450Z,1697900331406,807
0.0013302814913913,-0.0046559851616621,0.0009311970788985,2023-10-21T14:58:51.415613Z,1697900331415,808
-0.0025275349617004,-0.001862394157797,-0.0029266192577779,2023-10-21T14:58:51.426397Z,1697900331426,809
-0.0010642252163961,0.0017293660202994,0.0017293660202994,2023-10-21T14:58:51.435933Z,1697900331435,810
-0.0007981689414009,-0.0010642252163961,0.0049220416694879,2023-10-21T14:58:51.449337Z,1697900331449,811
-0.0045229573734104,0.0031926757656037,-0.0029266192577779,2023-10-21T14:58:51.456107Z,1697900331456,812
-0.0038578163366764,0.0038578163366764,0.0006651407456956,2023-10-21T14:58:51.467130Z,1697900331467,813
-0.0009311970788985,-0.0030596475116908,0.0031926757656037,2023-10-21T14:58:51.476301Z,1697900331476,814
-0.0006651407456956,-0.0027935912366956,-0.0037247883155941,2023-10-21T14:58:51.487550Z,1697900331487,815
-0.0001330281520495,-0.001862394157797,-0.003325703786686,2023-10-21T14:58:51.498803Z,1697900331498,816
-0.0026605629827827,-0.0021284504327923,0.0023945067077875,2023-10-21T14:58:51.507427Z,1697900331507,817
0.0050550699234008,-0.0039908443577587,-0.0026605629827827,2023-10-21T14:58:51.516844Z,1697900331516,818
-0.0026605629827827,0.0026605629827827,-0.0001330281520495,2023-10-21T14:58:51.527648Z,1697900331527,819
-0.000532112608198,0.0014633096288889,0.0021284504327923,2023-10-21T14:58:51.537225Z,1697900331537,820
0.0038578163366764,-0.0015963378828018,0.0001330281520495,2023-10-21T14:58:51.549016Z,1697900331548,821
0.0037247883155941,-0.0,-0.000266056304099,2023-10-21T14:58:51.557374Z,1697900331557,822
-0.0003990844707004,-0.0006651407456956,-0.001862394157797,2023-10-21T14:58:51.568535Z,1697900331568,823
-0.0026605629827827,0.0041238726116716,-0.0034587320405989,2023-10-21T14:58:51.577495Z,1697900331577,824
-0.0034587320405989,-0.0019954221788793,0.0015963378828018,2023-10-21T14:58:51.588758Z,1697900331588,825
0.0011972533538937,0.0038578163366764,-0.0034587320405989,2023-10-21T14:58:51.598677Z,1697900331598,826
-0.0031926757656037,-0.0034587320405989,-0.0017293660202994,2023-10-21T14:58:51.608809Z,1697900331608,827
-0.0037247883155941,-0.0046559851616621,-0.0026605629827827,2023-10-21T14:58:51.618179Z,1697900331618,828
0.0042569008655846,-0.0034587320405989,0.0007981689414009,2023-10-21T14:58:51.632129Z,1697900331632,829
0.0014633096288889,-0.0046559851616621,0.0049220416694879,2023-10-21T14:58:51.638501Z,1697900331638,830
0.0045229573734104,-0.0,-0.0046559851616621,2023-10-21T14:58:51.649439Z,1697900331649,831
0.0031926757656037,-0.0029266192577779,-0.0039908443577587,2023-10-21T14:58:51.658635Z,1697900331658,832
-0.004789013415575,0.0007981689414009,0.0030596475116908,2023-10-21T14:58:51.669837Z,1697900331669,833
-0.0029266192577779,0.0027935912366956,-0.0039908443577587,2023-10-21T14:58:51.682017Z,1697900331681,834
0.0035917600616812,0.0050550699234008,0.000532112608198,2023-10-21T14:58:51.689860Z,1697900331689,835
-0.0022614786867052,0.0015963378828018,0.0013302814913913,2023-10-21T14:58:51.699283Z,1697900331699,836
0.0043899291194975,0.0038578163366764,0.0007981689414009,2023-10-21T14:58:51.710089Z,1697900331709,837
-0.0046559851616621,-0.001862394157797,-0.0014633096288889,2023-10-21T14:58:51.719671Z,1697900331719,838
0.0013302814913913,0.0042569008655846,-0.0017293660202994,2023-10-21T14:58:51.732262Z,1697900331732,839
-0.003325703786686,0.003325703786686,-0.0022614786867052,2023-10-21T14:58:51.739741Z,1697900331739,840
-0.0039908443577587,0.000532112608198,0.0049220416694879,2023-10-21T14:58:51.750782Z,1697900331750,841
-0.0034587320405989,0.0023945067077875,-0.0009311970788985,2023-10-21T14:58:51.759937Z,1697900331759,842
-0.0,0.0031926757656037,0.001862394157797,2023-10-21T14:58:51.771124Z,1697900331771,843
-0.0013302814913913,-0.0019954221788793,-0.0010642252163961,2023-10-21T14:58:51.781984Z,1697900331781,844
-0.0013302814913913,-0.0035917600616812,-0.0001330281520495,2023-10-21T14:58:51.791149Z,1697900331791,845
0.0001330281520495,-0.0019954221788793,-0.0011972533538937,2023-10-21T14:58:51.800727Z,1697900331800,846
0.0006651407456956,0.0027935912366956,0.0013302814913913,2023-10-21T14:58:51.811463Z,1697900331811,847
-0.0019954221788793,0.0007981689414009,0.0003990844707004,2023-10-21T14:58:51.820908Z,1697900331820,848
-0.0015963378828018,0.0009311970788985,-0.0006651407456956,2023-10-21T14:58:51.832150Z,1697900331832,849
0.0022614786867052,-0.003325703786686,-0.0019954221788793,2023-10-21T14:58:51.841034Z,1697900331841,850
0.0017293660202994,0.0009311970788985,0.000532112608198,2023-10-21T14:58:51.852314Z,1697900331852,851
-0.0027935912366956,0.0011972533538937,-0.0011972533538937,2023-10-21T14:58:51.861256Z,1697900331861,852
-0.003325703786686,-0.0023945067077875,0.0049220416694879,2023-10-21T14:58:51.872436Z,1697900331872,853
0.0029266192577779,0.0038578163366764,-0.0026605629827827,2023-10-21T14:58:51.881859Z,1697900331881,854
-0.0041238726116716,0.0042569008655846,0.0006651407456956,2023-10-21T14:58:51.892496Z,1697900331892,855
0.0031926757656037,-0.0025275349617004,0.0035917600616812,2023-10-21T14:58:51.901908Z,1697900331901,856
-0.0034587320405989,-0.0025275349617004,0.0029266192577779,2023-10-21T14:58:51.912689Z,1697900331912,857
0.0038578163366764,-0.0050550699234008,0.0035917600616812,2023-10-21T14:58:51.922161Z,1697900331922,858
0.0009311970788985,0.0011972533538937,0.0037247883155941,2023-10-21T14:58:51.933232Z,1697900331933,859
0.0010642252163961,-0.000266056304099,-0.0037247883155941,2023-10-21T14:58:51.942318Z,1697900331942,860
-0.000266056304099,-0.0026605629827827,0.0001330281520495,2023-10-21T14:58:51.953530Z,1697900331953,861
0.0015963378828018,-0.0038578163366764,-0.0034587320405989,2023-10-21T14:58:51.965159Z,1697900331965,862
0.0049220416694879,-0.0030596475116908,-0.0035917600616812,2023-10-21T14:58:51.973464Z,1697900331973,863
0.0023945067077875,0.0003990844707004,-0.0026605629827827,2023-10-21T14:58:51.982941Z,1697900331982,864
0.0019954221788793,0.0025275349617004,0.0014633096288889,2023-10-21T14:58:51.993741Z,1697900331993,865
0.0039908443577587,-0.0037247883155941,-0.0029266192577779,2023-10-21T14:58:52.003241Z,1697900332003,866
0.0034587320405989,-0.0049220416694879,-0.0035917600616812,2023-10-21T14:58:52.015360Z,1697900332015,867
-0.0042569008655846,-0.0035917600616812,0.0037247883155941,2023-10-21T14:58:52.023481Z,1697900332023,868
-0.0041238726116716,-0.0049220416694879,-0.0,2023-10-21T14:58:52.034469Z,1697900332034,869
0.0015963378828018,0.0039908443577587,-0.0035917600616812,2023-10-21T14:58:52.043616Z,1697900332043,870
-0.0049220416694879,0.0011972533538937,0.000532112608198,2023-10-21T14:58:52.054847Z,1697900332054,871
-0.0011972533538937,-0.0009311970788985,-0.0029266192577779,2023-10-21T14:58:52.065131Z,1697900332065,872
0.0029266192577779,0.0039908443577587,-0.0030596475116908,2023-10-21T14:58:52.074771Z,1697900332074,873
-0.0015963378828018,0.0030596475116908,-0.0045229573734104,2023-10-21T14:58:52.084289Z,1697900332084,874
0.0029266192577779,-0.0026605629827827,-0.0030596475116908,2023-10-21T14:58:52.095248Z,1697900332095,875
-0.0035917600616812,-0.0017293660202994,-0.0029266192577779,2023-10-21T14:58:52.104616Z,1697900332104,876
-0.0001330281520495,-0.0029266192577779,-0.0027935912366956,2023-10-21T14:58:52.115555Z,1697900332115,877
0.0015963378828018,-0.0034587320405989,0.0023945067077875,2023-10-21T14:58:52.124757Z,1697900332124,878
-0.0025275349617004,-0.0031926757656037,-0.0014633096288889,2023-10-21T14:58:52.135948Z,1697900332135,879
-0.0041238726116716,-0.0038578163366764,0.0023945067077875,2023-10-21T14:58:52.144859Z,1697900332144,880
0.0026605629827827,-0.0046559851616621,0.0006651407456956,2023-10-21T14:58:52.156175Z,1697900332156,881
-0.0043899291194975,-0.0035917600616812,-0.0049220416694879,2023-10-21T14:58:52.165262Z,1697900332165,882
0.0034587320405989,-0.0014633096288889,-0.0038578163366764,2023-10-21T14:58:52.176131Z,1697900332176,883
-0.0041238726116716,-0.0021284504327923,-0.0046559851616621,2023-10-21T14:58:52.185585Z,1697900332185,884
0.0013302814913913,0.0003990844707004,-0.0015963378828018,2023-10-21T14:58:52.198599Z,1697900332198,885
0.0007981689414009,-0.0041238726116716,-0.001862394157797,2023-10-21T14:58:52.205907Z,1697900332205,886
-0.0045229573734104,-0.0009311970788985,-0.0006651407456956,2023-10-21T14:58:52.216867Z,1697900332216,887
-0.0021284504327923,-0.0045229573734104,0.0011972533538937,2023-10-21T14:58:52.226005Z,1697900332225,888
0.0003990844707004,-0.0050550699234008,0.0037247883155941,2023-10-21T14:58:52.237196Z,1697900332237,889
0.0006651407456956,0.0010642252163961,-0.0006651407456956,2023-10-21T14:58:52.248291Z,1697900332248,890
0.0010642252163961,0.0039908443577587,0.0042569008655846,2023-10-21T14:58:52.257230Z,1697900332257,891
0.003325703786686,-0.0023945067077875,-0.0041238726116716,2023-10-21T14:58:52.266609Z,1697900332266,892
-0.001862394157797,0.0041238726116716,0.0049220416694879,2023-10-21T14:58:52.277446Z,1697900332277,893
0.0010642252163961,-0.000266056304099,-0.0017293660202994,2023-10-21T14:58:52.286969Z,1697900332286,894
0.0023945067077875,-0.0043899291194975,-0.0003990844707004,2023-10-21T14:58:52.298448Z,1697900332298,895
-0.0001330281520495,0.0029266192577779,-0.0006651407456956,2023-10-21T14:58:52.307141Z,1697900332307,896
-0.0003990844707004,-0.0045229573734104,-0.004789013415575,2023-10-21T14:58:52.318165Z,1697900332318,897
-0.000532112608198,0.0029266192577779,0.0027935912366956,2023-10-21T14:58:52.327310Z,1697900332327,898
-0.0009311970788985,0.003325703786686,-0.0045229573734104,2023-10-21T14:58:52.338521Z,1697900332338,899
-0.1247804090380668,-0.2560791969299316,-0.0738306269049644,2023-10-21T14:54:50.493610Z,1697900090493,900
-0.1249134317040443,-0.2576755285263061,-0.0698397830128669,2023-10-21T14:54:50.503039Z,1697900090502,901
-0.1206565350294113,-0.2548819482326507,-0.0637204870581626,2023-10-21T14:54:50.513825Z,1697900090513,902
-0.1169317439198494,-0.2523544132709503,-0.0583993569016456,2023-10-21T14:54:50.523410Z,1697900090523,903
-0.1128078699111938,-0.249427780508995,-0.0534773170948028,2023-10-21T14:54:50.535370Z,1697900090535,904
-0.1092161163687706,-0.2469002455472946,-0.0493534430861473,2023-10-21T14:54:50.543627Z,1697900090543,905
-0.1090830862522125,-0.2461020797491073,-0.0482892207801342,2023-10-21T14:54:50.554591Z,1697900090554,906
-0.1088170260190963,-0.2454369366168975,-0.0473580211400985,2023-10-21T14:54:50.563802Z,1697900090563,907
-0.1142711862921714,-0.246501162648201,-0.0506837256252765,2023-10-21T14:54:50.574943Z,1697900090574,908
-0.1187941431999206,-0.2474323660135269,-0.0534773170948028,2023-10-21T14:54:50.585133Z,1697900090585,909
-0.1294363886117935,-0.2503589689731598,-0.0611929483711719,2023-10-21T14:54:50.594950Z,1697900090594,910
-0.1383492797613144,-0.2527534961700439,-0.0678443610668182,2023-10-21T14:54:50.604405Z,1697900090604,911
-0.1509869545698166,-0.2562122344970703,-0.0771563276648521,2023-10-21T14:54:50.618718Z,1697900090618,912
-0.1618952602148056,-0.2592718601226806,-0.0850049927830696,2023-10-21T14:54:50.624637Z,1697900090624,913
-0.1754641383886337,-0.2615333497524261,-0.0929866805672645,2023-10-21T14:54:50.635905Z,1697900090635,914
-0.2088541984558105,-0.2834829986095428,-0.1096151992678642,2023-10-21T14:54:50.644912Z,1697900090644,915
-0.2233542650938034,-0.281620591878891,-0.1124087870121002,2023-10-21T14:54:50.656023Z,1697900090655,916
-0.2389185577630996,-0.2778958082199096,-0.11307393014431,2023-10-21T14:54:50.668152Z,1697900090668,917
-0.2554140388965606,-0.2717765271663666,-0.1116106212139129,2023-10-21T14:54:50.676081Z,1697900090676,918
-0.2728407382965088,-0.2641939222812652,-0.1082849130034446,2023-10-21T14:54:50.685441Z,1697900090685,919
-0.2911986112594604,-0.2571434080600738,-0.1040280163288116,2023-10-21T14:54:50.696299Z,1697900090696,920
-0.3098225593566894,-0.251822292804718,-0.0996380895376205,2023-10-21T14:54:50.705770Z,1697900090705,921
-0.3283134698867798,-0.247964471578598,-0.0956472381949424,2023-10-21T14:54:50.718709Z,1697900090718,922
-0.3456071317195892,-0.2437075674533844,-0.0925875902175903,2023-10-21T14:54:50.725898Z,1697900090725,923
-0.3618365824222564,-0.2387855350971222,-0.0901930853724479,2023-10-21T14:54:50.737004Z,1697900090736,924
-0.377533882856369,-0.2335974276065826,-0.0883306935429573,2023-10-21T14:54:50.746147Z,1697900090746,925
-0.3933642506599426,-0.229074478149414,-0.0864683017134666,2023-10-21T14:54:50.757356Z,1697900090757,926
-0.4093276262283325,-0.2242854684591293,-0.0826104804873466,2023-10-21T14:54:50.768260Z,1697900090768,927
-0.4244928359985351,-0.2184322327375412,-0.0754269585013389,2023-10-21T14:54:50.777334Z,1697900090777,928
-0.437529593706131,-0.210450530052185,-0.0635874569416046,2023-10-21T14:54:50.786774Z,1697900090786,929
-0.4473736882209778,-0.199542224407196,-0.0468259081244468,2023-10-21T14:54:50.801454Z,1697900090801,930
-0.4526948034763336,-0.1853082180023193,-0.0254083778709173,2023-10-21T14:54:50.807071Z,1697900090807,931
-0.4525617659091949,-0.1684136390686035,-0.0003990844707004,2023-10-21T14:54:50.818426Z,1697900090818,932
-0.447506695985794,-0.1512530148029327,0.0258074607700109,2023-10-21T14:54:50.827240Z,1697900090827,933
-0.4381947219371795,-0.1360878050327301,0.0508167557418346,2023-10-21T14:54:50.838349Z,1697900090838,934
-0.4255570471286773,-0.1247804090380668,0.0723673179745674,2023-10-21T14:54:50.851667Z,1697900090851,935
-0.4107909202575683,-0.1175968870520591,0.0895279496908187,2023-10-21T14:54:50.858378Z,1697900090858,936
-0.3952266275882721,-0.1142711862921714,0.1020325943827629,2023-10-21T14:54:50.868437Z,1697900090868,937
-0.3799284100532532,-0.1137390732765197,0.1105463951826095,2023-10-21T14:54:50.878577Z,1697900090878,938
-0.3658274114131927,-0.1153354048728942,0.1156014651060104,2023-10-21T14:54:50.888160Z,1697900090888,939
-0.3531897366046905,-0.117330826818943,0.1183950528502464,2023-10-21T14:54:50.901798Z,1697900090901,940
-0.3413502275943756,-0.1181290000677108,0.1194592788815498,2023-10-21T14:54:50.908377Z,1697900090908,941
-0.3303089141845703,-0.117330826818943,0.1187941431999206,2023-10-21T14:54:50.919353Z,1697900090919,942
-0.3011757433414459,-0.1081518903374672,0.109349139034748,2023-10-21T14:54:50.928566Z,1697900090928,943
-0.2938591837882995,-0.1096151992678642,0.1024316772818565,2023-10-21T14:54:50.939684Z,1697900090939,944
-0.2876068651676178,-0.1108124479651451,0.0965784415602684,2023-10-21T14:54:50.950881Z,1697900090950,945
-0.2840151190757751,-0.1187941431999206,0.0758260488510131,2023-10-21T14:54:50.959714Z,1697900090959,946
-0.2808224260807037,-0.1257116049528122,0.058000274002552,2023-10-21T14:54:50.969146Z,1697900090969,947
-0.2796251773834228,-0.1419410407543182,0.0247432366013526,2023-10-21T14:54:50.979898Z,1697900090979,948
-0.2994463741779327,-0.1773265302181244,-0.0222157016396522,2023-10-21T14:54:50.989452Z,1697900090989,949
-0.2971848845481872,-0.1967486441135406,-0.0598626695573329,2023-10-21T14:54:51.001730Z,1697900091001,950
-0.2946573495864868,-0.2185652554035186,-0.0988399162888526,2023-10-21T14:54:51.009633Z,1697900091009,951
-0.2919968068599701,-0.2417121529579162,-0.1380832195281982,2023-10-21T14:54:51.020688Z,1697900091020,952
-0.289336234331131,-0.2651250958442688,-0.1763953268527984,2023-10-21T14:54:51.029784Z,1697900091029,953
-0.2868086993694305,-0.2870747447013855,-0.2125789821147918,2023-10-21T14:54:51.040997Z,1697900091040,954
-0.2849462926387787,-0.3063638210296631,-0.2453039139509201,2023-10-21T14:54:51.051261Z,1697900091051,955
-0.2836160063743591,-0.3212629854679107,-0.2731067836284637,2023-10-21T14:54:51.061014Z,1697900091060,956
-0.2818866670131683,-0.3299098312854767,-0.2939922213554382,2023-10-21T14:54:51.070597Z,1697900091070,957
-0.2603361010551452,-0.30796018242836,-0.2804233431816101,2023-10-21T14:54:51.081280Z,1697900091081,958
-0.255680114030838,-0.3049005270004272,-0.2857444584369659,2023-10-21T14:54:51.090760Z,1697900091090,959
-0.2516892552375793,-0.3023729920387268,-0.2902674376964569,2023-10-21T14:54:51.101783Z,1697900091101,960
-0.2391846179962158,-0.288405030965805,-0.2739049792289734,2023-10-21T14:54:51.110928Z,1697900091110,961
-0.2284093350172042,-0.2764325141906738,-0.2598039805889129,2023-10-21T14:54:51.122124Z,1697900091122,962
-0.1951522976160049,-0.236124962568283,-0.2218909561634063,2023-10-21T14:54:51.135064Z,1697900091135,963
-0.1825146228075027,-0.2302717268466949,-0.1967486441135406,2023-10-21T14:54:51.142095Z,1697900091142,964
-0.1718723773956298,-0.225216656923294,-0.1751980781555175,2023-10-21T14:54:51.151818Z,1697900091151,965
-0.1467300504446029,-0.1923587024211883,-0.149656668305397,2023-10-21T14:54:51.162327Z,1697900091162,966
-0.1227849870920181,-0.1809182912111282,-0.1189271658658981,2023-10-21T14:54:51.171805Z,1697900091171,967
-0.1022986471652984,-0.1713402569293975,-0.0927206203341484,2023-10-21T14:54:51.185479Z,1697900091185,968
-0.0873994976282119,-0.1463309675455093,-0.0791517496109008,2023-10-21T14:54:51.192036Z,1697900091192,969
-0.0746287927031517,-0.1249134317040443,-0.067578300833702,2023-10-21T14:54:51.203094Z,1697900091203,970
-0.0477571077644825,-0.1198583617806434,-0.0421699248254299,2023-10-21T14:54:51.212160Z,1697900091212,971
-0.0247432366013526,-0.1154684349894523,-0.0204863362014293,2023-10-21T14:54:51.223397Z,1697900091223,972
-0.0211514756083488,-0.0987068861722946,-0.0174266882240772,2023-10-21T14:54:51.234691Z,1697900091234,973
-0.0180918294936418,-0.0842068195343017,-0.0148991532623767,2023-10-21T14:54:51.243437Z,1697900091243,974
-0.0154312653467059,-0.0719682276248931,-0.0127707030624151,2023-10-21T14:54:51.252809Z,1697900091252,975
-0.0131697868928313,-0.0614590048789978,-0.0109083084389567,2023-10-21T14:54:51.263609Z,1697900091263,976
0.0058532385155558,-0.0740966796875,-0.0156973227858543,2023-10-21T14:54:51.273130Z,1697900091273,977
0.0222157016396522,-0.0850049927830696,-0.0196881666779518,2023-10-21T14:54:51.284943Z,1697900091284,978
0.0190230254083871,-0.0725003406405448,-0.0168945752084255,2023-10-21T14:54:51.293295Z,1697900091293,979
0.0162294339388608,-0.0619911178946495,-0.014367040246725,2023-10-21T14:54:51.304497Z,1697900091304,980
0.0162294339388608,-0.1073537170886993,-0.0824774578213691,2023-10-21T14:54:51.313462Z,1697900091313,981
0.0163624621927738,-0.1461979448795318,-0.1406107544898986,2023-10-21T14:54:51.324809Z,1697900091324,982
0.0139679564163088,-0.1247804090380668,-0.1201244220137596,2023-10-21T14:54:51.334704Z,1697900091334,983
0.0119725335389375,-0.106555551290512,-0.1025647073984146,2023-10-21T14:54:51.344794Z,1697900091344,984
-0.0011972533538937,-0.1678815335035324,-0.1935559660196304,2023-10-21T14:54:51.354207Z,1697900091354,985
-0.0123716183006763,-0.2201615869998932,-0.2712444067001343,2023-10-21T14:54:51.368670Z,1697900091368,986
-0.0105092236772179,-0.1881018131971359,-0.2317350357770919,2023-10-21T14:54:51.374443Z,1697900091374,987
-0.0090459147468209,-0.160564973950386,-0.1978128552436828,2023-10-21T14:54:51.385753Z,1697900091385,988
-0.0070504918694496,-0.1991431415081024,-0.2582076489925384,2023-10-21T14:54:51.394650Z,1697900091394,989
-0.0054541542194783,-0.2321341186761856,-0.3096895515918731,2023-10-21T14:54:51.405871Z,1697900091405,990
0.008912886492908,-0.2280102521181106,-0.2995794117450714,2023-10-21T14:54:51.418001Z,1697900091417,991
0.0210184473544359,-0.2244184911251068,-0.2910656034946441,2023-10-21T14:54:51.425858Z,1697900091425,992
0.0428350642323493,-0.2270790487527847,-0.2805563807487488,2023-10-21T14:54:51.435197Z,1697900091435,993
0.0771563276648521,-0.2492947578430175,-0.2868086993694305,2023-10-21T14:54:51.446045Z,1697900091446,994
0.099771112203598,-0.2527534961700439,-0.2741710245609283,2023-10-21T14:54:51.455585Z,1697900091455,995
0.124115265905857,-0.2544828653335571,-0.2608681917190552,2023-10-21T14:54:51.467765Z,1697900091467,996
0.1495236456394195,-0.2523544132709503,-0.2455699741840362,2023-10-21T14:54:51.475665Z,1697900091475,997
0.1746659576892852,-0.2451708912849426,-0.2273451089859008,2023-10-21T14:54:51.486764Z,1697900091486,998
0.198078915476799,-0.233198344707489,-0.2052624374628067,2023-10-21T14:54:51.495907Z,1697900091495,999
0.2188313156366348,-0.2175010293722152,-0.1790558993816375,2023-10-21T14:54:51.507053Z,1697900091507,1000
0.2362580001354217,-0.199542224407196,-0.1492575854063034,2023-10-21T14:54:51.517617Z,1697900091517,1001
0.2508910894393921,-0.1803861707448959,-0.1166656911373138,2023-10-21T14:54:51.527223Z,1697900091527,1002
0.2637948393821716,-0.1610970944166183,-0.0827435106039047,2023-10-21T14:54:51.536518Z,1697900091536,1003
0.2759003937244415,-0.1428722292184829,-0.0486883036792278,2023-10-21T14:54:51.550993Z,1697900091550,1004
0.2880059480667114,-0.1259776651859283,-0.0156973227858543,2023-10-21T14:54:51.556818Z,1697900091556,1005
0.3009096682071686,-0.1104133650660514,0.0160964056849479,2023-10-21T14:54:51.567802Z,1697900091567,1006
0.3154097497463226,-0.0953811854124069,0.0462937951087951,2023-10-21T14:54:51.576982Z,1697900091576,1007
0.3315061628818512,-0.0810141414403915,0.0754269585013389,2023-10-21T14:54:51.588127Z,1697900091588,1008
0.348400741815567,-0.0678443610668182,0.1040280163288116,2023-10-21T14:54:51.600838Z,1697900091600,1009
0.3654283285140991,-0.0564039349555969,0.1323630064725875,2023-10-21T14:54:51.608145Z,1697900091608,1010
0.3816577792167663,-0.0461607687175273,0.1608310341835022,2023-10-21T14:54:51.617573Z,1697900091617,1011
0.3972220718860626,-0.035252459347248,0.1891660392284393,2023-10-21T14:54:51.628358Z,1697900091628,1012
0.4117221236228943,-0.0223487298935651,0.2171019464731216,2023-10-21T14:54:51.637865Z,1697900091637,1013
0.4244928359985351,-0.0073165483772754,0.2443727105855941,2023-10-21T14:54:51.651114Z,1697900091651,1014
0.4347360134124756,0.008912886492908,0.2709783315658569,2023-10-21T14:54:51.658071Z,1697900091658,1015
0.4423186182975769,0.0255414061248302,0.2967858016490936,2023-10-21T14:54:51.669105Z,1697900091669,1016
0.4472406506538391,0.0423029512166976,0.3216620683670044,2023-10-21T14:54:51.678275Z,1697900091678,1017
0.4496351480484009,0.0590645000338554,0.3452080488204956,2023-10-21T14:54:51.689457Z,1697900091689,1018
0.4496351480484009,0.0754269585013389,0.3670246601104736,2023-10-21T14:54:51.700720Z,1697900091700,1019
0.4477727711200714,0.0904591456055641,0.3867128491401672,2023-10-21T14:54:51.709493Z,1697900091709,1020
0.444314032793045,0.1030968204140663,0.403873473405838,2023-10-21T14:54:51.718873Z,1697900091718,1021
0.4396580457687378,0.1128078699111938,0.4182405173778534,2023-10-21T14:54:51.729632Z,1697900091729,1022
0.4335387349128723,0.1197253391146659,0.4292818605899811,2023-10-21T14:54:51.739215Z,1697900091739,1023
0.4263552129268646,0.1242482960224151,0.4364653527736664,2023-10-21T14:54:51.751201Z,1697900091751,1024
0.418639600276947,0.1267758309841156,0.4393920004367828,2023-10-21T14:54:51.759389Z,1697900091759,1025
0.4113230407238006,0.127840057015419,0.4384607970714569,2023-10-21T14:54:51.770472Z,1697900091770,1026
0.4048046767711639,0.1273079365491867,0.4339378178119659,2023-10-21T14:54:51.779527Z,1697900091779,1027
0.3990844488143921,0.1242482960224151,0.4260891675949096,2023-10-21T14:54:51.790765Z,1697900091790,1028
0.3934972882270813,0.1166656911373138,0.4153138995170593,2023-10-21T14:54:51.800611Z,1697900091800,1029
0.3876440227031708,0.1042940691113472,0.4013459384441376,2023-10-21T14:54:51.810740Z,1697900091810,1030
0.38205686211586,0.0891288593411445,0.3844513595104217,2023-10-21T14:54:51.820282Z,1697900091820,1031
0.3771347999572754,0.0728994309902191,0.3650292456150055,2023-10-21T14:54:51.835411Z,1697900091835,1032
0.3720797300338745,0.056137878447771,0.3432126343250274,2023-10-21T14:54:51.840509Z,1697900091840,1033
0.3655613660812378,0.0389772467315197,0.3195336163043976,2023-10-21T14:54:51.851571Z,1697900091851,1034
0.3569145202636719,0.0219496451318264,0.2946573495864868,2023-10-21T14:54:51.860708Z,1697900091860,1035
0.3462722897529602,0.0055871824733912,0.2695150375366211,2023-10-21T14:54:51.871882Z,1697900091871,1036
0.3341667056083679,-0.0090459147468209,0.2454369366168975,2023-10-21T14:54:51.884048Z,1697900091884,1037
0.3038362860679626,-0.0147661250084638,0.216702863574028,2023-10-21T14:54:51.891847Z,1697900091891,1038
0.2943913042545318,-0.0231468975543975,0.1975468099117279,2023-10-21T14:54:51.901185Z,1697900091901,1039
0.2862765789031982,-0.0303304195404052,0.1810513138771057,2023-10-21T14:54:51.912035Z,1697900091912,1040
0.2776297628879547,-0.0321928113698959,0.1666842699050903,2023-10-21T14:54:51.921574Z,1697900091921,1041
0.2701801657676697,-0.0336561240255832,0.1543126553297042,2023-10-21T14:54:51.934346Z,1697900091934,1042
0.2623315155506134,-0.037114854902029,0.1444685757160186,2023-10-21T14:54:51.941754Z,1697900091941,1043
0.2555470764636993,-0.0401745028793811,0.1359547674655914,2023-10-21T14:54:51.952822Z,1697900091952,1044
0.2506250441074371,-0.0449635162949562,0.129303365945816,2023-10-21T14:54:51.961943Z,1697900091961,1045
0.246501162648201,-0.0490873865783214,0.1237161830067634,2023-10-21T14:54:51.973158Z,1697900091973,1046
0.2450378537178039,-0.053211260586977,0.1213216781616211,2023-10-21T14:54:51.983888Z,1697900091983,1047
0.2610012292861938,-0.0619911178946495,0.1286382228136062,2023-10-21T14:54:51.993146Z,1697900091993,1048
0.2576755285263061,-0.0634544268250465,0.1302345544099807,2023-10-21T14:54:52.002590Z,1697900092002,1049
0.2551479935646057,-0.0650507658720016,0.1343584358692169,2023-10-21T14:54:52.013298Z,1697900092013,1050
0.2528865039348602,-0.0666471049189567,0.1408768147230148,2023-10-21T14:54:52.022879Z,1697900092022,1051
0.2511571645736694,-0.0671792179346084,0.1491245627403259,2023-10-21T14:54:52.034162Z,1697900092034,1052
0.2502259612083435,-0.0658489316701889,0.1585695594549179,2023-10-21T14:54:52.043057Z,1697900092043,1053
0.2496938407421112,-0.0627892911434173,0.168280616402626,2023-10-21T14:54:52.054152Z,1697900092054,1054
0.2490286976099014,-0.0587984435260295,0.1778586357831955,2023-10-21T14:54:52.067093Z,1697900092067,1055
0.247698426246643,-0.0548075996339321,0.186239406466484,2023-10-21T14:54:52.074226Z,1697900092074,1056
0.2453039139509201,-0.0509497821331024,0.1926247626543045,2023-10-21T14:54:52.083617Z,1697900092083,1057
0.2419782131910324,-0.0472249947488307,0.1963495463132858,2023-10-21T14:54:52.094433Z,1697900092094,1058
0.2225560992956161,-0.041903868317604,0.183046743273735,2023-10-21T14:54:52.103940Z,1697900092103,1059
0.2205606698989868,-0.0415047816932201,0.1811843365430832,2023-10-21T14:54:52.117528Z,1697900092117,1060
0.2189643383026123,-0.0409726724028587,0.1795880049467086,2023-10-21T14:54:52.124157Z,1697900092124,1061
0.2133771628141403,-0.0490873865783214,0.1665512472391128,2023-10-21T14:54:52.135182Z,1697900092135,1062
0.2085881382226944,-0.0560048520565032,0.1553768813610077,2023-10-21T14:54:52.144349Z,1697900092144,1063
0.2002073675394058,-0.0695737227797508,0.1342253983020782,2023-10-21T14:54:52.155517Z,1697900092155,1064
0.1930238455533981,-0.0811471715569496,0.1161335781216621,2023-10-21T14:54:52.166954Z,1697900092166,1065
0.1839779317378997,-0.0948490723967552,0.0913903415203094,2023-10-21T14:54:52.175527Z,1697900092175,1066
0.1762623041868209,-0.106422521173954,0.0703718960285186,2023-10-21T14:54:52.184942Z,1697900092184,1067
0.1676154732704162,-0.117330826818943,0.046559851616621,2023-10-21T14:54:52.195719Z,1697900092195,1068
0.1602989286184311,-0.1265097707509994,0.0262065455317497,2023-10-21T14:54:52.205238Z,1697900092205,1069
0.1524502635002136,-0.1378171592950821,0.0053211259655654,2023-10-21T14:54:52.217201Z,1697900092217,1070
0.1456658244132995,-0.1475282162427902,-0.0125046465545892,2023-10-21T14:54:52.225420Z,1697900092225,1071
0.1412758976221084,-0.1597668081521988,-0.0308625306934118,2023-10-21T14:54:52.236498Z,1697900092236,1072
0.1374180763959884,-0.1701430082321167,-0.0464268252253532,2023-10-21T14:54:52.245587Z,1697900092245,1073
0.1378171592950821,-0.18331278860569,-0.0607938654720783,2023-10-21T14:54:52.256841Z,1697900092256,1074
0.1380832195281982,-0.1944871544837951,-0.0731654837727546,2023-10-21T14:54:52.266788Z,1697900092266,1075
0.1428722292184829,-0.2037991285324096,-0.0823444277048111,2023-10-21T14:54:52.276793Z,1697900092276,1076
0.1469961106777191,-0.2117808163166046,-0.0901930853724479,2023-10-21T14:54:52.286415Z,1697900092286,1077
0.1537805497646331,-0.2175010293722152,-0.0928536504507064,2023-10-21T14:54:52.301306Z,1697900092301,1078
0.1597668081521988,-0.2222900390625,-0.0951151251792907,2023-10-21T14:54:52.306546Z,1697900092306,1079
0.1666842699050903,-0.223487302660942,-0.0913903415203094,2023-10-21T14:54:52.317468Z,1697900092317,1080
0.1725375205278396,-0.2244184911251068,-0.0883306935429573,2023-10-21T14:54:52.326731Z,1697900092326,1081
0.1781246960163116,-0.2175010293722152,-0.0788856968283653,2023-10-21T14:54:52.337850Z,1697900092337,1082
0.1829137057065963,-0.2116477936506271,-0.0709040015935897,2023-10-21T14:54:52.350002Z,1697900092349,1083
0.1831797659397125,-0.1982119530439376,-0.056137878447771,2023-10-21T14:54:52.358095Z,1697900092358,1084
0.1834458261728286,-0.1867715269327163,-0.0435002073645591,2023-10-21T14:54:52.367335Z,1697900092367,1085
0.177725613117218,-0.1698769479990005,-0.0248762648552656,2023-10-21T14:54:52.378167Z,1697900092378,1086
0.1729366034269333,-0.1556429415941238,-0.0090459147468209,2023-10-21T14:54:52.387671Z,1697900092387,1087
0.1654870212078094,-0.1396795660257339,0.0105092236772179,2023-10-21T14:54:52.400639Z,1697900092400,1088
0.1589686423540115,-0.1261106878519058,0.0271377433091402,2023-10-21T14:54:52.407856Z,1697900092407,1089
0.1545787155628204,-0.1144042089581489,0.043766263872385,2023-10-21T14:54:52.418823Z,1697900092418,1090
0.1508539170026779,-0.1044270992279052,0.058000274002552,2023-10-21T14:54:52.428010Z,1697900092427,1091
0.1515190601348877,-0.0965784415602684,0.0709040015935897,2023-10-21T14:54:52.439141Z,1697900092439,1092
0.15205118060112,-0.0897940024733543,0.0819453448057174,2023-10-21T14:54:52.450105Z,1697900092450,1093
0.1544456779956817,-0.0840737894177436,0.0921885073184967,2023-10-21T14:54:52.459144Z,1697900092459,1094
0.1564411073923111,-0.0791517496109008,0.1008353382349014,2023-10-21T14:54:52.468666Z,1697900092468,1095
0.1557759642601013,-0.0730324536561966,0.1085509732365608,2023-10-21T14:54:52.479541Z,1697900092479,1096
0.1552438586950302,-0.0678443610668182,0.1152023822069168,2023-10-21T14:54:52.488952Z,1697900092488,1097
0.1469961106777191,-0.0615920349955558,0.1182620301842689,2023-10-21T14:54:52.500330Z,1697900092500,1098
0.1399456113576889,-0.0564039349555969,0.1207895651459693,2023-10-21T14:54:52.509101Z,1697900092509,1099
0.0979087203741073,0.0168945752084255,0.1058904081583023,2023-10-21T14:56:45.343586Z,1697900205343,1100
0.08367470651865,0.014367040246725,0.0904591456055641,2023-10-21T14:56:45.354706Z,1697900205354,1101
0.0714361146092414,0.0123716183006763,0.0771563276648521,2023-10-21T14:56:45.363747Z,1697900205363,1102
0.0610599219799041,0.0105092236772179,0.0659819617867469,2023-10-21T14:56:45.374849Z,1697900205374,1103
0.0521470345556736,0.008912886492908,0.0562709085643291,2023-10-21T14:56:45.387463Z,1697900205387,1104
0.0445644296705722,0.0077156326733529,0.0481561906635761,2023-10-21T14:56:45.394930Z,1697900205394,1105
0.0667801350355148,0.0333900675177574,0.0929866805672645,2023-10-21T14:56:45.404262Z,1697900205404,1106
0.0856701284646987,0.0553397126495838,0.1312987804412841,2023-10-21T14:56:45.415193Z,1697900205415,1107
0.0731654837727546,0.0473580211400985,0.1121427342295646,2023-10-21T14:56:45.424623Z,1697900205424,1108
0.0625232309103012,0.040440559387207,0.0957802683115005,2023-10-21T14:56:45.437853Z,1697900205437,1109
0.0810141414403915,0.0309955589473247,0.1025647073984146,2023-10-21T14:56:45.444858Z,1697900205444,1110
0.0968444943428039,0.0230138711631298,0.1084179431200027,2023-10-21T14:56:45.455894Z,1697900205455,1111
0.0827435106039047,0.0196881666779518,0.0925875902175903,2023-10-21T14:56:45.465035Z,1697900205465,1112
0.0706379488110542,0.0167615469545125,0.0791517496109008,2023-10-21T14:56:45.476210Z,1697900205476,1113
0.0892618894577026,0.0331240110099315,0.0747618228197097,2023-10-21T14:56:45.487588Z,1697900205487,1114
0.1052252650260925,0.0470919646322727,0.0710370317101478,2023-10-21T14:56:45.496171Z,1697900205496,1115
0.1000371724367141,0.0643856227397918,0.0574681609869003,2023-10-21T14:56:45.505597Z,1697900205505,1116
0.0956472381949424,0.0792847797274589,0.0458947122097015,2023-10-21T14:56:45.516375Z,1697900205516,1117
0.0920554846525192,0.1032298430800437,0.0312616154551506,2023-10-21T14:56:45.525918Z,1697900205525,1118
0.0940509065985679,0.1442025154829025,0.0147661250084638,2023-10-21T14:56:45.538045Z,1697900205538,1119
0.0908582285046577,0.1641567349433899,0.0045229573734104,2023-10-21T14:56:45.546076Z,1697900205546,1120
0.0885967463254928,0.1807852536439895,-0.0041238726116716,2023-10-21T14:56:45.557206Z,1697900205557,1121
0.0868673846125602,0.1931568831205368,-0.0110413366928696,2023-10-21T14:56:45.566269Z,1697900205566,1122
0.0796838626265525,0.1835788488388061,-0.0130367586389184,2023-10-21T14:56:45.577499Z,1697900205577,1123
0.0792847797274589,0.1875696927309036,-0.0168945752084255,2023-10-21T14:56:45.588368Z,1697900205588,1124
0.0790187194943428,0.1908953934907913,-0.0200872514396905,2023-10-21T14:56:45.597570Z,1697900205597,1125
0.0782205536961555,0.1859733611345291,-0.0199542231857776,2023-10-21T14:56:45.606954Z,1697900205606,1126
0.0776884406805038,0.1818494796752929,-0.0199542231857776,2023-10-21T14:56:45.618456Z,1697900205618,1127
0.0663810446858406,0.1553768813610077,-0.0170276034623384,2023-10-21T14:56:45.627255Z,1697900205627,1128
0.0566699914634227,0.1326290667057037,-0.014500068500638,2023-10-21T14:56:45.638181Z,1697900205638,1129
0.0695737227797508,0.1383492797613144,-0.0102431681007146,2023-10-21T14:56:45.647364Z,1697900205647,1130
0.0806150585412979,0.1431382894515991,-0.0065183793194592,2023-10-21T14:56:45.658562Z,1697900205658,1131
0.068908579647541,0.1222528740763664,-0.0055871824733912,2023-10-21T14:56:45.670951Z,1697900205670,1132
0.0587984435260295,0.1044270992279052,-0.004789013415575,2023-10-21T14:56:45.678592Z,1697900205678,1133
0.0502846427261829,0.0891288593411445,-0.0039908443577587,2023-10-21T14:56:45.687989Z,1697900205687,1134
0.0429680943489074,0.0762251317501068,-0.0034587320405989,2023-10-21T14:56:45.698845Z,1697900205698,1135
0.0367157682776451,0.0650507658720016,-0.0029266192577779,2023-10-21T14:56:45.708299Z,1697900205708,1136
0.0312616154551506,0.0556057691574096,-0.0025275349617004,2023-10-21T14:56:45.720953Z,1697900205720,1137
0.0267386585474014,0.0474910512566566,-0.0021284504327923,2023-10-21T14:56:45.728455Z,1697900205728,1138
0.0228808429092168,0.0405735857784748,-0.001862394157797,2023-10-21T14:56:45.739635Z,1697900205739,1139
0.0558718256652355,0.0572021044790744,0.0441653467714786,2023-10-21T14:56:45.748670Z,1697900205748,1140
0.0839407667517662,0.071303091943264,0.0834086537361145,2023-10-21T14:56:45.759923Z,1697900205759,1141
0.0759590715169906,0.0536103434860706,0.0892618894577026,2023-10-21T14:56:45.770666Z,1697900205770,1142
0.0691746398806572,0.0383121073246002,0.0941839292645454,2023-10-21T14:56:45.779862Z,1697900205779,1143
0.0647847130894661,0.0259404890239238,0.0965784415602684,2023-10-21T14:56:45.789376Z,1697900205789,1144
0.0609268918633461,0.0152982370927929,0.0985738635063171,2023-10-21T14:56:45.800202Z,1697900205800,1145
0.0520140081644058,0.0131697868928313,0.0842068195343017,2023-10-21T14:56:45.809695Z,1697900205809,1146
0.0444314032793045,0.0111743649467825,0.0719682276248931,2023-10-21T14:56:45.820944Z,1697900205820,1147
0.0379130244255065,0.00957802683115,0.0614590048789978,2023-10-21T14:56:45.829822Z,1697900205829,1148
0.0324588678777217,0.0081147169694304,0.0524130910634994,2023-10-21T14:56:45.841319Z,1697900205841,1149
0.0484222471714019,0.0119725335389375,0.074229709804058,2023-10-21T14:56:45.849944Z,1697900205849,1150
0.0622571744024753,0.0152982370927929,0.0928536504507064,2023-10-21T14:56:45.861261Z,1697900205861,1151
0.0530782341957092,0.0130367586389184,0.0792847797274589,2023-10-21T14:56:45.870551Z,1697900205870,1152
0.0453625991940498,0.0111743649467825,0.0677113309502601,2023-10-21T14:56:45.881221Z,1697900205881,1153
0.0590645000338554,0.0360506288707256,0.0627892911434173,2023-10-21T14:56:45.890661Z,1697900205890,1154
