ACC_X,ACC_Y,ACC_Z,DATE,UNIX_TIMESTAMP,norm,Line_Number
0.2425193786621093,0.1367654800415039,0.121058702468872,2023-10-20T12:10:40.311086Z,1697803840311,0.303604438375142,0
0.0294370651245117,0.0159406661987304,0.0153369903564453,2023-10-20T12:10:40.331346Z,1697803840331,0.0368221253487327,1
-0.1868228912353515,-0.0965421199798584,-0.1015920639038086,2023-10-20T12:10:40.354522Z,1697803840354,0.2335468284262856,2
-0.4023780822753906,-0.197089672088623,-0.2282929420471191,2023-10-20T12:10:40.371664Z,1697803840371,0.502861936646781,3
-0.615056037902832,-0.2837262153625488,-0.363919734954834,2023-10-20T12:10:40.391922Z,1697803840391,0.7689161648283134,4
-0.8248715400695801,-0.3562409877777099,-0.5089983940124512,2023-10-20T12:10:40.412879Z,1697803840412,1.032666482508682,5
-1.03239107131958,-0.4148895740509033,-0.6644086837768555,2023-10-20T12:10:40.432852Z,1697803840432,1.2959180459715127,6
-1.2367267608642578,-0.4589967727661133,-0.8295321464538574,2023-10-20T12:10:40.454414Z,1697803840454,1.558298655729334,7
-1.4351811408996582,-0.4869675636291504,-1.0018348693847656,2023-10-20T12:10:40.473443Z,1697803840473,1.8167430805527087,8
-1.623511791229248,-0.4968706369400024,-1.1771459579467771,2023-10-20T12:10:40.493703Z,1697803840493,2.0659969923559918,9
-1.797260284423828,-0.4875993728637695,-1.3504643440246582,2023-10-20T12:10:40.513691Z,1697803840513,2.300359020428401,10
-1.952592372894287,-0.4591983556747436,-1.5162625312805176,2023-10-20T12:10:40.534087Z,1697803840534,2.5144645887951045,11
-2.086618423461914,-0.4129818677902221,-1.6677579879760742,2023-10-20T12:10:40.554299Z,1697803840554,2.7029515672154,12
-2.1980504989624023,-0.3521108031272888,-1.7973055839538574,2023-10-20T12:10:40.574531Z,1697803840574,2.861068921885582,13
-2.287970542907715,-0.2821442484855652,-1.8980655670166016,2023-10-20T12:10:40.594574Z,1697803840594,2.986145923906091,14
-2.35863733291626,-0.209831029176712,-1.966147422790528,2023-10-20T12:10:40.614978Z,1697803840614,3.077813317467049,15
-2.409246921539306,-0.140458881855011,-1.9980106353759768,2023-10-20T12:10:40.638111Z,1697803840638,3.133088879287356,16
-2.4369912147521973,-0.0778588503599166,-1.9898285865783687,2023-10-20T12:10:40.655299Z,1697803840655,3.147126623655811,17
-2.4391260147094727,-0.0256116725504398,-1.938230037689209,2023-10-20T12:10:40.675417Z,1697803840675,3.115562124625997,18
-2.4160032272338867,0.0127445235848426,-1.843672275543213,2023-10-20T12:10:40.696328Z,1697803840696,3.0391382786067256,19
-2.3686299324035645,0.0346779450774192,-1.7101507186889648,2023-10-20T12:10:40.716494Z,1697803840716,2.921682015070307,20
-2.2951951026916504,0.0393561050295829,-1.542835712432861,2023-10-20T12:10:40.738554Z,1697803840738,2.765829260453553,21
-2.1902623176574707,0.02871835231781,-1.3472888469696045,2023-10-20T12:10:40.756876Z,1697803840756,2.5716261394453923,22
-2.0456552505493164,0.0066007878631353,-1.1300666332244873,2023-10-20T12:10:40.776934Z,1697803840776,2.337049329823341,23
-1.8525481224060056,-0.0208969712257385,-0.8999252319335938,2023-10-20T12:10:40.797837Z,1697803840797,2.0596690637835877,24
-1.6031489372253418,-0.0468714982271194,-0.6670174598693848,2023-10-20T12:10:40.817610Z,1697803840817,1.7370076983258893,25
-1.2917790412902832,-0.0644973218441009,-0.4432466030120849,2023-10-20T12:10:40.837942Z,1697803840837,1.367230977971044,26
-0.9131975173950196,-0.0664751529693603,-0.2430014610290527,2023-10-20T12:10:40.858142Z,1697803840858,0.9473111219662635,27
-0.4648952484130859,-0.0454447269439697,-0.0859099626541137,2023-10-20T12:10:40.878916Z,1697803840878,0.4749456146626769,28
0.0476770401000976,0.0059825181961059,0.0047669410705566,2023-10-20T12:10:40.898934Z,1697803840898,0.0482867932652729,29
0.6075601577758789,0.0957608222961425,0.0073368102312088,2023-10-20T12:10:40.921020Z,1697803840920,0.6151043075673044,30
1.207737922668457,0.2372002601623535,-0.0954928994178772,2023-10-20T12:10:40.939465Z,1697803840939,1.2345095168170397,31
1.853742599487305,0.451129674911499,-0.3222850561141968,2023-10-20T12:10:40.959981Z,1697803840959,1.9348765506187304,32
2.564006805419922,0.76528000831604,-0.6901979446411133,2023-10-20T12:10:40.980257Z,1697803840980,2.7633598376170063,33
3.338167190551758,1.201704978942871,-1.2069075107574463,2023-10-20T12:10:41.000055Z,1697803841000,3.7475433003522505,34
4.15943717956543,1.7692630290985107,-1.8686656951904297,2023-10-20T12:10:41.020593Z,1697803841020,4.891126741075883,35
4.986684322357178,2.4661459922790527,-2.6585936546325684,2023-10-20T12:10:41.040614Z,1697803841040,6.1657940937505735,36
5.786855697631836,3.2840118408203125,-3.547114849090576,2023-10-20T12:10:41.061101Z,1697803841061,7.540189413303947,37
6.5266523361206055,4.207622528076172,-4.479089736938477,2023-10-20T12:10:41.081093Z,1697803841081,8.964570426234056,38
7.20184850692749,5.205587863922119,-5.399771690368652,2023-10-20T12:10:41.104351Z,1697803841104,10.398187401362494,39
7.839117050170898,6.246406078338623,-6.288185119628906,2023-10-20T12:10:41.121436Z,1697803841121,11.832608212921958,40
8.434103965759277,7.289764404296875,-7.127133369445801,2023-10-20T12:10:41.141562Z,1697803841141,13.231432456134822,41
8.982712745666504,8.298347473144531,-7.899751663208008,2023-10-20T12:10:41.162401Z,1697803841162,14.558769707518604,42
9.459095001220703,9.233797073364258,-8.600083351135254,2023-10-20T12:10:41.182394Z,1697803841182,15.770190876481571,43
9.846436500549316,10.072637557983398,-9.22817039489746,2023-10-20T12:10:41.204302Z,1697803841204,16.83952101370789,44
10.14043140411377,10.812788009643556,-9.778461456298828,2023-10-20T12:10:41.223132Z,1697803841223,17.75846395540307,45
10.354634284973145,11.449502944946287,-10.232632637023926,2023-10-20T12:10:41.243526Z,1697803841243,18.520700298481216,46
10.491528511047363,11.982157707214355,-10.573494911193848,2023-10-20T12:10:41.263527Z,1697803841263,19.11656528918619,47
10.562350273132324,12.406048774719238,-10.809370994567873,2023-10-20T12:10:41.283517Z,1697803841283,19.552897248010492,48
10.570314407348633,12.73426342010498,-10.950580596923828,2023-10-20T12:10:41.304050Z,1697803841304,19.84460195953929,49
10.509414672851562,12.971019744873049,-10.975025177001951,2023-10-20T12:10:41.324010Z,1697803841323,19.978646791603804,50
10.39704132080078,13.118196487426758,-10.860404014587402,2023-10-20T12:10:41.344778Z,1697803841344,19.95329352937105,51
10.232912063598633,13.177345275878906,-10.590384483337402,2023-10-20T12:10:41.364616Z,1697803841364,19.761355250234843,52
10.020755767822266,13.157455444335938,-10.167154312133787,2023-10-20T12:10:41.387203Z,1697803841387,19.41404663471192,53
9.766094207763672,13.063247680664062,-9.600605964660645,2023-10-20T12:10:41.405201Z,1697803841405,18.926084405654745,54
9.482624053955078,12.881961822509766,-8.897868156433105,2023-10-20T12:10:41.425626Z,1697803841425,18.304020243501505,55
9.18300724029541,12.589946746826172,-8.071233749389648,2023-10-20T12:10:41.446081Z,1697803841446,17.549336035888174,56
8.873617172241211,12.16664218902588,-7.141032695770264,2023-10-20T12:10:41.465870Z,1697803841465,16.666211682243166,57
8.539253234863281,11.605642318725586,-6.153921127319336,2023-10-20T12:10:41.487004Z,1697803841486,15.667818121250466,58
8.160249710083008,10.916910171508787,-5.154928684234619,2023-10-20T12:10:41.506595Z,1697803841506,14.571955694526617,59
7.723360538482666,10.122587203979492,-4.170970916748047,2023-10-20T12:10:41.526516Z,1697803841526,13.398286013439131,60
7.244439125061035,9.240317344665527,-3.2202634811401367,2023-10-20T12:10:41.547353Z,1697803841547,12.175198550939797,61
6.739574909210205,8.291679382324219,-2.3298842906951904,2023-10-20T12:10:41.570693Z,1697803841570,10.936278057188584,62
6.227842330932617,7.300509452819824,-1.542219877243042,2023-10-20T12:10:41.587923Z,1697803841587,9.719151224228964,63
5.709084987640381,6.30702018737793,-0.8850128650665283,2023-10-20T12:10:41.607985Z,1697803841607,8.55309317214695,64
5.1652679443359375,5.342722892761231,-0.3547720909118652,2023-10-20T12:10:41.628390Z,1697803841628,7.439794626339448,65
4.614151954650879,4.446474552154541,0.0550525337457656,2023-10-20T12:10:41.648666Z,1697803841648,6.408163932441045,66
4.072772979736328,3.6470189094543457,0.3519721627235412,2023-10-20T12:10:41.670597Z,1697803841670,5.478331048204387,67
3.5798730850219727,2.974851131439209,0.5561292171478271,2023-10-20T12:10:41.688763Z,1697803841688,4.687697757455714,68
3.1604433059692383,2.438037395477295,0.6920945644378662,2023-10-20T12:10:41.709078Z,1697803841709,4.051101469738313,69
2.817845344543457,2.018262386322021,0.7784698009490967,2023-10-20T12:10:41.729322Z,1697803841729,3.552414766999656,70
2.530855655670166,1.687510967254639,0.8218727111816406,2023-10-20T12:10:41.749551Z,1697803841749,3.1509361097660187,71
2.286083698272705,1.4227609634399414,0.8276364803314209,2023-10-20T12:10:41.770580Z,1697803841770,2.816985903083674,72
2.074481964111328,1.2115397453308103,0.8075082302093506,2023-10-20T12:10:41.790275Z,1697803841790,2.5344375146756484,73
1.892913818359375,1.0410609245300293,0.7710182666778564,2023-10-20T12:10:41.810606Z,1697803841810,2.293774125730368,74
1.7387800216674805,0.901747703552246,0.7187061309814453,2023-10-20T12:10:41.831041Z,1697803841830,2.0863948301608763,75
1.5887212753295898,0.7789654731750488,0.6454300880432129,2023-10-20T12:10:41.854055Z,1697803841854,1.883454936449284,76
1.4422225952148438,0.6687517166137695,0.5566699504852295,2023-10-20T12:10:41.870949Z,1697803841870,1.6843741586700178,77
1.306966781616211,0.5702548027038574,0.4635863304138183,2023-10-20T12:10:41.891498Z,1697803841891,1.499421553133608,78
1.1994695663452148,0.4873208999633789,0.3774514198303222,2023-10-20T12:10:41.911950Z,1697803841911,1.3485838774289949,79
1.1384391784667969,0.4258201122283935,0.3046822547912597,2023-10-20T12:10:41.932146Z,1697803841932,1.2530753398862509,80
1.1361780166625977,0.3877654075622558,0.2449538707733154,2023-10-20T12:10:41.953483Z,1697803841953,1.2252611540631273,81
1.1960506439208984,0.3706374168395996,0.1932368278503418,2023-10-20T12:10:41.973180Z,1697803841973,1.26698449446818,82
1.313030242919922,0.3689422607421875,0.1425808668136596,2023-10-20T12:10:41.993204Z,1697803841993,1.3713118223676335,83
1.477949142456055,0.3768339157104492,0.0867027640342712,2023-10-20T12:10:42.013669Z,1697803842013,1.5276959242622337,84
1.6785402297973633,0.3887336254119873,0.0213608890771865,2023-10-20T12:10:42.033274Z,1697803842033,1.723098204443467,85
1.8975801467895508,0.399958848953247,-0.0548134446144104,2023-10-20T12:10:42.053541Z,1697803842053,1.9400469087257544,86
2.118239402770996,0.408555269241333,-0.1404249668121338,2023-10-20T12:10:42.073988Z,1697803842073,2.1618452180442227,87
2.326211929321289,0.4151756763458252,-0.2325775623321533,2023-10-20T12:10:42.094301Z,1697803842094,2.374389417270523,88
2.514378547668457,0.4214898347854614,-0.3285547494888305,2023-10-20T12:10:42.114532Z,1697803842114,2.5705449588004647,89
2.679957389831543,0.4286059141159057,-0.4256329536437988,2023-10-20T12:10:42.136922Z,1697803842136,2.7471872983390435,90
2.816015243530273,0.4363408088684082,-0.5193734169006348,2023-10-20T12:10:42.154835Z,1697803842154,2.8965641542113025,91
2.917745590209961,0.4449026584625244,-0.6061074733734131,2023-10-20T12:10:42.175376Z,1697803842175,3.0130622253740125,92
2.9877519607543945,0.4544289112091064,-0.6843903064727783,2023-10-20T12:10:42.195643Z,1697803842195,3.0986380082107567,93
3.034488677978516,0.4652574062347412,-0.7543048858642578,2023-10-20T12:10:42.216026Z,1697803842215,3.1612595356399917,94
3.064678192138672,0.4775879383087158,-0.8161909580230713,2023-10-20T12:10:42.237429Z,1697803842237,3.20725900733741,95
3.0803518295288086,0.4916176795959472,-0.8690652847290039,2023-10-20T12:10:42.255704Z,1697803842255,3.238136779954467,96
3.079139709472656,0.5067858695983887,-0.9113078117370604,2023-10-20T12:10:42.276877Z,1697803842276,3.25090990275168,97
3.0554685592651367,0.521241307258606,-0.9401750564575196,2023-10-20T12:10:42.296769Z,1697803842296,3.239060010841931,98
3.0056228637695312,0.5326156616210938,-0.9534702301025392,2023-10-20T12:10:42.320331Z,1697803842320,3.197898328888838,99
0.3814401626586914,0.1621878147125244,-0.1737096309661865,2023-10-20T12:13:34.439580Z,1697804014439,0.4494179800817072,100
0.4548759460449219,0.1900789737701416,-0.2049102783203125,2023-10-20T12:13:34.459813Z,1697804014459,0.5338823510110451,101
0.5171899795532227,0.2120041847229004,-0.2289643287658691,2023-10-20T12:13:34.481464Z,1697804014481,0.6040330397730653,102
0.5629205703735352,0.2257170677185058,-0.2433910369873047,2023-10-20T12:13:34.499903Z,1697804014499,0.6535036037351762,103
0.5869569778442383,0.2292735576629638,-0.246349811553955,2023-10-20T12:13:34.520484Z,1697804014520,0.6765893050707669,104
0.5875911712646484,0.2223987579345703,-0.2380034923553466,2023-10-20T12:13:34.541295Z,1697804014541,0.6718409443107368,105
0.5673551559448242,0.2068262100219726,-0.2206394672393798,2023-10-20T12:13:34.560880Z,1697804014560,0.6429235791545573,106
0.532893180847168,0.1859931945800781,-0.1981611251831054,2023-10-20T12:13:34.581551Z,1697804014581,0.5981943180583962,107
0.4936504364013672,0.1641125679016113,-0.1750259399414062,2023-10-20T12:13:34.601826Z,1697804014601,0.5488695363698863,108
0.4587421417236328,0.1447572708129882,-0.1548106670379638,2023-10-20T12:13:34.622374Z,1697804014622,0.505336880382928,109
0.434122085571289,0.1298310756683349,-0.1393141746520996,2023-10-20T12:13:34.641975Z,1697804014641,0.474053301485137,110
0.423161506652832,0.1200084686279296,-0.1290972232818603,2023-10-20T12:13:34.662143Z,1697804014662,0.4584035190901156,111
0.4275588989257812,0.1152651309967041,-0.1240420341491699,2023-10-20T12:13:34.682203Z,1697804014682,0.4598685559050298,112
0.4487276077270508,0.1154782772064209,-0.1239161491394043,2023-10-20T12:13:34.702506Z,1697804014702,0.4796320573737164,113
0.4862661361694336,0.120182991027832,-0.1280701160430908,2023-10-20T12:13:34.723506Z,1697804014723,0.5170112775760668,114
0.535980224609375,0.1281886100769043,-0.1350424289703369,2023-10-20T12:13:34.743495Z,1697804014743,0.567400721314287,115
0.5899057388305664,0.1377160549163818,-0.1427860260009765,2023-10-20T12:13:34.764501Z,1697804014764,0.622368332828816,116
0.6399669647216797,0.1472144126892089,-0.1495563983917236,2023-10-20T12:13:34.784181Z,1697804014784,0.6734960397347651,117
0.679290771484375,0.1554193496704101,-0.1540513038635254,2023-10-20T12:13:34.804264Z,1697804014804,0.713668642086692,118
0.7031822204589844,0.1613986492156982,-0.1553370952606201,2023-10-20T12:13:34.825006Z,1697804014824,0.7380002522372785,119
0.7085742950439453,0.1644198894500732,-0.1525721549987793,2023-10-20T12:13:34.844560Z,1697804014844,0.7432292339007999,120
0.6937570571899414,0.1640074253082275,-0.1449942588806152,2023-10-20T12:13:34.864709Z,1697804014864,0.7274755150968453,121
0.6580429077148438,0.1600103378295898,-0.1320233345031738,2023-10-20T12:13:34.885490Z,1697804014885,0.6899666205400684,122
0.6090631484985352,0.1547563076019287,-0.1154377460479736,2023-10-20T12:13:34.905576Z,1697804014905,0.6389313787991383,123
0.5568618774414062,0.1519789695739746,-0.0982706546783447,2023-10-20T12:13:34.925873Z,1697804014925,0.5855338413031695,124
0.5066823959350586,0.1540799140930175,-0.0828408002853393,2023-10-20T12:13:34.947833Z,1697804014947,0.5360319659025183,125
0.4582405090332031,0.1612691879272461,-0.0694329738616943,2023-10-20T12:13:34.965919Z,1697804014965,0.490727065641382,126
0.4269676208496094,0.1788632869720459,-0.0605978965759277,2023-10-20T12:13:34.986211Z,1697804014986,0.4668677861556171,127
0.4692363739013672,0.237217903137207,-0.0646512508392334,2023-10-20T12:13:35.006735Z,1697804015006,0.5297498394487671,128
0.5738124847412109,0.3404397964477539,-0.0828363895416259,2023-10-20T12:13:35.027399Z,1697804015027,0.6723257321288265,129
0.7721767425537109,0.5228714942932129,-0.129133939743042,2023-10-20T12:13:35.047815Z,1697804015047,0.9414494652815076,130
1.1227750778198242,0.864778995513916,-0.230767011642456,2023-10-20T12:13:35.067274Z,1697804015067,1.4358690748524947,131
1.5978946685791016,1.3868699073791504,-0.4089639186859131,2023-10-20T12:13:35.087529Z,1697804015087,2.154977261748789,132
2.131192207336426,2.0697059631347656,-0.6757838726043701,2023-10-20T12:13:35.108414Z,1697804015108,3.0466944121324797,133
2.6779141426086426,2.885291576385498,-1.0328562259674072,2023-10-20T12:13:35.128888Z,1697804015128,4.069757194165781,134
3.1947784423828125,3.7946019172668457,-1.485105276107788,2023-10-20T12:13:35.148735Z,1697804015148,5.177948501826023,135
3.700217247009277,4.783867835998535,-2.034658670425415,2023-10-20T12:13:35.168596Z,1697804015168,6.38097445947745,136
4.172816753387451,5.81536865234375,-2.664874792098999,2023-10-20T12:13:35.189500Z,1697804015189,7.637569631602584,137
4.59397029876709,6.846755504608154,-3.342514514923096,2023-10-20T12:13:35.209375Z,1697804015209,8.89691111163351,138
4.961849212646484,7.951346397399902,-4.037187099456787,2023-10-20T12:13:35.230747Z,1697804015230,10.205034875810334,139
5.23491096496582,9.090627670288086,-4.694392204284668,2023-10-20T12:13:35.250036Z,1697804015249,11.492655150946426,140
5.38369083404541,10.122032165527344,-5.279878616333008,2023-10-20T12:13:35.270131Z,1697804015270,12.62207512098408,141
5.422854423522949,11.044548988342283,-5.804277420043945,2023-10-20T12:13:35.290617Z,1697804015290,13.604376090929232,142
5.39467716217041,11.861105918884276,-6.277278423309326,2023-10-20T12:13:35.310629Z,1697804015310,14.46349196103,143
5.324921131134033,12.57012176513672,-6.710474967956543,2023-10-20T12:13:35.330926Z,1697804015330,15.21161465915874,144
5.255715847015381,13.164024353027344,-7.080820083618164,2023-10-20T12:13:35.351165Z,1697804015351,15.84462367139832,145
5.177108287811279,13.631261825561523,-7.39259147644043,2023-10-20T12:13:35.371239Z,1697804015371,16.348215741122175,146
5.121251106262207,13.979488372802734,-7.660572528839111,2023-10-20T12:13:35.392851Z,1697804015392,16.743287596177854,147
5.081614017486572,14.211687088012695,-7.893411636352539,2023-10-20T12:13:35.414033Z,1697804015413,17.032345645013443,148
5.060819625854492,14.325366973876951,-8.09455680847168,2023-10-20T12:13:35.432781Z,1697804015432,17.214815832510485,149
5.062987327575684,14.314057350158691,-8.253908157348633,2023-10-20T12:13:35.452727Z,1697804015452,17.281582056419786,150
5.095793724060059,14.172253608703612,-8.367368698120117,2023-10-20T12:13:35.473412Z,1697804015473,17.2288346952968,151
5.16180944442749,13.902345657348633,-8.42479133605957,2023-10-20T12:13:35.493675Z,1697804015493,17.055691149089373,152
5.236669063568115,13.50068473815918,-8.399986267089844,2023-10-20T12:13:35.513434Z,1697804015513,16.740697732406304,153
5.300962448120117,13.09512424468994,-8.278768539428711,2023-10-20T12:13:35.533736Z,1697804015533,16.37438519119666,154
5.31357479095459,12.676446914672852,-8.025655746459961,2023-10-20T12:13:35.554469Z,1697804015554,15.916580461904273,155
5.243993282318115,12.116708755493164,-7.62581729888916,2023-10-20T12:13:35.574760Z,1697804015574,15.246874633395509,156
5.089365482330322,11.433507919311523,-7.102138519287109,2023-10-20T12:13:35.594775Z,1697804015594,14.389826819695791,157
4.884603500366211,10.653623580932615,-6.478264808654785,2023-10-20T12:13:35.614679Z,1697804015614,13.391301717572055,158
4.645224571228027,9.81485652923584,-5.7899250984191895,2023-10-20T12:13:35.634819Z,1697804015634,12.305801585103202,159
4.398543357849121,8.951169967651367,-5.047636985778809,2023-10-20T12:13:35.655570Z,1697804015655,11.178070790653662,160
4.117876529693604,8.08085823059082,-4.277423858642578,2023-10-20T12:13:35.675816Z,1697804015675,10.027638392123722,161
3.821169853210449,7.228408813476562,-3.516035795211792,2023-10-20T12:13:35.697400Z,1697804015697,8.900210151172871,162
3.524970531463623,6.427042007446289,-2.806920289993286,2023-10-20T12:13:35.715717Z,1697804015715,7.849273070007321,163
3.2260613441467285,5.59604549407959,-2.172283411026001,2023-10-20T12:13:35.736647Z,1697804015736,6.814837649263923,164
2.950767993927002,4.783276557922363,-1.6447739601135254,2023-10-20T12:13:35.756966Z,1697804015756,5.8559412363360615,165
2.74289608001709,4.129357814788818,-1.2358253002166748,2023-10-20T12:13:35.777382Z,1697804015777,5.109044826676141,166
2.606543064117432,3.6275930404663086,-0.9186515808105468,2023-10-20T12:13:35.797077Z,1697804015797,4.560418702187772,167
2.5240936279296875,3.2565226554870605,-0.6689083576202393,2023-10-20T12:13:35.817682Z,1697804015817,4.174137855791296,168
2.487312793731689,2.997131824493408,-0.4656004905700683,2023-10-20T12:13:35.837544Z,1697804015837,3.92253845412274,169
2.466024398803711,2.8194851875305176,-0.3054662942886352,2023-10-20T12:13:35.857579Z,1697804015857,3.758202058850167,170
2.468377590179444,2.717639923095703,-0.1787090301513672,2023-10-20T12:13:35.880356Z,1697804015880,3.6756484593553473,171
2.463137626647949,2.6602230072021484,-0.0756914913654327,2023-10-20T12:13:35.898265Z,1697804015898,3.626232565310953,172
2.45070743560791,2.633721351623535,0.0087507925927639,2023-10-20T12:13:35.918540Z,1697804015918,3.597573024875604,173
2.425290107727051,2.620457649230957,0.0798708498477935,2023-10-20T12:13:35.939502Z,1697804015939,3.57144365078145,174
2.386141777038574,2.608060836791992,0.1395894885063171,2023-10-20T12:13:35.959093Z,1697804015959,3.5376742549079343,175
2.337618827819824,2.593580722808838,0.1881871819496154,2023-10-20T12:13:35.981901Z,1697804015981,3.496646559970493,176
2.2811880111694336,2.5779199600219727,0.2248487472534179,2023-10-20T12:13:35.999947Z,1697804015999,3.4496444775837807,177
2.2159948348999023,2.56330680847168,0.2489534020423889,2023-10-20T12:13:36.020141Z,1697804016020,3.397521552403869,178
2.143611431121826,2.5522613525390625,0.2609661817550659,2023-10-20T12:13:36.040383Z,1697804016040,3.3432336632847703,179
2.065876007080078,2.5446157455444336,0.2624764442443847,2023-10-20T12:13:36.060888Z,1697804016060,3.288131209803672,180
1.984407901763916,2.537998676300049,0.2554125785827636,2023-10-20T12:13:36.080952Z,1697804016080,3.231802529051267,181
1.8998489379882808,2.5286903381347656,0.2417733669281005,2023-10-20T12:13:36.100861Z,1697804016100,3.1720900325033434,182
1.8112459182739256,2.511256217956543,0.2231349945068359,2023-10-20T12:13:36.121229Z,1697804016121,3.104320987665889,183
1.716726303100586,2.479071617126465,0.2010257840156555,2023-10-20T12:13:36.141728Z,1697804016141,3.022144379151754,184
1.6121811866760254,2.424266815185547,0.1767627596855163,2023-10-20T12:13:36.163878Z,1697804016163,2.916752105183715,185
1.493624210357666,2.3392810821533203,0.1516941785812378,2023-10-20T12:13:36.182153Z,1697804016182,2.7795971627022515,186
1.361112117767334,2.2192420959472656,0.1277630925178527,2023-10-20T12:13:36.202448Z,1697804016202,2.6065273996962346,187
1.2170376777648926,2.0616350173950195,0.1064587831497192,2023-10-20T12:13:36.222970Z,1697804016222,2.39642507217698,188
1.0657625198364258,1.868513107299805,0.0885170102119445,2023-10-20T12:13:36.243228Z,1697804016243,2.1529111086935573,189
0.9123225212097168,1.6469011306762695,0.0738272666931152,2023-10-20T12:13:36.263705Z,1697804016263,1.884161931001846,190
0.7633194923400879,1.4100990295410156,0.0615835785865783,2023-10-20T12:13:36.284195Z,1697804016284,1.6046272020785304,191
0.6241903305053711,1.1724004745483398,0.0507932901382446,2023-10-20T12:13:36.303591Z,1697804016303,1.3291788441517736,192
0.4999947547912597,0.9489412307739258,0.0409705340862274,2023-10-20T12:13:36.324482Z,1697804016324,1.0733884660013893,193
0.3955636024475097,0.7540760040283203,0.0322461724281311,2023-10-20T12:13:36.344472Z,1697804016344,0.8521390726101202,194
0.3149909973144531,0.5997638702392578,0.0250795483589172,2023-10-20T12:13:36.364771Z,1697804016364,0.67791224519064,195
0.2604446411132812,0.4925432205200195,0.0198540389537811,2023-10-20T12:13:36.385234Z,1697804016385,0.5575162939570795,196
0.2302308082580566,0.4304971694946289,0.01645427942276,2023-10-20T12:13:36.405342Z,1697804016405,0.4884718838637159,197
0.2195587158203125,0.4049253463745117,0.0144203007221221,2023-10-20T12:13:36.425387Z,1697804016425,0.4608454305969621,198
0.2220420837402343,0.403717041015625,0.013179987668991,2023-10-20T12:13:36.448110Z,1697804016448,0.4609380091000001,199
1.171417236328125,0.1836487054824829,-0.2325398921966552,2023-10-20T12:16:13.497212Z,1697804173497,1.208312869274695,200
1.2370939254760742,0.137646198272705,-0.2592785358428955,2023-10-20T12:16:13.521229Z,1697804173521,1.2714453254063138,201
1.360926628112793,0.0937944650650024,-0.2997646331787109,2023-10-20T12:16:13.538524Z,1697804173538,1.396702374913157,202
1.5430335998535156,0.0471782088279724,-0.3543794155120849,2023-10-20T12:16:13.558155Z,1697804173558,1.5839075868887686,203
1.772810935974121,-0.0058606304228305,-0.4199309349060058,2023-10-20T12:16:13.577928Z,1697804173577,1.8218767663564472,204
2.0288543701171875,-0.066932737827301,-0.4888665676116943,2023-10-20T12:16:13.598310Z,1697804173598,2.0879943887532617,205
2.2880334854125977,-0.1358829140663147,-0.5516541004180908,2023-10-20T12:16:13.621422Z,1697804173621,2.357516414197909,206
2.5359134674072266,-0.2126336097717285,-0.6004157066345215,2023-10-20T12:16:13.638585Z,1697804173638,2.614683381779777,207
2.76108455657959,-0.2977561950683594,-0.6284143924713135,2023-10-20T12:16:13.659739Z,1697804173659,2.84730597740197,208
2.952547073364258,-0.3919744491577148,-0.6304514408111572,2023-10-20T12:16:13.679188Z,1697804173679,3.0444453039010573,209
3.10227108001709,-0.4944022893905639,-0.6050276756286621,2023-10-20T12:16:13.699814Z,1697804173699,3.199152695002484,210
3.209284782409668,-0.6023561954498291,-0.5558815002441406,2023-10-20T12:16:13.721432Z,1697804173721,3.3123022270192584,211
3.277151107788086,-0.7121462821960449,-0.4898236989974975,2023-10-20T12:16:13.740840Z,1697804173740,3.3892180464853423,212
3.308971405029297,-0.8190443515777588,-0.4140048027038574,2023-10-20T12:16:13.761122Z,1697804173761,3.433879058122876,213
3.308155059814453,-0.9184653759002686,-0.334471583366394,2023-10-20T12:16:13.780690Z,1697804173780,3.449541967650664,214
3.282541275024414,-1.0067598819732666,-0.2566918730735779,2023-10-20T12:16:13.804534Z,1697804173804,3.443041300927387,215
3.2443151473999023,-1.081881046295166,-0.1854222416877746,2023-10-20T12:16:13.821655Z,1697804173821,3.4249713548719924,216
3.2021255493164062,-1.1418452262878418,-0.1236089766025543,2023-10-20T12:16:13.841568Z,1697804173841,3.401866801254564,217
3.1608104705810547,-1.1843464374542236,-0.0730071365833282,2023-10-20T12:16:13.861788Z,1697804173861,3.3762004319704477,218
3.1208553314208984,-1.2058663368225098,-0.0341868847608566,2023-10-20T12:16:13.882191Z,1697804173882,3.3458960481505757,219
3.077643394470215,-1.2016782760620115,-0.0058175381273031,2023-10-20T12:16:13.904559Z,1697804173904,3.303929991152261,220
3.016940116882324,-1.163957595825195,0.0153610669076442,2023-10-20T12:16:13.922881Z,1697804173922,3.2337224550214017,221
2.919210433959961,-1.085765361785889,0.0333428531885147,2023-10-20T12:16:13.942799Z,1697804173942,3.1147692891213463,222
2.764362335205078,-0.964031219482422,0.0523770302534103,2023-10-20T12:16:13.963690Z,1697804173963,2.928104961529796,223
2.5378894805908203,-0.8026127815246582,0.0741484463214874,2023-10-20T12:16:13.983304Z,1697804173983,2.662812100928675,224
2.236551284790039,-0.6138401031494141,0.0964148044586181,2023-10-20T12:16:14.004346Z,1697804174004,2.321261970620561,225
1.870518684387207,-0.4175004959106445,0.1121715307235717,2023-10-20T12:16:14.024655Z,1697804174024,1.9198253214894712,226
1.4567794799804688,-0.2362018823623657,0.1138767004013061,2023-10-20T12:16:14.044355Z,1697804174044,1.4801910976012451,227
1.0327177047729492,-0.0926932096481323,0.0991013050079345,2023-10-20T12:16:14.064400Z,1697804174064,1.0415944304385736,228
0.6609287261962891,-0.0029990412294864,0.0737550258636474,2023-10-20T12:16:14.087264Z,1697804174087,0.6650380283862666,229
0.4174098968505859,0.0385023951530456,0.0517761707305908,2023-10-20T12:16:14.105071Z,1697804174105,0.4223674091083038,230
0.3436164855957031,0.0674617290496826,0.0460405349731445,2023-10-20T12:16:14.125439Z,1697804174125,0.3531898992328747,231
0.4028081893920898,0.1228132247924804,0.0569205284118652,2023-10-20T12:16:14.145438Z,1697804174145,0.4249440812388707,232
0.5857467651367188,0.2448868751525879,0.0836881399154663,2023-10-20T12:16:14.165529Z,1697804174165,0.640369080493929,233
0.8762140274047852,0.4688615798950195,0.1191363334655761,2023-10-20T12:16:14.187672Z,1697804174187,1.0008874406616302,234
1.268843650817871,0.8287005424499512,0.1500332355499267,2023-10-20T12:16:14.206483Z,1697804174206,1.5228981486124562,235
1.7267465591430664,1.3286890983581543,0.1636529564857483,2023-10-20T12:16:14.226318Z,1697804174226,2.1849143438072693,236
2.20263147354126,1.9521079063415527,0.1546398997306823,2023-10-20T12:16:14.247038Z,1697804174246,2.9472400962297693,237
2.669224739074707,2.679457664489746,0.1262590289115905,2023-10-20T12:16:14.266767Z,1697804174266,3.7842034070413,238
3.0945310592651367,3.479331970214844,0.0846622884273529,2023-10-20T12:16:14.287688Z,1697804174287,4.657149464940702,239
3.4525294303894043,4.33059024810791,0.0328341126441955,2023-10-20T12:16:14.307798Z,1697804174307,5.53850606604935,240
3.7373976707458496,5.228650093078613,-0.0336091592907905,2023-10-20T12:16:14.328047Z,1697804174327,6.427134098549347,241
3.976146697998047,6.174345016479492,-0.1141854524612426,2023-10-20T12:16:14.348045Z,1697804174348,7.344747597030118,242
4.163805961608887,7.120663642883301,-0.1966947317123413,2023-10-20T12:16:14.370748Z,1697804174370,8.251049607079889,243
4.302038192749023,8.024277687072754,-0.2682219743728637,2023-10-20T12:16:14.389199Z,1697804174389,9.108705069254434,244
4.38229513168335,8.842241287231445,-0.3157929182052612,2023-10-20T12:16:14.409419Z,1697804174409,9.873675443824585,245
4.416954517364502,9.553298950195312,-0.350393533706665,2023-10-20T12:16:14.428887Z,1697804174428,10.53080166315618,246
4.432941436767578,10.134432792663574,-0.3777891397476196,2023-10-20T12:16:14.449592Z,1697804174449,11.067990894689832,247
4.436831474304199,10.562063217163086,-0.4014673233032226,2023-10-20T12:16:14.470797Z,1697804174470,11.463150917021292,248
4.434298515319824,10.821537017822266,-0.4237887263298034,2023-10-20T12:16:14.490317Z,1697804174490,11.702489634074857,249
4.428607940673828,10.904870986938477,-0.4446354508399963,2023-10-20T12:16:14.510206Z,1697804174510,11.77822058793753,250
4.4166669845581055,10.816631317138672,-0.4570709466934204,2023-10-20T12:16:14.530922Z,1697804174530,11.69253497551758,251
4.389382362365723,10.57268238067627,-0.4502179622650146,2023-10-20T12:16:14.550529Z,1697804174550,11.456482289920226,252
4.329044342041016,10.18747615814209,-0.416404128074646,2023-10-20T12:16:14.570784Z,1697804174570,11.076943973224225,253
4.211162567138672,9.672012329101562,-0.3523251414299011,2023-10-20T12:16:14.591202Z,1697804174591,10.554896762472204,254
4.015791893005371,9.052953720092772,-0.2632474899291992,2023-10-20T12:16:14.611794Z,1697804174611,9.907161794733303,255
3.746545791625977,8.373671531677246,-0.1644218862056732,2023-10-20T12:16:14.631966Z,1697804174631,9.175075740604854,256
3.437046527862549,7.6760454177856445,-0.0615738034248352,2023-10-20T12:16:14.653694Z,1697804174653,8.410633354502394,257
3.0919432640075684,6.96351432800293,0.0500223338603973,2023-10-20T12:16:14.672307Z,1697804174672,7.619261590077395,258
2.720561981201172,6.24479866027832,0.1704338788986206,2023-10-20T12:16:14.693043Z,1697804174692,6.813810645156466,259
2.325119972229004,5.5223894119262695,0.2971448898315429,2023-10-20T12:16:14.712831Z,1697804174712,5.999271854797595,260
1.92825984954834,4.812085151672363,0.4068820476531982,2023-10-20T12:16:14.736920Z,1697804174736,5.1999906302827394,261
1.5570597648620603,4.117894172668457,0.4848296642303467,2023-10-20T12:16:14.753462Z,1697804174753,4.429057160611821,262
1.2231426239013672,3.4453563690185547,0.5237047672271729,2023-10-20T12:16:14.773642Z,1697804174773,3.693348761105226,263
0.9386539459228516,2.808317184448242,0.5233216285705566,2023-10-20T12:16:14.793893Z,1697804174793,3.006922374387736,264
0.706413745880127,2.2063655853271484,0.4885518550872803,2023-10-20T12:16:14.814366Z,1697804174814,2.3676470158352627,265
0.5147137641906738,1.6341562271118164,0.4249730110168457,2023-10-20T12:16:14.837157Z,1697804174837,1.7652192197425178,266
0.3428568840026855,1.0889358520507812,0.3305146694183349,2023-10-20T12:16:14.854186Z,1697804174854,1.1885167560831034,267
0.1919753551483154,0.6037607192993164,0.210982084274292,2023-10-20T12:16:14.874931Z,1697804174874,0.6677536844060646,268
0.0638120174407959,0.1979627609252929,0.0781748294830322,2023-10-20T12:16:14.895196Z,1697804174895,0.2221993074870628,269
-0.0387713909149169,-0.1179637908935546,-0.051422119140625,2023-10-20T12:16:14.915466Z,1697804174915,0.1343983297975395,270
-0.116473913192749,-0.3466634750366211,-0.1642770767211914,2023-10-20T12:16:14.936906Z,1697804174936,0.400909834395414,271
-0.1689856052398681,-0.4971489906311035,-0.2525539398193359,2023-10-20T12:16:14.956212Z,1697804174956,0.5826634930919204,272
-0.1967799663543701,-0.5760965347290039,-0.3091301918029785,2023-10-20T12:16:14.976259Z,1697804174976,0.6827671989553539,273
-0.2033131122589111,-0.5926618576049805,-0.3307490348815918,2023-10-20T12:16:14.996911Z,1697804174996,0.7085049210494555,274
-0.1914663314819336,-0.553978443145752,-0.3161563873291015,2023-10-20T12:16:15.020710Z,1697804175020,0.6659627112761867,275
-0.1635286808013916,-0.4667625427246094,-0.2677421569824219,2023-10-20T12:16:15.037382Z,1697804175037,0.5624008920343087,276
-0.1210393905639648,-0.3379073143005371,-0.1917190551757812,2023-10-20T12:16:15.057083Z,1697804175057,0.4069251568082173,277
-0.0659565925598144,-0.1785364151000976,-0.098949909210205,2023-10-20T12:16:15.077544Z,1697804175077,0.2145148203542206,278
-0.0010318756103515,-0.0026874542236328,-0.0014424324035644,2023-10-20T12:16:15.098084Z,1697804175097,0.0032199050790687,279
0.0694091320037841,0.1732378005981445,0.0897998809814453,2023-10-20T12:16:15.120292Z,1697804175120,0.2071062089505839,280
0.1397922039031982,0.3325653076171875,0.1663093566894531,2023-10-20T12:16:15.138346Z,1697804175138,0.3972409171083558,281
0.2058858871459961,0.4642839431762695,0.2242577075958252,2023-10-20T12:16:15.158883Z,1697804175158,0.5551937480135506,282
0.2653024196624756,0.5637063980102539,0.2635209560394287,2023-10-20T12:16:15.179086Z,1697804175179,0.6764566292885255,283
0.316075325012207,0.6298885345458984,0.2857491970062256,2023-10-20T12:16:15.199100Z,1697804175199,0.7604707625041573,284
0.3561820983886719,0.6639680862426758,0.2932913303375244,2023-10-20T12:16:15.219582Z,1697804175219,0.8085413478681679,285
0.3839592933654785,0.6682858467102051,0.2886221408843994,2023-10-20T12:16:15.239941Z,1697804175239,0.8230027047850982,286
0.399118423461914,0.6469707489013672,0.2743620872497558,2023-10-20T12:16:15.260204Z,1697804175260,0.808171529318351,287
0.4041385650634765,0.6078991889953613,0.2541460990905761,2023-10-20T12:16:15.280458Z,1697804175280,0.7729551367548707,288
0.4045338630676269,0.5623722076416016,0.232419729232788,2023-10-20T12:16:15.301720Z,1697804175301,0.7307045071933993,289
0.4082155227661133,0.5229744911193848,0.2138426303863525,2023-10-20T12:16:15.320681Z,1697804175320,0.6970444045821936,290
0.4226055145263672,0.4985585212707519,0.2014849185943603,2023-10-20T12:16:15.341553Z,1697804175341,0.6839241130862037,291
0.4504351615905761,0.4901819229125976,0.1954734325408935,2023-10-20T12:16:15.361494Z,1697804175361,0.6938155483820894,292
0.4894905090332031,0.4930362701416015,0.1937875747680664,2023-10-20T12:16:15.381676Z,1697804175381,0.7212761927605926,293
0.5344667434692383,0.5000276565551758,0.1937360763549804,2023-10-20T12:16:15.402894Z,1697804175402,0.7571103119599523,294
0.5794343948364258,0.5048456192016602,0.1931185722351074,2023-10-20T12:16:15.422214Z,1697804175422,0.7924065245116859,295
0.6182384490966797,0.5023527145385742,0.1903424263000488,2023-10-20T12:16:15.442685Z,1697804175442,0.8190282467629133,296
0.6455068588256836,0.4892611503601074,0.1844940185546875,2023-10-20T12:16:15.463089Z,1697804175463,0.8307187375551089,297
0.653965950012207,0.4623222351074219,0.1744143962860107,2023-10-20T12:16:15.482556Z,1697804175482,0.8196546190206606,298
0.6359996795654297,0.4195780754089355,0.1591744422912597,2023-10-20T12:16:15.503268Z,1697804175503,0.7783815625064158,299
0.2658338546752929,0.16082763671875,-0.1307864189147949,2023-10-20T12:12:18.410314Z,1697803938410,0.3371027356706249,300
0.2948799133300781,0.1752862930297851,-0.1465091705322265,2023-10-20T12:12:18.430549Z,1697803938430,0.3730206225662585,301
0.3382406234741211,0.1975331306457519,-0.1692969799041748,2023-10-20T12:12:18.452968Z,1697803938452,0.4267171480917405,302
0.391916275024414,0.2248315811157226,-0.1971030235290527,2023-10-20T12:12:18.471021Z,1697803938470,0.4929474702037755,303
0.4516663551330566,0.2545032501220703,-0.227623701095581,2023-10-20T12:12:18.491546Z,1697803938491,0.5662039826620154,304
0.5140175819396973,0.2845268249511719,-0.2588469982147217,2023-10-20T12:12:18.511614Z,1697803938511,0.6420057298379044,305
0.5743274688720703,0.3124632835388183,-0.2881386280059814,2023-10-20T12:12:18.531613Z,1697803938531,0.7144992750241446,306
0.6273307800292969,0.3356943130493164,-0.3125495910644531,2023-10-20T12:12:18.552486Z,1697803938552,0.7771240739163698,307
0.6683235168457031,0.3519353866577148,-0.329538345336914,2023-10-20T12:12:18.572436Z,1697803938572,0.8240815254562592,308
0.6941242218017578,0.3597803115844726,-0.3374853134155273,2023-10-20T12:12:18.592685Z,1697803938592,0.8515554266557713,309
0.704498291015625,0.3593993186950683,-0.3365116119384765,2023-10-20T12:12:18.612909Z,1697803938612,0.8594915806986404,310
0.7006959915161133,0.3517975807189941,-0.3276753425598144,2023-10-20T12:12:18.635691Z,1697803938635,0.8497691100811903,311
0.6844577789306641,0.3382391929626465,-0.3123912811279297,2023-10-20T12:12:18.653192Z,1697803938653,0.8249100043759133,312
0.6571321487426758,0.3197693824768066,-0.291886568069458,2023-10-20T12:12:18.673334Z,1697803938673,0.7869389350515901,313
0.619842529296875,0.2971842288970947,-0.2672538757324219,2023-10-20T12:12:18.693556Z,1697803938693,0.7375282103921916,314
0.5739927291870117,0.2712187767028808,-0.2396135330200195,2023-10-20T12:12:18.713809Z,1697803938713,0.6785587102101758,315
0.5225238800048828,0.2432808876037597,-0.2106053829193115,2023-10-20T12:12:18.735730Z,1697803938735,0.6136541556636117,316
0.4699020385742187,0.2155370712280273,-0.1823174953460693,2023-10-20T12:12:18.754493Z,1697803938754,0.5481822908841787,317
0.4194450378417969,0.1896793842315673,-0.1561791896820068,2023-10-20T12:12:18.774622Z,1697803938774,0.4861114562138,318
0.3717298507690429,0.1660511493682861,-0.132420539855957,2023-10-20T12:12:18.795088Z,1697803938795,0.4281252918656487,319
0.3249473571777344,0.1438229084014892,-0.11027193069458,2023-10-20T12:12:18.814820Z,1697803938814,0.3720694997133835,320
0.2765111923217773,0.1217098236083984,-0.0887496471405029,2023-10-20T12:12:18.835421Z,1697803938835,0.3148781042079016,321
0.2253932952880859,0.0991325378417968,-0.067685842514038,2023-10-20T12:12:18.855979Z,1697803938855,0.2553639968684166,322
0.1729564666748047,0.076639175415039,-0.0478596687316894,2023-10-20T12:12:18.876545Z,1697803938876,0.1951359794195754,323
0.1252059936523437,0.0567278861999511,-0.0313365459442138,2023-10-20T12:12:18.896499Z,1697803938896,0.140984300654006,324
0.0893459320068359,0.042396068572998,-0.0197778940200805,2023-10-20T12:12:18.919209Z,1697803938919,0.1008528001023572,325
0.0717630386352539,0.036750316619873,-0.0136336088180542,2023-10-20T12:12:18.937116Z,1697803938937,0.0817703783483333,326
0.0801448822021484,0.0456657409667968,-0.0124566555023193,2023-10-20T12:12:18.957500Z,1697803938957,0.0930791615107607,327
0.1279573440551757,0.0832405090332031,-0.0149607062339782,2023-10-20T12:12:18.977879Z,1697803938977,0.1533815079231547,328
0.2373371124267578,0.1796216964721679,-0.0180381536483764,2023-10-20T12:12:18.997368Z,1697803938997,0.2981916057934118,329
0.3526206016540527,0.3061633110046386,-0.0132878422737121,2023-10-20T12:12:19.019280Z,1697803939019,0.4671764425444419,330
0.5674853324890137,0.5685868263244629,-0.0055199265480041,2023-10-20T12:12:19.038780Z,1697803939038,0.803343669452238,331
0.8794879913330078,1.010676383972168,0.0013404032215476,2023-10-20T12:12:19.058750Z,1697803939058,1.3397640376942583,332
1.269850730895996,1.648273468017578,-0.0050338562577962,2023-10-20T12:12:19.079078Z,1697803939079,2.0807094087922544,333
1.6887540817260742,2.44453239440918,-0.0380376279354095,2023-10-20T12:12:19.102276Z,1697803939102,2.971376084746141,334
2.1056008338928223,3.3602418899536133,-0.1101851165294647,2023-10-20T12:12:19.119166Z,1697803939119,3.9669788492748217,335
2.503026008605957,4.3554229736328125,-0.2327814698219299,2023-10-20T12:12:19.139333Z,1697803939139,5.028820507007465,336
2.874088287353516,5.393805503845215,-0.4235266447067261,2023-10-20T12:12:19.160091Z,1697803939160,6.126409724756428,337
3.2401747703552246,6.458125114440918,-0.6867343187332153,2023-10-20T12:12:19.180483Z,1697803939180,7.257941620097603,338
3.585679531097412,7.514445304870605,-1.0114595890045166,2023-10-20T12:12:19.202123Z,1697803939202,8.387314018195099,339
3.933805465698242,8.687780380249023,-1.3837881088256836,2023-10-20T12:12:19.220857Z,1697803939220,9.636764130532852,340
4.220971584320068,9.7941255569458,-1.7596311569213867,2023-10-20T12:12:19.240991Z,1697803939240,10.80915345201764,341
4.414525985717773,10.805152893066406,-2.111163854598999,2023-10-20T12:12:19.261409Z,1697803939261,11.861550553872968,342
4.501125335693359,11.706665992736816,-2.437654972076416,2023-10-20T12:12:19.281557Z,1697803939281,12.776866584417723,343
4.516515731811523,12.498395919799805,-2.7509708404541016,2023-10-20T12:12:19.302022Z,1697803939301,13.571170011785943,344
4.489957809448242,13.17512321472168,-3.0548224449157715,2023-10-20T12:12:19.321966Z,1697803939321,14.250457291739258,345
4.449703693389893,13.736083984375,-3.3510539531707764,2023-10-20T12:12:19.342224Z,1697803939342,14.822598583980898,346
4.4173078536987305,14.183229446411133,-3.629313707351685,2023-10-20T12:12:19.362600Z,1697803939362,15.292106597531394,347
4.375334739685059,14.510393142700195,-3.896925449371338,2023-10-20T12:12:19.385325Z,1697803939385,15.648676979156216,348
4.344085216522217,14.711742401123049,-4.156981468200684,2023-10-20T12:12:19.403472Z,1697803939403,15.892983853649778,349
4.323665618896484,14.767104148864746,-4.40464973449707,2023-10-20T12:12:19.423013Z,1697803939422,16.005073839600087,350
4.322307586669922,14.670062065124512,-4.635893821716309,2023-10-20T12:12:19.443771Z,1697803939443,15.980756408712857,351
4.353129386901856,14.426077842712402,-4.851193904876709,2023-10-20T12:12:19.464067Z,1697803939464,15.830209717051105,352
4.4154815673828125,14.046346664428713,-5.050867557525635,2023-10-20T12:12:19.485180Z,1697803939485,15.566232529834249,353
4.501513481140137,13.540654182434082,-5.220684051513672,2023-10-20T12:12:19.504587Z,1697803939504,15.194356889150828,354
4.606942176818848,13.06098747253418,-5.348856925964356,2023-10-20T12:12:19.525294Z,1697803939525,14.84666899990311,355
4.6750898361206055,12.44834041595459,-5.375257968902588,2023-10-20T12:12:19.545113Z,1697803939545,14.34263024411971,356
4.665090560913086,11.706676483154297,-5.274234771728516,2023-10-20T12:12:19.564910Z,1697803939564,13.661145510171114,357
4.557698249816895,10.851787567138672,-5.05626392364502,2023-10-20T12:12:19.584879Z,1697803939584,12.810140967383754,358
4.387203693389893,9.917006492614746,-4.750187873840332,2023-10-20T12:12:19.605723Z,1697803939605,11.83887067496882,359
4.173587799072266,8.936727523803711,-4.37481689453125,2023-10-20T12:12:19.626177Z,1697803939626,10.789947025446962,360
3.9272499084472656,7.943567276000977,-3.9423069953918457,2023-10-20T12:12:19.646056Z,1697803939646,9.69872864646022,361
3.6497011184692383,6.961154937744141,-3.451833248138428,2023-10-20T12:12:19.669090Z,1697803939669,8.584471392834223,362
3.321704387664795,5.9992499351501465,-2.920838117599488,2023-10-20T12:12:19.686015Z,1697803939685,7.453590754304445,363
2.9685683250427246,5.081755638122559,-2.385385513305664,2023-10-20T12:12:19.706928Z,1697803939706,6.350330882176606,364
2.565793037414551,4.106710433959961,-1.8541300296783447,2023-10-20T12:12:19.727533Z,1697803939727,5.18518684968976,365
2.1832971572875977,3.2497434616088867,-1.3970637321472168,2023-10-20T12:12:19.747224Z,1697803939747,4.156850504284575,366
1.862232685089112,2.5506153106689453,-1.0377357006072998,2023-10-20T12:12:19.768329Z,1697803939768,3.3242208742422585,367
1.62788724899292,2.029272079467773,-0.7730937004089355,2023-10-20T12:12:19.787987Z,1697803939787,2.713970511548196,368
1.471202373504639,1.669541358947754,-0.5835888385772705,2023-10-20T12:12:19.808138Z,1697803939808,2.3005174864701123,369
1.388559341430664,1.4488725662231443,-0.4517407417297363,2023-10-20T12:12:19.828333Z,1697803939828,2.057036328207874,370
1.3694915771484375,1.3369226455688477,-0.3592798709869385,2023-10-20T12:12:19.851535Z,1697803939851,1.9472933435442417,371
1.3985028266906738,1.3041596412658691,-0.2933137416839599,2023-10-20T12:12:19.869005Z,1697803939868,1.9345995650855423,372
1.4856367111206057,1.344099998474121,-0.243455171585083,2023-10-20T12:12:19.889612Z,1697803939889,2.0181654203505976,373
1.600987434387207,1.4280123710632324,-0.1972887516021728,2023-10-20T12:12:19.909573Z,1697803939909,2.154368340949177,374
1.7335758209228516,1.5440635681152344,-0.1502818465232849,2023-10-20T12:12:19.929648Z,1697803939929,2.3263710070974355,375
1.863816738128662,1.6737661361694336,-0.1003082394599914,2023-10-20T12:12:19.952079Z,1697803939952,2.507063552209972,376
1.967315673828125,1.7961225509643557,-0.0479582548141479,2023-10-20T12:12:19.970591Z,1697803939970,2.664336159867469,377
2.034879684448242,1.9008193016052248,0.0048051457852125,2023-10-20T12:12:19.990430Z,1697803939990,2.7845776047654285,378
2.06180191040039,1.9809589385986328,0.0556849837303161,2023-10-20T12:12:20.010687Z,1697803940010,2.8597773080359885,379
2.050114631652832,2.034992218017578,0.1022715270519256,2023-10-20T12:12:20.030883Z,1697803940030,2.890436436864624,380
2.0079259872436523,2.0650014877319336,0.1427031755447387,2023-10-20T12:12:20.051238Z,1697803940051,2.8838103458608453,381
1.9433865547180176,2.0743532180786133,0.1751840114593505,2023-10-20T12:12:20.071703Z,1697803940071,2.847873243717644,382
1.8605403900146484,2.065725326538086,0.1989957094192505,2023-10-20T12:12:20.092007Z,1697803940091,2.7871905137510806,383
1.7651748657226562,2.0450363159179688,0.2142149806022644,2023-10-20T12:12:20.113398Z,1697803940113,2.7099638185623003,384
1.6661300659179688,2.0199050903320312,0.2220277786254882,2023-10-20T12:12:20.134467Z,1697803940134,2.627794189997846,385
1.5732388496398926,1.998834609985352,0.2241102457046508,2023-10-20T12:12:20.153052Z,1697803940153,2.553555497403835,386
1.49611234664917,1.9895639419555664,0.222615361213684,2023-10-20T12:12:20.173071Z,1697803940173,2.499254775322868,387
1.4396333694458008,1.996224403381348,0.2191824913024902,2023-10-20T12:12:20.193060Z,1697803940193,2.470930406055714,388
1.4022793769836426,2.016529083251953,0.2151088714599609,2023-10-20T12:12:20.213552Z,1697803940213,2.465572716691879,389
1.3781962394714355,2.042989730834961,0.2107928991317749,2023-10-20T12:12:20.234440Z,1697803940234,2.4733915098735766,390
1.3582468032836914,2.063738822937012,0.2056672573089599,2023-10-20T12:12:20.253836Z,1697803940253,2.479143265052829,391
1.3336358070373535,2.066314697265625,0.1993750929832458,2023-10-20T12:12:20.274533Z,1697803940274,2.4673855235147557,392
1.2964630126953125,2.039186477661133,0.1914467811584472,2023-10-20T12:12:20.295115Z,1697803940295,2.423994575897181,393
1.241445541381836,1.9732122421264648,0.1816756725311279,2023-10-20T12:12:20.318170Z,1697803940318,2.3383241081347617,394
1.1659083366394043,1.862998962402344,0.1697868704795837,2023-10-20T12:12:20.335218Z,1697803940335,2.20429920036839,395
1.0670514106750488,1.705575942993164,0.1555641889572143,2023-10-20T12:12:20.355344Z,1697803940355,2.017867247176223,396
0.9434189796447754,1.502842903137207,0.1387871503829956,2023-10-20T12:12:20.375652Z,1697803940375,1.779842137880573,397
0.7964062690734863,1.2612543106079102,0.1188312768936157,2023-10-20T12:12:20.396103Z,1697803940396,1.4963777109455862,398
0.6346383094787598,0.9970264434814452,0.0953598022460937,2023-10-20T12:12:20.417565Z,1697803940417,1.1857153978690382,399
0.6073493957519531,0.0756406784057617,-0.1286139488220214,2023-10-20T12:16:09.059165Z,1697804169059,0.6254089450763716,400
0.5821828842163086,0.0553791522979736,-0.1148962974548339,2023-10-20T12:16:09.079742Z,1697804169079,0.5959907049212191,401
0.5715885162353516,0.0384052395820617,-0.1042919158935546,2023-10-20T12:16:09.100335Z,1697804169100,0.5822930516846604,402
0.5797672271728516,0.0241869091987609,-0.0973514318466186,2023-10-20T12:16:09.120032Z,1697804169119,0.5883811227111835,403
0.6076974868774414,0.0117753893136978,-0.093684434890747,2023-10-20T12:16:09.141538Z,1697804169141,0.6149891614422532,404
0.6571063995361328,0.0002606743946671,-0.0930001735687255,2023-10-20T12:16:09.160732Z,1697804169160,0.6636549710100068,405
0.729069709777832,-0.0110517293214797,-0.0948456525802612,2023-10-20T12:16:09.180861Z,1697804169180,0.7352961853905562,406
0.8193349838256836,-0.0223553478717803,-0.0981844663619995,2023-10-20T12:16:09.201111Z,1697804169201,0.8254997072887986,407
0.9186735153198242,-0.0331668853759765,-0.1015897989273071,2023-10-20T12:16:09.224430Z,1697804169224,0.924868399980082,408
1.0132951736450195,-0.0425067842006683,-0.1032561063766479,2023-10-20T12:16:09.241559Z,1697804169241,1.0194291339467585,409
1.091230392456055,-0.0495663285255432,-0.1017594337463378,2023-10-20T12:16:09.261774Z,1697804169261,1.0970850343978231,410
1.143903732299805,-0.054060012102127,-0.0960489511489868,2023-10-20T12:16:09.282392Z,1697804169282,1.149201302946845,411
1.1650476455688477,-0.0561226308345794,-0.0854758024215698,2023-10-20T12:16:09.302399Z,1697804169302,1.1695263481157323,412
1.1485652923583984,-0.0558550059795379,-0.0699408054351806,2023-10-20T12:16:09.324921Z,1697804169324,1.1520476243490236,413
1.0908317565917969,-0.0534090399742126,-0.0505514740943908,2023-10-20T12:16:09.342945Z,1697804169342,1.093307778383209,414
0.9920005798339844,-0.0489316582679748,-0.0295623838901519,2023-10-20T12:16:09.363013Z,1697804169362,0.9936465126558256,415
0.8545494079589844,-0.0424120426177978,-0.0098390206694602,2023-10-20T12:16:09.384179Z,1697804169384,0.8556578044579496,416
0.6815643310546875,-0.0336816012859344,0.0056855753064155,2023-10-20T12:16:09.403822Z,1697804169403,0.6824197486868132,417
0.4738731384277344,-0.0227643549442291,0.0140925049781799,2023-10-20T12:16:09.424560Z,1697804169424,0.474628871726044,418
0.2348690032958984,-0.0105277299880981,0.0123755931854248,2023-10-20T12:16:09.444779Z,1697804169444,0.2354303232691196,419
-0.0282039642333984,0.0011061131954193,-0.0021750926971435,2023-10-20T12:16:09.464849Z,1697804169464,0.0283093290828494,420
-0.3080654144287109,0.009414404630661,-0.0317428708076477,2023-10-20T12:16:09.485043Z,1697804169484,0.3098395398085826,421
-0.5992298126220703,0.0106963515281677,-0.0783443450927734,2023-10-20T12:16:09.507744Z,1697804169507,0.6044242025921126,422
-0.8967084884643555,-0.0003266525454819,-0.1437962055206298,2023-10-20T12:16:09.525311Z,1697804169525,0.9081649457604306,423
-1.1950387954711914,-0.0312488973140716,-0.2296937704086303,2023-10-20T12:16:09.545772Z,1697804169545,1.2173140286832786,424
-1.4822673797607422,-0.0915177166461944,-0.3362808227539062,2023-10-20T12:16:09.566099Z,1697804169566,1.52268738397445,425
-1.7384109497070312,-0.18945974111557,-0.4611210823059082,2023-10-20T12:16:09.586296Z,1697804169586,1.8084801011102811,426
-1.9333014488220213,-0.327571153640747,-0.5951113700866699,2023-10-20T12:16:09.607659Z,1697804169607,2.049174198432454,427
-2.0313849449157715,-0.4963723421096802,-0.718961238861084,2023-10-20T12:16:09.626838Z,1697804169626,2.2112927349011406,428
-2.007868766784668,-0.6696360111236572,-0.8072431087493896,2023-10-20T12:16:09.647145Z,1697804169647,2.2653014829479905,429
-1.8594517707824707,-0.8125655651092529,-0.8372275829315186,2023-10-20T12:16:09.667403Z,1697804169667,2.195170542597713,430
-1.598036766052246,-0.8823180198669434,-0.7916390895843506,2023-10-20T12:16:09.686997Z,1697804169686,1.9896982288765763,431
-1.266547679901123,-0.8621368408203125,-0.6797599792480469,2023-10-20T12:16:09.708092Z,1697804169708,1.6761552992338902,432
-0.8931560516357422,-0.7349739074707031,-0.5112464427947998,2023-10-20T12:16:09.728426Z,1697804169728,1.2646293142682716,433
-0.5082955360412598,-0.4968109130859375,-0.30645751953125,2023-10-20T12:16:09.748504Z,1697804169748,0.7740165673924564,434
-0.1281757354736328,-0.1461448669433593,-0.0803327560424804,2023-10-20T12:16:09.768411Z,1697804169768,0.2103347165626244,435
0.2362246513366699,0.3084616661071777,0.1518051624298095,2023-10-20T12:16:09.790509Z,1697804169790,0.4171276695414583,436
0.5730190277099609,0.8444857597351074,0.3736391067504883,2023-10-20T12:16:09.809477Z,1697804169809,1.086790314000982,437
0.873387336730957,1.437122821807861,0.5739805698394775,2023-10-20T12:16:09.829532Z,1697804169829,1.776958395538915,438
1.1308636665344238,2.063109397888184,0.7470293045043945,2023-10-20T12:16:09.850015Z,1697804169849,2.468466285313726,439
1.3413190841674805,2.6987171173095703,0.8908488750457764,2023-10-20T12:16:09.869951Z,1697804169869,3.142582168055736,440
1.5022222995758057,3.32491397857666,1.0061681270599363,2023-10-20T12:16:09.890808Z,1697804169890,3.7847191576375385,441
1.627246379852295,3.926225662231445,1.0978267192840576,2023-10-20T12:16:09.910686Z,1697804169910,4.389578822288209,442
1.7245995998382568,4.481218338012695,1.1700031757354736,2023-10-20T12:16:09.930612Z,1697804169930,4.942111795976962,443
1.807210922241211,4.98188591003418,1.2263333797454834,2023-10-20T12:16:09.951058Z,1697804169951,5.439585654840173,444
1.8764078617095947,5.418268203735352,1.2686796188354492,2023-10-20T12:16:09.974104Z,1697804169974,5.872655682597401,445
1.9308550357818604,5.786276817321777,1.29691481590271,2023-10-20T12:16:09.991328Z,1697804169991,6.236280030241391,446
1.9741854667663568,6.083235740661621,1.3112988471984863,2023-10-20T12:16:10.012315Z,1697804170012,6.528603985563723,447
2.0067458152771,6.302133560180664,1.312803030014038,2023-10-20T12:16:10.031920Z,1697804170031,6.742949501004853,448
2.028682947158813,6.437941551208496,1.3033194541931152,2023-10-20T12:16:10.052630Z,1697804170052,6.874684539420559,449
2.038490056991577,6.486482620239258,1.2842144966125488,2023-10-20T12:16:10.073996Z,1697804170073,6.919472911171002,450
2.0331196784973145,6.446954727172852,1.2562994956970217,2023-10-20T12:16:10.093418Z,1697804170093,6.875688278579679,451
2.006239414215088,6.318816184997559,1.219871997833252,2023-10-20T12:16:10.113452Z,1697804170113,6.740958556320821,452
1.9497034549713133,6.101054191589356,1.1752901077270508,2023-10-20T12:16:10.133995Z,1697804170133,6.511951523802845,453
1.8577582836151123,5.797779083251953,1.12372088432312,2023-10-20T12:16:10.157332Z,1697804170157,6.190981890168826,454
1.729341983795166,5.409797668457031,1.065934181213379,2023-10-20T12:16:10.174169Z,1697804170174,5.778646051562491,455
1.562448024749756,4.943305015563965,1.001849889755249,2023-10-20T12:16:10.194402Z,1697804170194,5.280266234627462,456
1.371812343597412,4.403952598571777,0.9318957328796388,2023-10-20T12:16:10.215238Z,1697804170215,4.70585775958779,457
1.164497137069702,3.79978084564209,0.8542239665985107,2023-10-20T12:16:10.235206Z,1697804170235,4.0649829817925855,458
0.9527060985565186,3.154338836669922,0.7647838592529297,2023-10-20T12:16:10.257012Z,1697804170256,3.382661194699337,459
0.7403886318206787,2.4867982864379883,0.6584634780883789,2023-10-20T12:16:10.275011Z,1697804170274,2.6769227100415987,460
0.5309576988220215,1.816258430480957,0.5300083160400391,2023-10-20T12:16:10.295366Z,1697804170295,1.965100399293411,461
0.3323776721954345,1.161785125732422,0.3758838176727295,2023-10-20T12:16:10.315832Z,1697804170315,1.2655071077379934,462
0.1515018939971923,0.5420875549316406,0.1951072216033935,2023-10-20T12:16:10.335585Z,1697804170335,0.5957168530588142,463
-0.0072834491729736,-0.0266094207763671,-0.01066255569458,2023-10-20T12:16:10.356993Z,1697804170356,0.0295770181027274,464
-0.1421518325805664,-0.5275344848632812,-0.2347683906555175,2023-10-20T12:16:10.376724Z,1697804170376,0.5946561808952822,465
-0.2555813789367676,-0.9508790969848632,-0.4677729606628418,2023-10-20T12:16:10.397339Z,1697804170397,1.090093776273055,466
-0.347704529762268,-1.2959933280944824,-0.6980469226837158,2023-10-20T12:16:10.417352Z,1697804170417,1.512536496336805,467
-0.4174625873565674,-1.5667052268981934,-0.910219669342041,2023-10-20T12:16:10.439984Z,1697804170439,1.859392407828346,468
-0.4641071557998657,-1.7772088050842283,-1.0958809852600098,2023-10-20T12:16:10.457824Z,1697804170457,2.1388832887252174,469
-0.4913326501846313,-1.934259414672852,-1.2445483207702637,2023-10-20T12:16:10.477481Z,1697804170477,2.3519497824401143,470
-0.5081462860107422,-2.0410971641540527,-1.3484764099121094,2023-10-20T12:16:10.498450Z,1697804170498,2.4985353528804986,471
-0.5217235088348389,-2.099217414855957,-1.4026267528533936,2023-10-20T12:16:10.518465Z,1697804170518,2.578036264742123,472
-0.5381823778152466,-2.1097278594970703,-1.4056930541992188,2023-10-20T12:16:10.540Z,1697804170539,2.591633630657098,473
-0.560139536857605,-2.0761828422546387,-1.3634417057037354,2023-10-20T12:16:10.558753Z,1697804170558,2.546225594890585,474
-0.586301326751709,-2.0022993087768555,-1.2843568325042725,2023-10-20T12:16:10.578840Z,1697804170578,2.450004947113269,475
-0.6115080118179321,-1.8910307884216309,-1.1762702465057373,2023-10-20T12:16:10.599562Z,1697804170599,2.309448242349398,476
-0.6282377243041992,-1.744126319885254,-1.046306848526001,2023-10-20T12:16:10.623255Z,1697804170623,2.128712587276124,477
-0.6283144950866699,-1.5652580261230469,-0.9017417430877686,2023-10-20T12:16:10.640323Z,1697804170640,1.91257678651227,478
-0.6056735515594482,-1.3618745803833008,-0.7504642009735107,2023-10-20T12:16:10.660535Z,1697804170660,1.668753828668458,479
-0.5586867332458496,-1.1445574760437012,-0.6007096767425537,2023-10-20T12:16:10.680577Z,1697804170680,1.408188480852116,480
-0.4901652336120605,-0.9236607551574708,-0.4599843025207519,2023-10-20T12:16:10.701047Z,1697804170701,1.142364523882608,481
-0.4055709838867187,-0.7087140083312988,-0.3338534832000732,2023-10-20T12:16:10.722792Z,1697804170722,0.8821686442062419,482
-0.3101134300231933,-0.5059390068054199,-0.2247612476348877,2023-10-20T12:16:10.741518Z,1697804170741,0.634556724435567,483
-0.2084951400756836,-0.3197035789489746,-0.1334748268127441,2023-10-20T12:16:10.761618Z,1697804170761,0.4043465484218385,484
-0.105325698852539,-0.1528029441833496,-0.0596976280212402,2023-10-20T12:16:10.782190Z,1697804170782,0.1949514026141847,485
-0.004582405090332,-0.0063247680664062,-0.0023040771484375,2023-10-20T12:16:10.802125Z,1697804170802,0.0081430890337564,486
0.0915560722351074,0.1205863952636718,0.0407462120056152,2023-10-20T12:16:10.822972Z,1697804170822,0.1567923686874244,487
0.1824011802673339,0.2296252250671386,0.071805715560913,2023-10-20T12:16:10.843197Z,1697804170843,0.3019171994724137,488
0.2678999900817871,0.322331428527832,0.0931618213653564,2023-10-20T12:16:10.862989Z,1697804170862,0.4293565877714292,489
0.349679946899414,0.4014058113098144,0.1073503494262695,2023-10-20T12:16:10.883504Z,1697804170883,0.5430716233967757,490
0.4282355308532715,0.4680337905883789,0.1161510944366455,2023-10-20T12:16:10.906679Z,1697804170906,0.6449281942639353,491
0.5029253959655762,0.5225768089294434,0.1208422183990478,2023-10-20T12:16:10.923790Z,1697804170923,0.7352709139396272,492
0.5720915794372559,0.5645999908447266,0.1222956180572509,2023-10-20T12:16:10.943987Z,1697804170943,0.8130302227598212,493
0.6348261833190918,0.5941648483276367,0.1212579011917114,2023-10-20T12:16:10.964319Z,1697804170964,0.8779177801007948,494
0.6901741027832031,0.6111373901367188,0.1181756258010864,2023-10-20T12:16:10.984801Z,1697804170984,0.9294055521187712,495
0.7356662750244141,0.6143312454223633,0.1130249500274658,2023-10-20T12:16:11.006721Z,1697804171006,0.9650815440361504,496
0.767662525177002,0.6025137901306152,0.1053551435470581,2023-10-20T12:16:11.025229Z,1697804171025,0.9815438482974216,497
0.7878475189208984,0.5791759490966797,0.0950820446014404,2023-10-20T12:16:11.045748Z,1697804171045,0.9824403739095036,498
0.8014745712280273,0.5502958297729492,0.0823621749877929,2023-10-20T12:16:11.065571Z,1697804171065,0.9756897644535216,499
-1.1344051361083984,1.4212851524353027,-0.2599328756332397,2023-10-20T12:18:12.288160Z,1697804292288,1.8369789321593,500
-0.8631758689880371,1.2508645057678225,-0.1600297689437866,2023-10-20T12:18:12.305605Z,1697804292305,1.528183274198888,501
-0.602879524230957,1.0133743286132812,-0.0766502022743225,2023-10-20T12:18:12.326065Z,1697804292326,1.181637213419609,502
-0.3580174446105957,0.7022562026977539,-0.0174948275089263,2023-10-20T12:18:12.347058Z,1697804292347,0.7884455173710717,503
-0.135277509689331,0.3123655319213867,0.0077998340129852,2023-10-20T12:18:12.366608Z,1697804292366,0.340489452951054,504
0.0573718547821044,-0.157754898071289,-0.0117955803871154,2023-10-20T12:18:12.387774Z,1697804292387,0.1682773701461089,505
0.2125089168548584,-0.7071256637573242,-0.0887554883956909,2023-10-20T12:18:12.407192Z,1697804292407,0.7436829168452231,506
0.3243834972381592,-1.3351564407348633,-0.2382919788360595,2023-10-20T12:18:12.427392Z,1697804292427,1.3945072397423588,507
0.3884520530700683,-2.0361366271972656,-0.4779403209686279,2023-10-20T12:18:12.447642Z,1697804292447,2.127245710433142,508
0.407088041305542,-2.789682388305664,-0.821190595626831,2023-10-20T12:18:12.471301Z,1697804292471,2.936392769256648,509
0.3959956169128418,-3.555143356323242,-1.270939826965332,2023-10-20T12:18:12.488032Z,1697804292487,3.7962013719493513,510
0.3799076676368713,-4.287335395812988,-1.817387580871582,2023-10-20T12:18:12.508647Z,1697804292508,4.672095060165884,511
0.3860728740692138,-4.949369430541992,-2.434384822845459,2023-10-20T12:18:12.528917Z,1697804292528,5.529153596146154,512
0.4363417625427246,-5.496586799621582,-3.075772762298584,2023-10-20T12:18:12.549228Z,1697804292549,6.3137341300383385,513
0.5470563173294067,-5.886889457702637,-3.686535835266113,2023-10-20T12:18:12.571033Z,1697804292570,6.967444622402224,514
0.7227247357368469,-6.110239028930664,-4.240571975708008,2023-10-20T12:18:12.589447Z,1697804292589,7.472603476397872,515
0.9271326065063475,-6.178423881530762,-4.718240261077881,2023-10-20T12:18:12.609761Z,1697804292609,7.829066846768724,516
1.1296894550323486,-6.134225845336914,-5.114005088806152,2023-10-20T12:18:12.630314Z,1697804292630,8.065852281981483,517
1.3032171726226809,-5.965312004089356,-5.402661323547363,2023-10-20T12:18:12.650419Z,1697804292650,8.15304064028297,518
1.4411410093307495,-5.671055793762207,-5.5650787353515625,2023-10-20T12:18:12.671284Z,1697804292671,8.075138547133474,519
1.5296685695648191,-5.261979103088379,-5.607202529907227,2023-10-20T12:18:12.690776Z,1697804292690,7.840218761326195,520
1.5525197982788086,-4.780478477478027,-5.522172927856445,2023-10-20T12:18:12.711303Z,1697804292711,7.467106939292415,521
1.524873971939087,-4.269381523132324,-5.342902183532715,2023-10-20T12:18:12.731570Z,1697804292731,7.007100895745659,522
1.4701008796691897,-3.762247085571289,-5.118740081787109,2023-10-20T12:18:12.754313Z,1697804292754,6.520521432691383,523
1.40053129196167,-3.276910781860352,-4.889772891998291,2023-10-20T12:18:12.772474Z,1697804292772,6.050579402615735,524
1.323737859725952,-2.808163642883301,-4.655482292175293,2023-10-20T12:18:12.791952Z,1697804292791,5.595675145971322,525
1.2783172130584717,-2.3460474014282227,-4.4128923416137695,2023-10-20T12:18:12.812593Z,1697804292812,5.158648284737306,526
1.285872220993042,-1.8672218322753904,-4.149008750915527,2023-10-20T12:18:12.832844Z,1697804292832,4.728029013745693,527
1.3586368560791016,-1.3896384239196775,-3.879788398742676,2023-10-20T12:18:12.854276Z,1697804292854,4.339325647488182,528
1.4891300201416016,-0.9295263290405272,-3.6364059448242174,2023-10-20T12:18:12.873576Z,1697804292873,4.037942001666121,529
1.6806941032409668,-0.492223858833313,-3.4392547607421875,2023-10-20T12:18:12.893899Z,1697804292893,3.8594676193953896,530
1.9739089012146,-0.0500763058662414,-3.347383499145508,2023-10-20T12:18:12.913924Z,1697804292913,3.886360801193716,531
2.401273727416992,0.4554245471954345,-3.366446018218994,2023-10-20T12:18:12.937613Z,1697804292937,4.160106468079126,532
2.9813032150268555,1.0864372253417969,-3.4538064002990723,2023-10-20T12:18:12.954758Z,1697804292954,4.690127221652381,533
3.70040225982666,1.8790621757507324,-3.539356231689453,2023-10-20T12:18:12.974843Z,1697804292974,5.454438016850709,534
4.494550704956055,2.817522048950196,-3.539398670196533,2023-10-20T12:18:12.995191Z,1697804292995,6.37704943389421,535
5.278933525085449,3.845858097076416,-3.4048633575439453,2023-10-20T12:18:13.015683Z,1697804293015,7.365518186024983,536
5.975217342376709,4.8952741622924805,-3.135536193847656,2023-10-20T12:18:13.037599Z,1697804293037,8.336577153459109,537
6.530856132507324,5.894130229949951,-2.767960548400879,2023-10-20T12:18:13.055299Z,1697804293055,9.222497416026858,538
6.9086103439331055,6.774431228637695,-2.3535351753234863,2023-10-20T12:18:13.075400Z,1697804293075,9.957958785681235,539
7.091116905212402,7.485703468322754,-1.924027681350708,2023-10-20T12:18:13.096286Z,1697804293096,10.489117117167307,540
7.143453121185303,8.034003257751465,-1.5143756866455078,2023-10-20T12:18:13.116571Z,1697804293116,10.85667833918074,541
7.130524635314941,8.460989952087402,-1.1467866897583008,2023-10-20T12:18:13.137507Z,1697804293137,11.124201196309066,542
7.0914692878723145,8.760130882263184,-0.8364598751068115,2023-10-20T12:18:13.157059Z,1697804293157,11.30170318394007,543
7.034762382507324,8.927295684814453,-0.5965076684951782,2023-10-20T12:18:13.177222Z,1697804293177,11.381577721081571,544
6.983440399169922,8.968941688537598,-0.42043536901474,2023-10-20T12:18:13.197419Z,1697804293197,11.374845964700569,545
6.983796119689941,8.949220657348633,-0.3217291831970215,2023-10-20T12:18:13.220686Z,1697804293220,11.356296415761276,546
7.039670944213867,8.90696907043457,-0.2818260192871094,2023-10-20T12:18:13.237901Z,1697804293237,11.35651755291358,547
7.138284206390381,8.8613920211792,-0.2675137221813202,2023-10-20T12:18:13.258383Z,1697804293258,11.382044348700106,548
7.276424407958984,8.820383071899414,-0.2471629083156585,2023-10-20T12:18:13.278720Z,1697804293278,11.437071268600109,549
7.443500518798828,8.773513793945312,-0.2146210372447967,2023-10-20T12:18:13.298898Z,1697804293298,11.507662944991704,550
7.557562828063965,8.67139720916748,-0.1724172532558441,2023-10-20T12:18:13.320528Z,1697804293320,11.503895564916784,551
7.5411553382873535,8.44222354888916,-0.1338801383972168,2023-10-20T12:18:13.339489Z,1697804293339,11.32069283114138,552
7.35811710357666,8.084287643432617,-0.1157618910074234,2023-10-20T12:18:13.359315Z,1697804293359,10.932108434657712,553
7.034073829650879,7.623239517211914,-0.1280461847782135,2023-10-20T12:18:13.379783Z,1697804293379,10.373445483695232,554
6.598638534545898,7.096471786499023,-0.185260534286499,2023-10-20T12:18:13.400002Z,1697804293399,9.692072213501858,555
6.053939342498779,6.490013122558594,-0.2657310962677002,2023-10-20T12:18:13.420636Z,1697804293420,8.879249118543806,556
5.432382583618164,5.801223278045654,-0.3552082180976867,2023-10-20T12:18:13.440960Z,1697804293440,7.955573199634383,557
4.772191047668457,5.050582885742188,-0.4453099966049194,2023-10-20T12:18:13.461035Z,1697804293460,6.962793683161604,558
4.1026153564453125,4.274764060974121,-0.5277296304702759,2023-10-20T12:18:13.481535Z,1697804293481,5.948408115018097,559
3.4477219581604004,3.51527738571167,-0.5958914756774902,2023-10-20T12:18:13.504231Z,1697804293504,4.959742780635136,560
2.8329639434814453,2.8102235794067383,-0.6392805576324463,2023-10-20T12:18:13.521574Z,1697804293521,4.041252392846358,561
2.282261371612549,2.1911725997924805,-0.6507668495178223,2023-10-20T12:18:13.541638Z,1697804293541,3.230085420367004,562
1.805704116821289,1.671846866607666,-0.6285381317138672,2023-10-20T12:18:13.562602Z,1697804293562,2.539822727260621,563
1.4034385681152344,1.249901294708252,-0.5761139392852783,2023-10-20T12:18:13.582497Z,1697804293582,1.965655191539326,564
1.075547218322754,0.9192728996276855,-0.5042088031768799,2023-10-20T12:18:13.603746Z,1697804293603,1.5020289611165183,565
0.8163423538208008,0.6683650016784668,-0.4251301288604736,2023-10-20T12:18:13.622916Z,1697804293622,1.137480655033423,566
0.620887279510498,0.4870052337646484,-0.3513975143432617,2023-10-20T12:18:13.643255Z,1697804293643,0.8638028274199674,567
0.4809489250183105,0.3625621795654297,-0.2908539772033691,2023-10-20T12:18:13.663712Z,1697804293663,0.6688491897150817,568
0.3857321739196777,0.2811851501464844,-0.2458953857421875,2023-10-20T12:18:13.683525Z,1697804293683,0.5369533866072553,569
0.3250961303710937,0.2309880256652832,-0.2159609794616699,2023-10-20T12:18:13.704372Z,1697804293704,0.4535218921210402,570
0.2922554016113281,0.2041997909545898,-0.2003893852233886,2023-10-20T12:18:13.724202Z,1697804293724,0.4089824936438044,571
0.2806010246276855,0.1945257186889648,-0.1971035003662109,2023-10-20T12:18:13.744473Z,1697804293744,0.3942422860503147,572
0.2854065895080566,0.1979155540466308,-0.2041597366333007,2023-10-20T12:18:13.764644Z,1697804293764,0.4028755216321585,573
0.3040785789489746,0.2124862670898437,-0.220529556274414,2023-10-20T12:18:13.787246Z,1697804293787,0.4315639941746694,574
0.3361735343933105,0.2383160591125488,-0.2464613914489746,2023-10-20T12:18:13.805554Z,1697804293805,0.4801566481184977,575
0.3792042732238769,0.2744150161743164,-0.280487060546875,2023-10-20T12:18:13.825814Z,1697804293825,0.5456853242184779,576
0.4246168136596679,0.3153705596923828,-0.3162565231323242,2023-10-20T12:18:13.846338Z,1697804293846,0.6162598614115009,577
0.4625082015991211,0.3539042472839355,-0.3456969261169433,2023-10-20T12:18:13.866255Z,1697804293866,0.6772506312427959,578
0.4846053123474121,0.3826074600219726,-0.361518383026123,2023-10-20T12:18:13.886914Z,1697804293886,0.7154902644240666,579
0.4865121841430664,0.395998477935791,-0.3597564697265625,2023-10-20T12:18:13.906838Z,1697804293906,0.7231414919344894,580
0.4678249359130859,0.3915534019470215,-0.3404302597045898,2023-10-20T12:18:13.927359Z,1697804293927,0.6986179205838504,581
0.4302701950073242,0.3692288398742676,-0.3061165809631347,2023-10-20T12:18:13.947809Z,1697804293947,0.6443366651426083,582
0.3767099380493164,0.330606460571289,-0.2606039047241211,2023-10-20T12:18:13.970353Z,1697804293970,0.5649118553845847,583
0.3096814155578613,0.2773489952087402,-0.2072763442993164,2023-10-20T12:18:13.987646Z,1697804293987,0.4645304373141843,584
0.2308931350708007,0.2105007171630859,-0.1486716270446777,2023-10-20T12:18:14.008045Z,1697804294008,0.3460136477613394,585
0.1447758674621582,0.1339311599731445,-0.0890989303588867,2023-10-20T12:18:14.028678Z,1697804294028,0.2164167895572572,586
0.0598964691162109,0.0560216903686523,-0.0350189208984375,2023-10-20T12:18:14.048948Z,1697804294048,0.0891759027161563,587
-0.0139894485473632,-0.0131874084472656,0.0077424049377441,2023-10-20T12:18:14.070282Z,1697804294070,0.0207257628673672,588
-0.0679950714111328,-0.0645098686218261,0.0356390476226806,2023-10-20T12:18:14.088998Z,1697804294088,0.1002745959915172,589
-0.0975713729858398,-0.0931921005249023,0.0486223697662353,2023-10-20T12:18:14.109480Z,1697804294109,0.1434192290743116,590
-0.1021857261657714,-0.0984382629394531,0.0486927032470703,2023-10-20T12:18:14.129963Z,1697804294129,0.1500099783083451,591
-0.084545612335205,-0.0823249816894531,0.0387399196624755,2023-10-20T12:18:14.149781Z,1697804294149,0.1242020311861227,592
-0.0490446090698242,-0.0483589172363281,0.0217039585113525,2023-10-20T12:18:14.170262Z,1697804294170,0.0722150979376502,593
-0.0010247230529785,-0.0010247230529785,0.0004389286041259,2023-10-20T12:18:14.190633Z,1697804294190,0.0015141905395725,594
0.0528311729431152,0.0536475181579589,-0.0220453739166259,2023-10-20T12:18:14.211052Z,1697804294211,0.0784550033469996,595
0.1055479049682617,0.1090965270996093,-0.0429956912994384,2023-10-20T12:18:14.231508Z,1697804294231,0.1577689511237923,596
0.1527619361877441,0.1610913276672363,-0.0609152317047119,2023-10-20T12:18:14.253575Z,1697804294253,0.2302114038249626,597
0.1929836273193359,0.2079277038574218,-0.075394868850708,2023-10-20T12:18:14.270946Z,1697804294270,0.2935319347085824,598
0.2247519493103027,0.247568130493164,-0.0859386920928955,2023-10-20T12:18:14.291476Z,1697804294291,0.3452374208473042,599
0.7562112808227539,0.2770538330078125,-0.2614865303039551,2023-10-20T12:13:41.836363Z,1697804021836,0.8467523446429375,600
0.8333101272583008,0.3042390346527099,-0.2797520160675049,2023-10-20T12:13:41.856419Z,1697804021856,0.9301765149107408,601
0.8978366851806641,0.3273258209228515,-0.2924416065216064,2023-10-20T12:13:41.877632Z,1697804021877,0.9993873120687292,602
0.9483718872070312,0.3457112312316894,-0.2995862960815429,2023-10-20T12:13:41.896931Z,1697804021896,1.0529375293170125,603
0.9852771759033204,0.3594594001770019,-0.301854133605957,2023-10-20T12:13:41.917454Z,1697804021917,1.0913744049164045,604
1.01031494140625,0.3691325187683105,-0.300229549407959,2023-10-20T12:13:41.937296Z,1697804021937,1.1167510374200051,605
1.026082992553711,0.3755857944488525,-0.2958261966705322,2023-10-20T12:13:41.961003Z,1697804021960,1.1320000597333495,606
1.033839225769043,0.3793449401855469,-0.2892301082611084,2023-10-20T12:13:41.977855Z,1697804021977,1.1385869241774398,607
1.034440040588379,0.3808562755584717,-0.280872106552124,2023-10-20T12:13:41.997801Z,1697804021997,1.137544214720371,608
1.0265836715698242,0.3798472881317138,-0.2705848217010498,2023-10-20T12:13:42.018324Z,1697804022018,1.127552279395411,609
1.009608268737793,0.3760950565338135,-0.2584905624389648,2023-10-20T12:13:42.038552Z,1697804022038,1.107959258602458,610
0.9834022521972656,0.3693485260009765,-0.2448091506958007,2023-10-20T12:13:42.060669Z,1697804022060,1.0786240510716176,611
0.9486827850341796,0.3595106601715088,-0.2299170494079589,2023-10-20T12:13:42.079102Z,1697804022079,1.0402445823005393,612
0.9054155349731444,0.3462891578674316,-0.2139477729797363,2023-10-20T12:13:42.099155Z,1697804022099,0.9927069665264916,613
0.8508377075195312,0.3285274505615234,-0.1963112354278564,2023-10-20T12:13:42.120944Z,1697804022120,0.932948654248859,614
0.7809228897094727,0.3044993877410888,-0.1761126518249511,2023-10-20T12:13:42.139225Z,1697804022139,0.8564905737599846,615
0.6926183700561523,0.2726626396179199,-0.1526517868041992,2023-10-20T12:13:42.159453Z,1697804022159,0.7598471488379538,616
0.5859785079956055,0.2326674461364746,-0.1259644031524658,2023-10-20T12:13:42.180247Z,1697804022180,0.6429401085528745,617
0.4614124298095703,0.1844956874847412,-0.0962926149368286,2023-10-20T12:13:42.200381Z,1697804022200,0.5061742355894967,618
0.3204727172851562,0.1288022994995117,-0.0644288063049316,2023-10-20T12:13:42.220519Z,1697804022220,0.351345792578155,619
0.165837287902832,0.0669214725494384,-0.0317384004592895,2023-10-20T12:13:42.242871Z,1697804022242,0.181625481722324,620
0.0050926208496093,0.0020661354064941,-0.0009099245071411,2023-10-20T12:13:42.261105Z,1697804022261,0.0055706072599439,621
-0.1465940475463867,-0.0603406429290771,0.0239408016204834,2023-10-20T12:13:42.281790Z,1697804022281,0.1603245768662995,622
-0.2661943435668945,-0.1134984493255615,0.0389630794525146,2023-10-20T12:13:42.301821Z,1697804022301,0.2919922055581961,623
-0.3412427902221679,-0.1553993225097656,0.044407844543457,2023-10-20T12:13:42.322119Z,1697804022322,0.3775813130599824,624
-0.3533229827880859,-0.1778402328491211,0.0411219596862793,2023-10-20T12:13:42.342880Z,1697804022342,0.3976874327339746,625
-0.2755107879638672,-0.1572551727294922,0.0293801426887512,2023-10-20T12:13:42.362369Z,1697804022362,0.31858841224857,626
-0.0816354751586914,-0.0536389350891113,0.008488118648529,2023-10-20T12:13:42.382893Z,1697804022382,0.0980486324232557,627
0.1804900169372558,0.1333513259887695,-0.020692765712738,2023-10-20T12:13:42.403373Z,1697804022403,0.2253606285707781,628
0.5133357048034668,0.416628360748291,-0.0735026597976684,2023-10-20T12:13:42.427662Z,1697804022427,0.6652032605175744,629
0.9895305633544922,0.8793559074401855,-0.1886250972747802,2023-10-20T12:13:42.443927Z,1697804022443,1.337167519454661,630
1.5858430862426758,1.529569149017334,-0.3977510929107666,2023-10-20T12:13:42.463876Z,1697804022463,2.238902858035832,631
2.2601795196533203,2.341672897338867,-0.7252743244171143,2023-10-20T12:13:42.483975Z,1697804022483,3.334346452432684,632
2.9750118255615234,3.26345157623291,-1.1769721508026123,2023-10-20T12:13:42.504517Z,1697804022504,4.570128553598126,633
3.699508190155029,4.239626884460449,-1.753283977508545,2023-10-20T12:13:42.525838Z,1697804022525,5.893623815128697,634
4.419030666351318,5.223695755004883,-2.4390909671783447,2023-10-20T12:13:42.544549Z,1697804022544,7.263882854037529,635
5.093278408050537,6.178765296936035,-3.207429885864258,2023-10-20T12:13:42.565068Z,1697804022565,8.625904706711642,636
5.692387580871582,7.079272270202637,-4.023364067077637,2023-10-20T12:13:42.585792Z,1697804022585,9.935131134654062,637
6.212002754211426,8.009854316711426,-4.852303981781006,2023-10-20T12:13:42.605828Z,1697804022605,11.237953475828188,638
6.631155967712402,8.946731567382812,-5.64138650894165,2023-10-20T12:13:42.627155Z,1697804022627,12.483648382992882,639
6.911388874053955,9.754672050476074,-6.330793380737305,2023-10-20T12:13:42.646085Z,1697804022646,13.527744372596755,640
7.061219692230225,10.442041397094728,-6.929993152618408,2023-10-20T12:13:42.666646Z,1697804022666,14.384778662736457,641
7.102480888366699,11.01977825164795,-7.440147399902344,2023-10-20T12:13:42.686866Z,1697804022686,15.074367012162764,642
7.054119110107422,11.50730323791504,-7.871532440185547,2023-10-20T12:13:42.710264Z,1697804022710,15.624968709914466,643
6.957424163818359,11.919564247131348,-8.223124504089355,2023-10-20T12:13:42.727351Z,1697804022727,16.06553887818676,644
6.839902400970459,12.266566276550291,-8.514005661010742,2023-10-20T12:13:42.747382Z,1697804022747,16.423799970394345,645
6.740738868713379,12.554309844970703,-8.766425132751465,2023-10-20T12:13:42.768393Z,1697804022768,16.730166340710667,646
6.668364524841309,12.771125793457031,-8.991539001464844,2023-10-20T12:13:42.788172Z,1697804022788,16.9828299491966,647
6.619978427886963,12.901407241821287,-9.186985969543455,2023-10-20T12:13:42.808820Z,1697804022808,17.16598772018656,648
6.600255966186523,12.938994407653809,-9.354304313659668,2023-10-20T12:13:42.829170Z,1697804022829,17.27668846431599,649
6.609829425811768,12.874475479125977,-9.492356300354004,2023-10-20T12:13:42.849715Z,1697804022849,17.307420143794207,650
6.638360023498535,12.70594310760498,-9.59386157989502,2023-10-20T12:13:42.869197Z,1697804022869,17.249666491543067,651
6.670321464538574,12.427178382873535,-9.637615203857422,2023-10-20T12:13:42.889221Z,1697804022889,17.082493313848158,652
6.686559677124023,12.15639877319336,-9.600147247314451,2023-10-20T12:13:42.910133Z,1697804022910,16.87160154279247,653
6.660523414611816,11.884121894836426,-9.443235397338867,2023-10-20T12:13:42.930200Z,1697804022930,16.576176282167022,654
6.546165466308594,11.481182098388672,-9.119464874267578,2023-10-20T12:13:42.950708Z,1697804022950,16.05722467556744,655
6.338698387145996,10.963820457458496,-8.648527145385742,2023-10-20T12:13:42.970796Z,1697804022970,15.335627735800928,656
6.055666446685791,10.356422424316406,-8.040426254272461,2023-10-20T12:13:42.992050Z,1697804022992,14.4421271250046,657
5.7063188552856445,9.702789306640623,-7.325387001037598,2023-10-20T12:13:43.010854Z,1697804023010,13.430096422670193,658
5.307751178741455,9.031991004943848,-6.51844596862793,2023-10-20T12:13:43.030929Z,1697804023030,12.338525922278544,659
4.8699445724487305,8.367766380310059,-5.654904365539551,2023-10-20T12:13:43.051412Z,1697804023051,11.21221734170224,660
4.433913707733154,7.722378253936768,-4.774555206298828,2023-10-20T12:13:43.072123Z,1697804023072,10.104013761000855,661
4.024506568908691,7.110589981079102,-3.9201622009277344,2023-10-20T12:13:43.092078Z,1697804023092,9.06227425560462,662
3.6401424407958975,6.442088603973389,-3.121179819107056,2023-10-20T12:13:43.112854Z,1697804023112,8.030747538923663,663
3.28945255279541,5.749326705932617,-2.418689489364624,2023-10-20T12:13:43.133303Z,1697804023133,7.051617865043819,664
3.0187668800354004,5.181063652038574,-1.855644702911377,2023-10-20T12:13:43.153386Z,1697804023153,6.27692530670208,665
2.831450939178467,4.736452102661133,-1.4083914756774902,2023-10-20T12:13:43.175803Z,1697804023175,5.69514350043427,666
2.7200822830200195,4.41077995300293,-1.0597171783447266,2023-10-20T12:13:43.193180Z,1697804023193,5.289312613023628,667
2.678281784057617,4.18984317779541,-0.7885611057281494,2023-10-20T12:13:43.213386Z,1697804023213,5.034859261866293,668
2.681838035583496,4.052434921264648,-0.5827432870864868,2023-10-20T12:13:43.234217Z,1697804023234,4.894289915690726,669
2.714974880218506,3.980710983276367,-0.4253878593444824,2023-10-20T12:13:43.254483Z,1697804023254,4.837158604332948,670
2.7502670288085938,3.9518308639526367,-0.3036197423934936,2023-10-20T12:13:43.276880Z,1697804023276,4.824222305720517,671
2.7814416885375977,3.956297874450684,-0.210627794265747,2023-10-20T12:13:43.294746Z,1697804023294,4.84077212909626,672
2.805692672729492,3.9778547286987305,-0.1397709548473358,2023-10-20T12:13:43.315Z,1697804023314,4.869781877687927,673
2.8189525604248047,3.9976091384887695,-0.0839102268218994,2023-10-20T12:13:43.335595Z,1697804023335,4.892280990317276,674
2.815929412841797,4.00089168548584,-0.0368499681353569,2023-10-20T12:13:43.355520Z,1697804023355,4.8926425024978935,675
2.790724277496338,3.980873107910156,0.0049172975122928,2023-10-20T12:13:43.376413Z,1697804023376,4.861637262703229,676
2.736578941345215,3.9318714141845694,0.0421490669250488,2023-10-20T12:13:43.395854Z,1697804023395,4.790642301794041,677
2.650541305541992,3.849934577941896,0.0734543055295944,2023-10-20T12:13:43.416649Z,1697804023416,4.674693679998479,678
2.532090663909912,3.731560707092285,0.0969807505607605,2023-10-20T12:13:43.437282Z,1697804023437,4.510591281301615,679
2.383829116821289,3.5737438201904297,0.1115080714225769,2023-10-20T12:13:43.460044Z,1697804023460,4.29729219399224,680
2.207949638366699,3.3726577758789062,0.1174702644348144,2023-10-20T12:13:43.477732Z,1697804023477,4.032822999064858,681
2.009568691253662,3.12856388092041,0.1155465841293335,2023-10-20T12:13:43.497116Z,1697804023497,3.7201652241494174,682
1.7977747917175293,2.849127769470215,0.1063303649425506,2023-10-20T12:13:43.518081Z,1697804023518,3.3705829458730343,683
1.5814204216003418,2.54671573638916,0.0903073847293853,2023-10-20T12:13:43.538170Z,1697804023538,2.999134377710249,684
1.3686223030090332,2.2347841262817383,0.0683761835098266,2023-10-20T12:13:43.559929Z,1697804023559,2.621461882584973,685
1.1682076454162598,1.9291658401489256,0.0419983267784118,2023-10-20T12:13:43.578635Z,1697804023578,2.255693640780746,686
0.991727352142334,1.6497602462768557,0.0136341601610183,2023-10-20T12:13:43.598480Z,1697804023598,1.924946207431785,687
0.8483152389526367,1.4139022827148438,-0.0143065676093101,2023-10-20T12:13:43.619191Z,1697804023619,1.6489278600297452,688
0.7435274124145508,1.23321533203125,-0.0407541096210479,2023-10-20T12:13:43.642523Z,1697804023642,1.4405950040243192,689
0.6778364181518555,1.1110239028930664,-0.0662571191787719,2023-10-20T12:13:43.660073Z,1697804023660,1.303160131532019,690
0.6479220390319824,1.044478416442871,-0.0927793383598327,2023-10-20T12:13:43.679568Z,1697804023679,1.2326175954872856,691
0.6474838256835938,1.024862289428711,-0.1222232580184936,2023-10-20T12:13:43.700716Z,1697804023700,1.218407379169864,692
0.6676630973815918,1.0380191802978516,-0.1553088426589965,2023-10-20T12:13:43.720521Z,1697804023720,1.2439367616078727,693
0.6994199752807617,1.0687942504882812,-0.1913199424743652,2023-10-20T12:13:43.741526Z,1697804023741,1.2915544015204867,694
0.734189510345459,1.1034832000732422,-0.2281398773193359,2023-10-20T12:13:43.761364Z,1697804023761,1.3449004474564166,695
0.7621660232543945,1.127399444580078,-0.261880874633789,2023-10-20T12:13:43.781063Z,1697804023781,1.385823995730282,696
0.7714695930480957,1.1240148544311523,-0.2867605686187744,2023-10-20T12:13:43.803171Z,1697804023803,1.393128260317133,697
0.7523660659790039,1.0808677673339844,-0.2973394393920898,2023-10-20T12:13:43.821420Z,1697804023821,1.3500890970288877,698
0.7019844055175781,0.9957113265991212,-0.291041612625122,2023-10-20T12:13:43.842152Z,1697804023842,1.252568709407624,699
1.5304803848266602,0.856381893157959,0.7406840324401855,2023-10-20T12:10:23.433022Z,1697803823432,1.903778608762013,700
1.4590916633605957,0.8217325210571289,0.7375047206878662,2023-10-20T12:10:23.451494Z,1697803823451,1.829783055798742,701
1.354084014892578,0.7670660018920898,0.7092499732971191,2023-10-20T12:10:23.472053Z,1697803823472,1.7102541610147548,702
1.2238731384277344,0.6962776184082031,0.6586251258850098,2023-10-20T12:10:23.492692Z,1697803823492,1.5544951068781776,703
1.0759248733520508,0.6137652397155762,0.5896034240722656,2023-10-20T12:10:23.512650Z,1697803823512,1.3718433949465534,704
0.9152193069458008,0.5229744911193848,0.5065336227416992,2023-10-20T12:10:23.533260Z,1697803823533,1.1694892086444242,705
0.7447700500488281,0.4259943962097168,0.413515567779541,2023-10-20T12:10:23.553440Z,1697803823553,0.9524435825012688,706
0.5675363540649414,0.3245630264282226,0.3145885467529297,2023-10-20T12:10:23.573547Z,1697803823573,0.7255374732277403,707
0.3868155479431152,0.2206215858459472,0.2131967544555664,2023-10-20T12:10:23.593797Z,1697803823593,0.4937134881508709,708
0.2065882682800293,0.117044448852539,0.112800121307373,2023-10-20T12:10:23.616899Z,1697803823616,0.2628725603122053,709
0.0287442207336425,0.0161013603210449,0.0154943466186523,2023-10-20T12:10:23.633607Z,1697803823633,0.036408224440522,710
-0.146005630493164,-0.0804982185363769,-0.0774860382080078,2023-10-20T12:10:23.654313Z,1697803823654,0.1838523686015752,711
-0.3184013366699219,-0.172154426574707,-0.1659028530120849,2023-10-20T12:10:23.675095Z,1697803823675,0.3981712124451095,712
-0.4888558387756347,-0.2583673000335693,-0.2494409084320068,2023-10-20T12:10:23.694640Z,1697803823694,0.6065924988252415,713
-0.6572127342224121,-0.3382384777069092,-0.3273134231567383,2023-10-20T12:10:23.716366Z,1697803823716,0.8083736282216091,714
-0.8233952522277832,-0.4106040000915527,-0.3985953330993652,2023-10-20T12:10:23.735402Z,1697803823735,1.0027231052743486,715
-0.9877142906188964,-0.4745261669158935,-0.4626162052154541,2023-10-20T12:10:23.755254Z,1697803823755,1.1894403542459064,716
-1.14898681640625,-0.528569221496582,-0.5183188915252686,2023-10-20T12:10:23.776251Z,1697803823776,1.3668250069050008,717
-1.3032026290893557,-0.5701935291290283,-0.5633800029754639,2023-10-20T12:10:23.799210Z,1697803823799,1.5299852224380008,718
-1.4432673454284668,-0.5959312915802002,-0.5939013957977295,2023-10-20T12:10:23.817123Z,1697803823817,1.6705907944781302,719
-1.559892654418945,-0.6025576591491699,-0.604729175567627,2023-10-20T12:10:23.836942Z,1697803823836,1.7782120800658765,720
-1.6445960998535156,-0.5897665023803711,-0.5918424129486084,2023-10-20T12:10:23.857028Z,1697803823856,1.844667531222958,721
-1.6893882751464844,-0.559929609298706,-0.5529546737670898,2023-10-20T12:10:23.877330Z,1697803823877,1.8636825863898292,722
-1.6874470710754397,-0.5173928737640381,-0.4882550239562988,2023-10-20T12:10:23.899717Z,1697803823899,1.83127441196601,723
-1.63132905960083,-0.4660892486572265,-0.4008157253265381,2023-10-20T12:10:23.917927Z,1697803823917,1.7433091906145122,724
-1.5123329162597656,-0.4087512493133545,-0.296430230140686,2023-10-20T12:10:23.938054Z,1697803823938,1.594396222637038,725
-1.3140316009521484,-0.3432013988494873,-0.1832053661346435,2023-10-20T12:10:23.958306Z,1697803823958,1.3704125125864983,726
-1.0167551040649414,-0.262984037399292,-0.0767680406570434,2023-10-20T12:10:23.978305Z,1697803823978,1.053017035776375,727
-0.6165361404418945,-0.1623249053955078,-0.0033654198050498,2023-10-20T12:10:23.999992Z,1697803823999,0.6375558904387225,728
-0.128936767578125,-0.0356407165527343,0.0090111494064331,2023-10-20T12:10:24.019070Z,1697803824019,0.1340751711671957,729
0.4238739013671875,0.127265453338623,-0.0638024806976318,2023-10-20T12:10:24.039148Z,1697803824039,0.4471424117849895,730
1.0408344268798828,0.3498678207397461,-0.2457902431488037,2023-10-20T12:10:24.059927Z,1697803824059,1.125236259544946,731
1.7293624877929688,0.6630363464355469,-0.5592324733734131,2023-10-20T12:10:24.082791Z,1697803824082,1.934697074519789,732
2.47445011138916,1.0884685516357422,-1.0064380168914795,2023-10-20T12:10:24.099763Z,1697803824099,2.8845423594563995,733
3.2530994415283203,1.6328740119934082,-1.5737552642822266,2023-10-20T12:10:24.120184Z,1697803824120,3.965556599945504,734
4.045789241790772,2.294933795928955,-2.245402812957764,2023-10-20T12:10:24.140943Z,1697803824140,5.164974879815532,735
4.8253374099731445,3.064282417297364,-2.999357223510742,2023-10-20T12:10:24.160954Z,1697803824160,6.455218943403096,736
5.554205894470215,3.919147491455078,-3.8003416061401367,2023-10-20T12:10:24.182514Z,1697803824182,7.78790835213834,737
6.235692977905273,4.836409568786621,-4.612740993499756,2023-10-20T12:10:24.201867Z,1697803824201,9.140683995460137,738
6.869691848754883,5.776110649108887,-5.406667709350586,2023-10-20T12:10:24.221580Z,1697803824221,10.477985304767929,739
7.493000030517578,6.70488977432251,-6.168027877807617,2023-10-20T12:10:24.241655Z,1697803824241,11.795980851313846,740
8.092491149902344,7.5868239402771,-6.878812789916992,2023-10-20T12:10:24.262207Z,1697803824262,13.052447123460608,741
8.646477699279785,8.394035339355469,-7.539468765258789,2023-10-20T12:10:24.282519Z,1697803824282,14.21495674086995,742
9.14524269104004,9.112906455993652,-8.16950511932373,2023-10-20T12:10:24.302538Z,1697803824302,15.278132799801444,743
9.575956344604492,9.745672225952148,-8.768202781677246,2023-10-20T12:10:24.323123Z,1697803824323,16.234483270805963,744
9.929239273071287,10.293899536132812,-9.311100959777832,2023-10-20T12:10:24.343646Z,1697803824343,17.066070469943345,745
10.20249366760254,10.75725269317627,-9.770734786987305,2023-10-20T12:10:24.366452Z,1697803824366,17.75603054795643,746
10.407419204711914,11.13875675201416,-10.13382053375244,2023-10-20T12:10:24.383287Z,1697803824383,18.30520677549013,747
10.53306007385254,11.443636894226074,-10.403390884399414,2023-10-20T12:10:24.403944Z,1697803824403,18.71183373643224,748
10.590524673461914,11.69105052947998,-10.572815895080566,2023-10-20T12:10:24.424407Z,1697803824424,18.990110881543792,749
10.556856155395508,11.884082794189451,-10.621816635131836,2023-10-20T12:10:24.444989Z,1697803824444,19.11809677701275,750
10.438693046569824,12.013189315795898,-10.531387329101562,2023-10-20T12:10:24.465747Z,1697803824465,19.08384523971044,751
10.235532760620115,12.069613456726074,-10.288822174072266,2023-10-20T12:10:24.485157Z,1697803824485,18.875951939390816,752
9.954944610595703,12.047760009765623,-9.895204544067385,2023-10-20T12:10:24.505921Z,1697803824505,18.497689488740697,753
9.622992515563965,11.937910079956056,-9.360252380371094,2023-10-20T12:10:24.525518Z,1697803824525,17.96468776950936,754
9.270622253417969,11.71974277496338,-8.69734001159668,2023-10-20T12:10:24.549095Z,1697803824549,17.289896788419394,755
8.911035537719727,11.370644569396973,-7.924216270446777,2023-10-20T12:10:24.566198Z,1697803824566,16.476993529733335,756
8.538110733032227,10.883172988891602,-7.078901290893555,2023-10-20T12:10:24.586469Z,1697803824586,15.538778352298944,757
8.144207954406738,10.269668579101562,-6.212398052215576,2023-10-20T12:10:24.607002Z,1697803824606,14.504761476438686,758
7.722184181213379,9.552568435668944,-5.354551315307617,2023-10-20T12:10:24.626982Z,1697803824626,13.399810149214176,759
7.27376651763916,8.748418807983398,-4.517168521881104,2023-10-20T12:10:24.649229Z,1697803824649,12.24121409207762,760
6.815983772277832,7.879154682159424,-3.7164981365203857,2023-10-20T12:10:24.667963Z,1697803824667,11.061241869162297,761
6.378480911254883,6.981503486633301,-2.980092763900757,2023-10-20T12:10:24.687374Z,1697803824687,9.915006936486202,762
5.95302677154541,6.092381477355957,-2.3336007595062256,2023-10-20T12:10:24.707842Z,1697803824707,8.831836293383972,763
5.541720390319824,5.255593299865723,-1.7868809700012207,2023-10-20T12:10:24.728374Z,1697803824728,7.843779026657526,764
5.115128993988037,4.489163398742676,-1.3354363441467283,2023-10-20T12:10:24.749072Z,1697803824749,6.935454049665093,765
4.695669174194336,3.8105673789978014,-0.9757208824157716,2023-10-20T12:10:24.769046Z,1697803824768,6.125501121030288,766
4.315278053283691,3.2315616607666016,-0.6944378614425659,2023-10-20T12:10:24.788736Z,1697803824788,5.435702290219122,767
3.991763114929199,2.7516584396362305,-0.470773696899414,2023-10-20T12:10:24.809165Z,1697803824809,4.87108045589712,768
3.7343063354492174,2.358828067779541,-0.295276939868927,2023-10-20T12:10:24.832554Z,1697803824832,4.426771072863278,769
3.5397682189941406,2.038710594177246,-0.1659106612205505,2023-10-20T12:10:24.849480Z,1697803824849,4.088254673882013,770
3.396825790405273,1.775686264038086,-0.0796884596347808,2023-10-20T12:10:24.870Z,1697803824869,3.833775868416789,771
3.281436920166016,1.5508546829223633,-0.0295568630099296,2023-10-20T12:10:24.890716Z,1697803824890,3.629580157087296,772
3.200551986694336,1.356635570526123,-0.0038147354498505,2023-10-20T12:10:24.910282Z,1697803824910,3.476205926431337,773
3.133928298950196,1.1753785610198977,0.0021781353279948,2023-10-20T12:10:24.932686Z,1697803824932,3.3470921841113936,774
3.103626251220703,1.0071821212768557,-0.0105437859892845,2023-10-20T12:10:24.950749Z,1697803824950,3.2629776131792583,775
3.0950183868408203,0.84834885597229,-0.0412404388189315,2023-10-20T12:10:24.970840Z,1697803824970,3.2094447136702984,776
3.102557182312012,0.6988732814788818,-0.0883499979972839,2023-10-20T12:10:24.992293Z,1697803824992,3.1815233230682174,777
3.128782272338867,0.5596659183502197,-0.150270402431488,2023-10-20T12:10:25.011821Z,1697803825011,3.181993972607692,778
3.171656608581543,0.4309902191162109,-0.2248515486717224,2023-10-20T12:10:25.032159Z,1697803825032,3.2086938823566338,779
3.225391387939453,0.3135507106781006,-0.3099358081817627,2023-10-20T12:10:25.052516Z,1697803825052,3.255383826640726,780
3.279343605041504,0.2082735300064087,-0.4033410549163818,2023-10-20T12:10:25.072831Z,1697803825072,3.310612684958631,781
3.3256959915161133,0.1157994866371154,-0.5022932291030884,2023-10-20T12:10:25.093295Z,1697803825093,3.365406637702875,782
3.3659162521362305,0.036123476922512,-0.6058897972106934,2023-10-20T12:10:25.115608Z,1697803825115,3.4202046091343417,783
3.40695858001709,-0.0298684909939765,-0.7144863605499268,2023-10-20T12:10:25.133600Z,1697803825133,3.48119945595167,784
3.446969985961914,-0.0805577337741851,-0.8268892765045166,2023-10-20T12:10:25.154284Z,1697803825154,3.545678709103699,785
3.478184700012207,-0.1147512197494506,-0.9399311542510986,2023-10-20T12:10:25.174573Z,1697803825174,3.6047756136221287,786
3.4950485229492188,-0.1331553757190704,-1.0500261783599854,2023-10-20T12:10:25.194345Z,1697803825194,3.6518008580827184,787
3.4973745346069336,-0.137754738330841,-1.1546461582183838,2023-10-20T12:10:25.215060Z,1697803825215,3.685622437789598,788
3.4860782623291016,-0.1301188766956329,-1.25140118598938,2023-10-20T12:10:25.235079Z,1697803825235,3.706167495061664,789
3.459782600402832,-0.1108700335025787,-1.3370511531829834,2023-10-20T12:10:25.254747Z,1697803825254,3.710807673890819,790
3.4128665924072266,-0.0805623233318328,-1.4056806564331057,2023-10-20T12:10:25.275477Z,1697803825275,3.691894740289889,791
3.3377065658569336,-0.0399799346923828,-1.4501149654388428,2023-10-20T12:10:25.298544Z,1697803825298,3.639329186530423,792
3.227689743041992,0.009327495470643,-1.4637494087219238,2023-10-20T12:10:25.315762Z,1697803825315,3.544097968601322,793
3.0820236206054688,0.0643801689147949,-1.4436602592468262,2023-10-20T12:10:25.336266Z,1697803825336,3.403993147503113,794
2.905977249145508,0.1212243437767028,-1.391575813293457,2023-10-20T12:10:25.356516Z,1697803825356,3.224264622858789,795
2.706345558166504,0.176129937171936,-1.3116569519042969,2023-10-20T12:10:25.376740Z,1697803825376,3.0126021965162653,796
2.4883413314819336,0.2263232469558715,-1.2088241577148438,2023-10-20T12:10:25.398472Z,1697803825398,2.7756658009113653,797
2.2586774826049805,0.2698071002960205,-1.08931303024292,2023-10-20T12:10:25.417724Z,1697803825417,2.522106801793677,798
2.0280027389526367,0.3049646615982055,-0.9612493515014648,2023-10-20T12:10:25.437571Z,1697803825437,2.264905929566412,799
-2.752725124359131,0.50532066822052,-1.266392469406128,2023-10-20T12:19:08.233732Z,1697804348233,3.071904047098049,800
-2.6787333488464355,0.7121071815490723,-1.1763248443603516,2023-10-20T12:19:08.253834Z,1697804348253,3.011054488330493,801
-2.579599380493164,0.8944137096405029,-1.0668823719024658,2023-10-20T12:19:08.274826Z,1697804348274,2.9313046316119777,802
-2.461726665496826,1.0525953769683838,-0.944655418395996,2023-10-20T12:19:08.294536Z,1697804348294,2.8390894777618847,803
-2.327213764190674,1.1873464584350586,-0.8142304420471191,2023-10-20T12:19:08.315611Z,1697804348315,2.7365464968374003,804
-2.1751084327697754,1.2976412773132324,-0.6781455278396606,2023-10-20T12:19:08.335603Z,1697804348335,2.621993694847918,805
-2.005061626434326,1.382701396942139,-0.5386015176773071,2023-10-20T12:19:08.355189Z,1697804348355,2.494439190228839,806
-1.814828872680664,1.4393525123596191,-0.3960058689117431,2023-10-20T12:19:08.375525Z,1697804348375,2.3499276882840165,807
-1.5997004508972168,1.46024751663208,-0.2513051629066467,2023-10-20T12:19:08.398906Z,1697804348398,2.1804858695562443,808
-1.3475937843322754,1.423041820526123,-0.1090115308761596,2023-10-20T12:19:08.416046Z,1697804348416,1.962890864108662,809
-1.0489568710327148,1.2904000282287598,0.017343521118164,2023-10-20T12:19:08.436830Z,1697804348436,1.663052478986849,810
-0.7076973915100098,1.0211267471313477,0.1013737916946411,2023-10-20T12:19:08.456911Z,1697804348456,1.2465199867229035,811
-0.3409647941589355,0.5807099342346191,0.1057705879211425,2023-10-20T12:19:08.477133Z,1697804348477,0.6816659268613953,812
0.0247554779052734,-0.0501518249511718,-0.0131597518920898,2023-10-20T12:19:08.498440Z,1697804348498,0.0574562294456642,813
0.3593244552612304,-0.8750076293945312,-0.2967774868011474,2023-10-20T12:19:08.517666Z,1697804348517,0.9913774721665924,814
0.6348683834075928,-1.879252433776856,-0.7731423377990723,2023-10-20T12:19:08.537928Z,1697804348537,2.1289426128020037,815
0.8391537666320801,-3.0178375244140625,-1.4466495513916016,2023-10-20T12:19:08.557865Z,1697804348557,3.450263365651371,816
0.9797971248626708,-4.173252105712891,-2.221970558166504,2023-10-20T12:19:08.578003Z,1697804348577,4.828373298025433,817
1.1126021146774292,-5.298398971557617,-3.113065242767334,2023-10-20T12:19:08.598876Z,1697804348598,6.245165356747052,818
1.277727127075195,-6.292755126953125,-4.061972141265869,2023-10-20T12:19:08.618866Z,1697804348618,7.598089982059879,819
1.498103141784668,-7.092082977294922,-4.991860866546631,2023-10-20T12:19:08.639106Z,1697804348639,8.801172018045163,820
1.757129430770874,-7.701193332672119,-5.854986190795898,2023-10-20T12:19:08.659080Z,1697804348659,9.83243336504679,821
2.007988452911377,-8.125325202941895,-6.588718414306641,2023-10-20T12:19:08.681962Z,1697804348681,10.651954638638468,822
2.234600067138672,-8.415237426757812,-7.213222980499268,2023-10-20T12:19:08.699370Z,1697804348699,11.306646017947337,823
2.440471172332764,-8.516602516174316,-7.713715553283691,2023-10-20T12:19:08.720566Z,1697804348720,11.746907065200809,824
2.6441750526428223,-8.425600051879883,-8.094679832458496,2023-10-20T12:19:08.740388Z,1697804348740,11.979408980966769,825
2.8424863815307617,-8.129985809326172,-8.341814041137695,2023-10-20T12:19:08.761060Z,1697804348761,11.990090057458069,826
3.0086042881011963,-7.711008071899414,-8.560608863830566,2023-10-20T12:19:08.781524Z,1697804348781,11.9077860816683,827
3.1358604431152344,-7.193539619445801,-8.65953254699707,2023-10-20T12:19:08.801404Z,1697804348801,11.686237072203047,828
3.2232234477996826,-6.61890172958374,-8.68360710144043,2023-10-20T12:19:08.822085Z,1697804348822,11.384377971260395,829
3.273622751235962,-6.0074005126953125,-8.685440063476562,2023-10-20T12:19:08.842269Z,1697804348842,11.05632560725241,830
3.327272415161133,-5.346866130828857,-8.67494010925293,2023-10-20T12:19:08.865332Z,1697804348865,10.71980900225476,831
3.454509258270264,-4.633811950683594,-8.690744400024414,2023-10-20T12:19:08.882123Z,1697804348882,10.437187630599,832
3.6902804374694815,-3.8239705562591553,-8.695221900939941,2023-10-20T12:19:08.902210Z,1697804348902,10.190574293379768,833
4.03134822845459,-2.950145483016968,-8.688756942749023,2023-10-20T12:19:08.923236Z,1697804348923,10.022455992430135,834
4.452460289001465,-2.009143590927124,-8.663485527038574,2023-10-20T12:19:08.943312Z,1697804348943,9.945704704610195,835
4.944454193115234,-1.016657829284668,-8.63172721862793,2023-10-20T12:19:08.964985Z,1697804348964,9.99939674112708,836
5.535930633544922,0.0495983883738517,-8.615575790405273,2023-10-20T12:19:08.983254Z,1697804348983,10.240953772953366,837
6.206298351287842,1.2123595476150513,-8.574543952941895,2023-10-20T12:19:09.003616Z,1697804349003,10.654142804506796,838
6.950789451599121,2.4767985343933105,-8.477537155151367,2023-10-20T12:19:09.024781Z,1697804349024,11.239067630253247,839
7.770780086517334,3.8504252433776855,-8.310829162597656,2023-10-20T12:19:09.044726Z,1697804349044,12.01168926828105,840
8.630770683288574,5.327394962310791,-8.061700820922852,2023-10-20T12:19:09.065209Z,1697804349065,12.956170722788276,841
9.471111297607422,6.876893043518066,-7.814730644226074,2023-10-20T12:19:09.085335Z,1697804349085,14.073507813813164,842
10.154525756835938,8.382129669189453,-7.42431640625,2023-10-20T12:19:09.104928Z,1697804349104,15.116049921770683,843
10.631800651550291,9.737997055053713,-6.917366981506348,2023-10-20T12:19:09.125819Z,1697804349125,15.991051800784533,844
10.900726318359377,10.883455276489258,-6.360513687133789,2023-10-20T12:19:09.148554Z,1697804349148,16.66528029729266,845
11.0153169631958,11.829188346862791,-5.811266899108887,2023-10-20T12:19:09.165564Z,1697804349165,17.17666229853467,846
11.052194595336914,12.609071731567385,-5.340027809143066,2023-10-20T12:19:09.186433Z,1697804349186,17.597033622387254,847
11.043416976928713,13.263193130493164,-4.938621997833252,2023-10-20T12:19:09.206756Z,1697804349206,17.951583155269645,848
10.96818733215332,13.720331192016602,-4.596787452697754,2023-10-20T12:19:09.226939Z,1697804349226,18.15706684068525,849
10.80472183227539,13.95463752746582,-4.302768230438232,2023-10-20T12:19:09.248300Z,1697804349248,18.16556458909754,850
10.558032035827637,13.946304321289062,-4.059706211090088,2023-10-20T12:19:09.266987Z,1697804349266,17.956966871159842,851
10.29340934753418,13.760220527648926,-3.789440870285034,2023-10-20T12:19:09.287113Z,1697804349287,17.59709655240948,852
10.03411102294922,13.466137886047363,-3.5846283435821533,2023-10-20T12:19:09.307620Z,1697804349307,17.17177375661943,853
9.798528671264648,13.104963302612305,-3.4149649143218994,2023-10-20T12:19:09.327528Z,1697804349327,16.71565770917974,854
9.594487190246582,12.690144538879396,-3.240400075912476,2023-10-20T12:19:09.348331Z,1697804349348,16.23558269707096,855
9.369525909423828,12.190240859985352,-3.051065683364868,2023-10-20T12:19:09.368432Z,1697804349368,15.67478834932158,856
9.035731315612791,11.56082820892334,-2.819516897201538,2023-10-20T12:19:09.389285Z,1697804349389,14.94144788224315,857
8.537199020385742,10.740458488464355,-2.5746304988861084,2023-10-20T12:19:09.408877Z,1697804349408,13.959582295394652,858
7.909637928009033,9.800743103027344,-2.344010353088379,2023-10-20T12:19:09.431303Z,1697804349431,12.810594133728635,859
7.205305099487305,8.78477668762207,-2.1472787857055664,2023-10-20T12:19:09.449751Z,1697804349449,11.562851257870056,860
6.4691548347473145,7.762308120727539,-1.9868948459625244,2023-10-20T12:19:09.470086Z,1697804349470,10.298113553751469,861
5.687084197998047,6.734198093414307,-1.8412883281707764,2023-10-20T12:19:09.490581Z,1697804349490,9.004592902731467,862
4.9012627601623535,5.730788707733154,-1.7159852981567385,2023-10-20T12:19:09.509938Z,1697804349509,7.733622786270753,863
4.147409439086914,4.796526908874512,-1.610809087753296,2023-10-20T12:19:09.531492Z,1697804349531,6.542352891748741,864
3.447795391082764,3.9566030502319336,-1.514204740524292,2023-10-20T12:19:09.551378Z,1697804349551,5.462125662423232,865
2.8190574645996094,3.217132568359375,-1.410574197769165,2023-10-20T12:19:09.570977Z,1697804349570,4.504081095909075,866
2.276803493499756,2.585287094116211,-1.296135425567627,2023-10-20T12:19:09.591262Z,1697804349591,3.680694302496189,867
1.836400032043457,2.0752439498901367,-1.1815552711486816,2023-10-20T12:19:09.614735Z,1697804349614,3.012486578895259,868
1.4863696098327637,1.6767630577087402,-1.07078218460083,2023-10-20T12:19:09.632153Z,1697804349632,2.4834257499650945,869
1.2092299461364746,1.3688812255859375,-0.9657678604125975,2023-10-20T12:19:09.652869Z,1697804349652,2.066102715888251,870
0.992319107055664,1.1317753791809082,-0.8682823181152344,2023-10-20T12:19:09.672890Z,1697804349672,1.7376785960296006,871
0.827906608581543,0.9518113136291504,-0.7820096015930176,2023-10-20T12:19:09.692753Z,1697804349692,1.4842213939534463,872
0.7071342468261719,0.8182048797607422,-0.7094402313232422,2023-10-20T12:19:09.714357Z,1697804349714,1.293369054105859,873
0.6187005043029785,0.7202038764953613,-0.6498522758483887,2023-10-20T12:19:09.733685Z,1697804349733,1.1505615664400737,874
0.5528564453125,0.6491470336914062,-0.6017045974731445,2023-10-20T12:19:09.753607Z,1697804349753,1.043595009136324,875
0.5038442611694336,0.5997514724731445,-0.5645217895507812,2023-10-20T12:19:09.774295Z,1697804349774,0.965528725168078,876
0.4712715148925781,0.5714635848999023,-0.5409002304077148,2023-10-20T12:19:09.793984Z,1697804349793,0.9171916532933084,877
0.4562225341796875,0.5655035972595215,-0.5337920188903809,2023-10-20T12:19:09.814416Z,1697804349814,0.9015915031974646,878
0.4572391510009765,0.5808429718017578,-0.542788028717041,2023-10-20T12:19:09.834236Z,1697804349834,0.9170959836451814,879
0.4708647727966308,0.6144237518310547,-0.5646429061889648,2023-10-20T12:19:09.854897Z,1697804349854,0.9581501931244872,880
0.4928712844848633,0.6622495651245117,-0.5947818756103516,2023-10-20T12:19:09.875586Z,1697804349875,1.0174782892680962,881
0.5200972557067871,0.721015453338623,-0.6293840408325195,2023-10-20T12:19:09.898395Z,1697804349898,1.0892606254710129,882
0.5486001968383789,0.7857394218444824,-0.6632437705993652,2023-10-20T12:19:09.915413Z,1697804349915,1.165435933138529,883
0.5714149475097656,0.8462204933166504,-0.6872086524963379,2023-10-20T12:19:09.936466Z,1697804349936,1.23079644848874,884
0.580019474029541,0.8878993988037109,-0.6899623870849609,2023-10-20T12:19:09.956693Z,1697804349956,1.265241490088542,885
0.5683717727661133,0.8978176116943359,-0.6637172698974609,2023-10-20T12:19:09.976650Z,1697804349976,1.2528541616269449,886
0.5368771553039551,0.872105598449707,-0.6098155975341797,2023-10-20T12:19:09.998124Z,1697804349998,1.191922949577932,887
0.4889321327209472,0.8129901885986328,-0.5346856117248535,2023-10-20T12:19:10.016722Z,1697804350016,1.088988696245409,888
0.4273924827575683,0.7243194580078125,-0.4454498291015625,2023-10-20T12:19:10.037248Z,1697804350037,0.9516977260732638,889
0.3528633117675781,0.607673168182373,-0.3472123146057129,2023-10-20T12:19:10.057744Z,1697804350057,0.7837956286776817,890
0.2659840583801269,0.4646520614624023,-0.2448883056640625,2023-10-20T12:19:10.081983Z,1697804350081,0.5887438660271869,891
0.1700940132141113,0.3009152412414551,-0.1451773643493652,2023-10-20T12:19:10.098152Z,1697804350098,0.3749112199736275,892
0.0714926719665527,0.1277322769165039,-0.0560290813446044,2023-10-20T12:19:10.118093Z,1697804350118,0.1567354288841927,893
-0.0221242904663085,-0.039769172668457,0.0157818794250488,2023-10-20T12:19:10.138585Z,1697804350138,0.0481678216401563,894
-0.1032290458679199,-0.1860523223876953,0.066641092300415,2023-10-20T12:19:10.158830Z,1697804350158,0.2229635345962394,895
-0.166663646697998,-0.3007149696350097,0.0973141193389892,2023-10-20T12:19:10.181301Z,1697804350181,0.3573182082066109,896
-0.2119655609130859,-0.3831691741943359,0.1123309135437011,2023-10-20T12:19:10.199300Z,1697804350199,0.4520688544940149,897
-0.2409777641296386,-0.4373478889465332,0.1165909767150878,2023-10-20T12:19:10.220077Z,1697804350220,0.5127737460345323,898
-0.2559280395507812,-0.4670915603637695,0.1137470006942749,2023-10-20T12:19:10.240132Z,1697804350240,0.5446210309548378,899
-4.024052619934082,-0.2458637952804565,-1.6585218906402588,2023-10-20T12:18:36.156314Z,1697804316156,4.359374193110864,900
-4.114284038543701,0.3237110376358032,-1.630729079246521,2023-10-20T12:18:36.176427Z,1697804316176,4.437499218659416,901
-4.058413505554199,0.8932428359985352,-1.5294972658157349,2023-10-20T12:18:36.197114Z,1697804316197,4.428088168980518,902
-3.864890575408936,1.4035868644714355,-1.363453030586243,2023-10-20T12:18:36.217047Z,1697804316217,4.332024862880681,903
-3.559074878692627,1.8101327419281008,-1.15015709400177,2023-10-20T12:18:36.237648Z,1697804316237,4.15529251394215,904
-3.17256498336792,2.088909149169922,-0.911223292350769,2023-10-20T12:18:36.257507Z,1697804316257,3.906281850519836,905
-2.7315421104431152,2.2295496463775635,-0.666439414024353,2023-10-20T12:18:36.277980Z,1697804316277,3.588363891713251,906
-2.258267402648926,2.226970672607422,-0.4333822727203369,2023-10-20T12:18:36.298667Z,1697804316298,3.2010920375441447,907
-1.774744987487793,2.081554412841797,-0.2283234000205993,2023-10-20T12:18:36.321346Z,1697804316321,2.744944465600565,908
-1.3017144203186035,1.7975530624389648,-0.0664486736059188,2023-10-20T12:18:36.338448Z,1697804316338,2.2203767406845816,909
-0.8571071624755859,1.3842411041259766,0.0382757633924484,2023-10-20T12:18:36.358957Z,1697804316358,1.6285641394744417,910
-0.4541144371032715,0.8535833358764648,0.0740596055984497,2023-10-20T12:18:36.379535Z,1697804316379,0.9696954462371228,911
-0.1018712520599365,0.2223329544067382,0.0316427946090698,2023-10-20T12:18:36.399970Z,1697804316399,0.2465987856056059,912
0.1940617561340332,-0.4923973083496094,-0.0963014364242553,2023-10-20T12:18:36.421158Z,1697804316421,0.5379489205502137,913
0.4298868179321289,-1.275033950805664,-0.3157260417938232,2023-10-20T12:18:36.440367Z,1697804316440,1.382098833443436,914
0.6030526161193848,-2.110762596130371,-0.6330773830413818,2023-10-20T12:18:36.460358Z,1697804316460,2.2846833846180923,915
0.7140800952911377,-2.9831438064575195,-1.0559790134429932,2023-10-20T12:18:36.481040Z,1697804316481,3.2440944852653253,916
0.7747184038162231,-3.863460540771485,-1.5885076522827148,2023-10-20T12:18:36.500632Z,1697804316500,4.248514153992027,917
0.8130654096603394,-4.712277412414551,-2.226518154144287,2023-10-20T12:18:36.521539Z,1697804316521,5.274847567719147,918
0.8664050102233887,-5.501590728759766,-2.9539527893066406,2023-10-20T12:18:36.541589Z,1697804316541,6.304283882406319,919
0.967926025390625,-6.195466995239258,-3.7304916381835938,2023-10-20T12:18:36.561416Z,1697804316561,7.296386773073722,920
1.1313443183898926,-6.746973991394043,-4.490694046020508,2023-10-20T12:18:36.582120Z,1697804316582,8.18339361281521,921
1.3577637672424316,-7.128663063049316,-5.195657730102539,2023-10-20T12:18:36.604420Z,1697804316604,8.925033263943295,922
1.6128809452056885,-7.323834419250488,-5.8117756843566895,2023-10-20T12:18:36.621980Z,1697804316621,9.487711639235531,923
1.8585178852081297,-7.377044677734375,-6.348071575164795,2023-10-20T12:18:36.642495Z,1697804316642,9.908223333693222,924
2.059289932250977,-7.285672187805176,-6.790327072143555,2023-10-20T12:18:36.663189Z,1697804316663,10.170065683166149,925
2.213942527770996,-7.033936500549316,-7.10545539855957,2023-10-20T12:18:36.683442Z,1697804316683,10.240376000467576,926
2.31522536277771,-6.615198135375977,-7.275844573974609,2023-10-20T12:18:36.704595Z,1697804316704,10.102426892354467,927
2.348274946212769,-6.079387187957764,-7.300773620605469,2023-10-20T12:18:36.723925Z,1697804316723,9.786451821954897,928
2.3094053268432617,-5.468308448791504,-7.188849449157715,2023-10-20T12:18:36.743788Z,1697804316743,9.322837907924376,929
2.2115185260772705,-4.812468528747559,-6.979790210723877,2023-10-20T12:18:36.764290Z,1697804316764,8.761742915486938,930
2.0912227630615234,-4.141204833984375,-6.742676734924316,2023-10-20T12:18:36.784104Z,1697804316784,8.18452684481222,931
1.9745135307312007,-3.4653244018554688,-6.5028886795043945,2023-10-20T12:18:36.805149Z,1697804316805,7.628547572845172,932
1.903329610824585,-2.7916975021362305,-6.284963607788086,2023-10-20T12:18:36.824864Z,1697804316824,7.135615327503015,933
1.9069275856018064,-2.0935962200164795,-6.06977653503418,2023-10-20T12:18:36.845818Z,1697804316845,6.697888110027515,934
2.0135645866394043,-1.3827872276306152,-5.873068809509277,2023-10-20T12:18:36.866017Z,1697804316865,6.360776690208311,935
2.23068642616272,-0.6699120998382568,-5.741819381713867,2023-10-20T12:18:36.887654Z,1697804316887,6.196227397828563,936
2.5697145462036133,0.0559824854135513,-5.702844619750977,2023-10-20T12:18:36.906054Z,1697804316906,6.25531802905865,937
3.0508852005004883,0.8530619144439697,-5.769613265991211,2023-10-20T12:18:36.926357Z,1697804316926,6.5821009089506886,938
3.6839118003845215,1.7910122871398926,-5.928461074829102,2023-10-20T12:18:36.946663Z,1697804316946,7.205940735355948,939
4.450626373291016,2.9101247787475586,-6.115129470825195,2023-10-20T12:18:36.966635Z,1697804316966,8.103808350860039,940
5.293384552001953,4.197361469268799,-6.237716674804688,2023-10-20T12:18:36.987352Z,1697804316987,9.19493733715525,941
6.13187313079834,5.586106300354004,-6.219503402709961,2023-10-20T12:18:37.007198Z,1697804317007,10.36757803285715,942
6.884952545166016,6.981327056884766,-6.0220232009887695,2023-10-20T12:18:37.027539Z,1697804317027,11.506792014181292,943
7.496430397033691,8.31035041809082,-5.661634922027588,2023-10-20T12:18:37.048229Z,1697804317048,12.542428104611774,944
7.930615901947021,9.516172409057615,-5.191451072692871,2023-10-20T12:18:37.070750Z,1697804317070,13.431432170222516,945
8.176932334899902,10.549351692199709,-4.681465148925781,2023-10-20T12:18:37.088689Z,1697804317088,14.144509870471127,946
8.23381233215332,11.362176895141602,-4.166106700897217,2023-10-20T12:18:37.108997Z,1697804317108,14.637321283652636,947
8.155351638793945,11.937493324279783,-3.678197145462036,2023-10-20T12:18:37.129264Z,1697804317129,14.917863166703489,948
8.021123886108398,12.327129364013672,-3.228706359863281,2023-10-20T12:18:37.149923Z,1697804317149,15.05726042517856,949
7.889796257019043,12.545137405395508,-2.828929901123047,2023-10-20T12:18:37.170780Z,1697804317170,15.087484942262355,950
7.76338005065918,12.58213710784912,-2.499341011047364,2023-10-20T12:18:37.190026Z,1697804317189,14.99423054048423,951
7.648431777954102,12.434718132019045,-2.2456283569335938,2023-10-20T12:18:37.210058Z,1697804317210,14.770361214345629,952
7.577450275421143,12.17613410949707,-2.074873208999634,2023-10-20T12:18:37.230786Z,1697804317230,14.490724390532115,953
7.5652055740356445,11.865375518798828,-1.9805636405944824,2023-10-20T12:18:37.254017Z,1697804317253,14.210633480389795,954
7.6058349609375,11.527423858642578,-1.9271154403686523,2023-10-20T12:18:37.270859Z,1697804317270,13.944317846001953,955
7.667348861694336,11.162924766540527,-1.8605191707611084,2023-10-20T12:18:37.290707Z,1697804317290,13.669698588306142,956
7.725891590118408,10.767507553100586,-1.7637488842010498,2023-10-20T12:18:37.311615Z,1697804317311,13.369346651757557,957
7.727729797363281,10.318236351013184,-1.6293177604675293,2023-10-20T12:18:37.331919Z,1697804317331,12.9937864220173,958
7.609233856201172,9.749835968017578,-1.4823095798492432,2023-10-20T12:18:37.353972Z,1697804317353,12.456202590361167,959
7.330144882202148,9.058626174926758,-1.348233938217163,2023-10-20T12:18:37.372276Z,1697804317372,11.730620909538551,960
6.911831378936768,8.280218124389648,-1.235457181930542,2023-10-20T12:18:37.392470Z,1697804317392,10.856416519584606,961
6.390669822692871,7.463632583618164,-1.1532189846038818,2023-10-20T12:18:37.413112Z,1697804317413,9.893249524416884,962
5.784032821655273,6.597909450531006,-1.0926508903503418,2023-10-20T12:18:37.432974Z,1697804317432,8.842020740055704,963
5.122176647186279,5.678293704986572,-1.03977370262146,2023-10-20T12:18:37.454105Z,1697804317454,7.717567126869305,964
4.445236682891846,4.738903999328613,-0.9895615577697754,2023-10-20T12:18:37.473500Z,1697804317473,6.572409935358245,965
3.802553176879883,3.842425346374512,-0.9442100524902344,2023-10-20T12:18:37.493167Z,1697804317493,5.487729569565558,966
3.226590633392334,3.046091079711914,-0.904707670211792,2023-10-20T12:18:37.514135Z,1697804317514,4.528581891711321,967
2.7304372787475586,2.3828516006469727,-0.8685779571533203,2023-10-20T12:18:37.536761Z,1697804317536,3.726620070725328,968
2.3122243881225586,1.8558273315429688,-0.8303713798522949,2023-10-20T12:18:37.554179Z,1697804317554,3.078959781161235,969
1.9638466835021973,1.449547290802002,-0.7857627868652344,2023-10-20T12:18:37.574390Z,1697804317574,2.5642356174494227,970
1.6772594451904297,1.1420793533325195,-0.7348353862762451,2023-10-20T12:18:37.595222Z,1697804317595,2.15813056618748,971
1.448826789855957,0.914954662322998,-0.6823596954345703,2023-10-20T12:18:37.615193Z,1697804317615,1.84441206216628,972
1.2749614715576172,0.752443790435791,-0.6349821090698242,2023-10-20T12:18:37.637122Z,1697804317637,1.6108695448609447,973
1.1419830322265625,0.636474609375,-0.5933752059936523,2023-10-20T12:18:37.655907Z,1697804317655,1.4357295390707967,974
1.034827709197998,0.5516519546508789,-0.5552926063537598,2023-10-20T12:18:37.676632Z,1697804317676,1.2975122910651995,975
0.940178394317627,0.4862360954284668,-0.5172243118286133,2023-10-20T12:18:37.696834Z,1697804317696,1.1780840132969188,976
0.8514294624328613,0.4333734512329101,-0.4776611328125,2023-10-20T12:18:37.720339Z,1697804317720,1.068131469217135,977
0.7714905738830566,0.3916623592376709,-0.4394798278808594,2023-10-20T12:18:37.737152Z,1697804317737,0.970432701606977,978
0.7102923393249512,0.363746166229248,-0.4093475341796875,2023-10-20T12:18:37.757795Z,1697804317757,0.8968789686959873,979
0.676429271697998,0.3524694442749023,-0.3932452201843261,2023-10-20T12:18:37.778122Z,1697804317778,0.8581567875133085,980
0.6718978881835938,0.3588724136352539,-0.3934659957885742,2023-10-20T12:18:37.797820Z,1697804317797,0.8573515447328827,981
0.6921291351318359,0.3815336227416992,-0.408362865447998,2023-10-20T12:18:37.820344Z,1697804317820,0.8895902848264746,982
0.7278175354003906,0.4171943664550781,-0.4332194328308105,2023-10-20T12:18:37.838167Z,1697804317837,0.9441655475711884,983
0.7656087875366211,0.4600434303283691,-0.4602141380310058,2023-10-20T12:18:37.857836Z,1697804317857,1.004785462765664,984
0.7887916564941406,0.500307559967041,-0.4783153533935547,2023-10-20T12:18:37.879079Z,1697804317879,1.0494215116943937,985
0.7792863845825195,0.524627685546875,-0.4750947952270508,2023-10-20T12:18:37.899146Z,1697804317898,1.0527281425371884,986
0.7228460311889648,0.5188674926757812,-0.4407868385314941,2023-10-20T12:18:37.920301Z,1697804317920,0.9929868562996588,987
