ACC_X,ACC_Y,ACC_Z,DATE,UNIX_TIMESTAMP
0.00941014289855957,0.012714862823486328,0.01914501190185547,2023-10-21T15:49:18.841964Z,1697903358841
0.014253616333007812,0.020129680633544922,0.030308246612548828,2023-10-21T15:49:18.862220Z,1697903358862
0.02335667610168457,0.03464937210083008,0.05295515060424805,2023-10-21T15:49:18.882469Z,1697903358882
0.01866626739501953,0.030273914337158203,0.046376705169677734,2023-10-21T15:49:18.903218Z,1697903358903
0.08150458335876465,0.13275861740112305,0.21906757354736328,2023-10-21T15:49:18.922964Z,1697903358922
0.0848245620727539,0.1413559913635254,0.2402200698852539,2023-10-21T15:49:18.943285Z,1697903358943
0.052474021911621094,0.09143924713134766,0.15749645233154297,2023-10-21T15:49:18.963538Z,1697903358963
0.038927316665649414,0.06970787048339844,0.12102603912353516,2023-10-21T15:49:18.983696Z,1697903358983
0.03842353820800781,0.07045841217041016,0.1262674331665039,2023-10-21T15:49:19.004835Z,1697903359004
0.044209957122802734,0.07994890213012695,0.14951038360595703,2023-10-21T15:49:19.024601Z,1697903359024
0.039891719818115234,0.0662069320678711,0.1119699478149414,2023-10-21T15:49:19.044711Z,1697903359044
0.0355677604675293,0.06046342849731445,0.10475826263427734,2023-10-21T15:49:19.064966Z,1697903359064
0.02397012710571289,0.041493892669677734,0.07337093353271484,2023-10-21T15:49:19.087811Z,1697903359087
0.006524085998535156,0.011371612548828125,0.020483970642089844,2023-10-21T15:49:19.105456Z,1697903359105
-0.018117427825927734,-0.031649112701416016,-0.05785083770751953,2023-10-21T15:49:19.125780Z,1697903359125
-0.04233288764953613,-0.07381772994995117,-0.13739871978759766,2023-10-21T15:49:19.146062Z,1697903359146
-0.06095623970031738,-0.1059417724609375,-0.2020101547241211,2023-10-21T15:49:19.166229Z,1697903359166
-0.07706427574157715,-0.1335911750793457,-0.2621593475341797,2023-10-21T15:49:19.187674Z,1697903359187
-0.09550714492797852,-0.16541671752929688,-0.33436107635498047,2023-10-21T15:49:19.206842Z,1697903359206
-0.12047195434570312,-0.20987939834594727,-0.43555450439453125,2023-10-21T15:49:19.227076Z,1697903359227
-0.1503434181213379,-0.2633039951324463,-0.5601434707641602,2023-10-21T15:49:19.247250Z,1697903359247
-0.17629146575927734,-0.30936336517333984,-0.6762065887451172,2023-10-21T15:49:19.267470Z,1697903359267
-0.1962428092956543,-0.3391530513763428,-0.7645773887634277,2023-10-21T15:49:19.287847Z,1697903359287
-0.20885801315307617,-0.34842538833618164,-0.8108572959899902,2023-10-21T15:49:19.308140Z,1697903359308
-0.22492051124572754,-0.35839152336120605,-0.8529462814331055,2023-10-21T15:49:19.328373Z,1697903359328
-0.24928951263427734,-0.37781500816345215,-0.9105372428894043,2023-10-21T15:49:19.348644Z,1697903359348
-0.2915685176849365,-0.41863226890563965,-1.0090303421020508,2023-10-21T15:49:19.370819Z,1697903359370
-0.3543860912322998,-0.4786262512207031,-1.147850513458252,2023-10-21T15:49:19.389127Z,1697903359389
-0.4418041706085205,-0.5523405075073242,-1.3029208183288574,2023-10-21T15:49:19.409423Z,1697903359409
-0.5498256683349609,-0.6199564933776855,-1.4267005920410156,2023-10-21T15:49:19.429656Z,1697903359429
-0.6685504913330078,-0.6768403053283691,-1.46319580078125,2023-10-21T15:49:19.449935Z,1697903359449
-0.7970311641693115,-0.7355494499206543,-1.4332900047302246,2023-10-21T15:49:19.470776Z,1697903359470
-0.9240260124206543,-0.8019027709960938,-1.3670873641967773,2023-10-21T15:49:19.490452Z,1697903359490
-1.0658974647521973,-0.9085423946380615,-1.2892274856567383,2023-10-21T15:49:19.510776Z,1697903359510
-0.2816188335418701,-0.3961973190307617,-0.7829232215881348,2023-10-21T15:49:19.530942Z,1697903359530
-0.33443617820739746,-0.4525611400604248,-0.878239631652832,2023-10-21T15:49:19.554157Z,1697903359554
-0.3984067440032959,-0.5163378715515137,-0.9752621650695801,2023-10-21T15:49:19.571518Z,1697903359571
-0.4735300540924072,-0.5854816436767578,-1.0673589706420898,2023-10-21T15:49:19.591864Z,1697903359591
-0.5589852333068848,-0.6579830646514893,-1.148162841796875,2023-10-21T15:49:19.612119Z,1697903359612
-0.6534316539764404,-0.7318799495697021,-1.2122955322265625,2023-10-21T15:49:19.632302Z,1697903359632
-0.7561550140380859,-0.8056972026824951,-1.2570996284484863,2023-10-21T15:49:19.653993Z,1697903359653
-0.8651542663574219,-0.8764138221740723,-1.278714656829834,2023-10-21T15:49:19.672843Z,1697903359672
-0.9759554862976074,-0.9390034675598145,-1.2716469764709473,2023-10-21T15:49:19.693164Z,1697903359693
-1.0808229446411133,-0.985870361328125,-1.2311630249023438,2023-10-21T15:49:19.713381Z,1697903359713
-1.1695218086242676,-1.009458065032959,-1.1554222106933594,2023-10-21T15:49:19.733584Z,1697903359733
-1.2320446968078613,-1.0054049491882324,-1.0488371849060059,2023-10-21T15:49:19.753975Z,1697903359753
-1.2603535652160645,-0.9729213714599609,-0.9186699390411377,2023-10-21T15:49:19.774180Z,1697903359774
-1.2486772537231445,-0.9134902954101562,-0.7732269763946533,2023-10-21T15:49:19.794471Z,1697903359794
-1.1940622329711914,-0.829810619354248,-0.6218678951263428,2023-10-21T15:49:19.814678Z,1697903359814
-1.0950055122375488,-0.7247433662414551,-0.47367405891418457,2023-10-21T15:49:19.837192Z,1697903359837
-0.9524240493774414,-0.6021690368652344,-0.33699727058410645,2023-10-21T15:49:19.855235Z,1697903359855
-0.7698187828063965,-0.4663820266723633,-0.21856904029846191,2023-10-21T15:49:19.875527Z,1697903359875
-0.5533523559570312,-0.32216358184814453,-0.12295353412628174,2023-10-21T15:49:19.895783Z,1697903359895
-0.31262969970703125,-0.17537736892700195,-0.052561044692993164,2023-10-21T15:49:19.915955Z,1697903359915
-0.06034564971923828,-0.032709598541259766,-0.007300138473510742,2023-10-21T15:49:19.937132Z,1697903359937
0.18840789794921875,0.09893369674682617,0.01502537727355957,2023-10-21T15:49:19.956604Z,1697903359956
0.42180824279785156,0.21500587463378906,0.01846882700920105,2023-10-21T15:49:19.976910Z,1697903359976
0.6354236602783203,0.31466197967529297,0.007886067032814026,2023-10-21T15:49:19.997086Z,1697903359997
0.8288431167602539,0.3983898162841797,-0.011930465698242188,2023-10-21T15:49:20.020408Z,1697903360020
1.001002311706543,0.4662771224975586,-0.0367964506149292,2023-10-21T15:49:20.037580Z,1697903360037
1.1450328826904297,0.5164284706115723,-0.06279826164245605,2023-10-21T15:49:20.057907Z,1697903360057
1.2532720565795898,0.5478525161743164,-0.08680236339569092,2023-10-21T15:49:20.078147Z,1697903360078
1.322922706604004,0.5622210502624512,-0.10690289735794067,2023-10-21T15:49:20.098314Z,1697903360098
1.3557462692260742,0.562589168548584,-0.12244296073913574,2023-10-21T15:49:20.120423Z,1697903360120
1.3580493927001953,0.5527701377868652,-0.13352620601654053,2023-10-21T15:49:20.138919Z,1697903360138
1.3402166366577148,0.5374464988708496,-0.14078295230865479,2023-10-21T15:49:20.159225Z,1697903360159
1.310307502746582,0.5199065208435059,-0.1449679136276245,2023-10-21T15:49:20.179450Z,1697903360179
1.2675790786743164,0.5000777244567871,-0.14598536491394043,2023-10-21T15:49:20.199682Z,1697903360199
1.2072820663452148,0.47669124603271484,-0.14384424686431885,2023-10-21T15:49:20.220240Z,1697903360220
1.1245031356811523,0.44775843620300293,-0.13833582401275635,2023-10-21T15:49:20.240240Z,1697903360240
1.022613525390625,0.41353893280029297,-0.12998569011688232,2023-10-21T15:49:20.260593Z,1697903360260
0.9073362350463867,0.37447547912597656,-0.11916613578796387,2023-10-21T15:49:20.280735Z,1697903360280
0.7814788818359375,0.3300046920776367,-0.10582733154296875,2023-10-21T15:49:20.303554Z,1697903360303
0.6469011306762695,0.2798032760620117,-0.08996355533599854,2023-10-21T15:49:20.321274Z,1697903360321
0.5035343170166016,0.22324752807617188,-0.07160139083862305,2023-10-21T15:49:20.341581Z,1697903360341
0.35142993927001953,0.15995311737060547,-0.050946831703186035,2023-10-21T15:49:20.361824Z,1697903360361
0.192138671875,0.09005928039550781,-0.02841353416442871,2023-10-21T15:49:20.382057Z,1697903360382
0.033156394958496094,0.016075611114501953,-0.005024552345275879,2023-10-21T15:49:20.403366Z,1697903360403
-0.11461830139160156,-0.0577692985534668,0.017924785614013672,2023-10-21T15:49:20.422654Z,1697903360422
-0.2402210235595703,-0.12647676467895508,0.039109110832214355,2023-10-21T15:49:20.442895Z,1697903360442
-0.3366260528564453,-0.1860065460205078,0.05754661560058594,2023-10-21T15:49:20.463107Z,1697903360463
-0.40012216567993164,-0.23330354690551758,0.07254219055175781,2023-10-21T15:49:20.483329Z,1697903360483
-0.42800092697143555,-0.2651844024658203,0.08327329158782959,2023-10-21T15:49:20.503685Z,1697903360503
-0.41774463653564453,-0.2773432731628418,0.08835697174072266,2023-10-21T15:49:20.523994Z,1697903360523
-0.368837833404541,-0.2644472122192383,0.0856708288192749,2023-10-21T15:49:20.544211Z,1697903360544
-0.2854628562927246,-0.22223711013793945,0.07317447662353516,2023-10-21T15:49:20.564420Z,1697903360564
-0.17684650421142578,-0.14979267120361328,0.04996895790100098,2023-10-21T15:49:20.585427Z,1697903360585
-0.05426311492919922,-0.049922943115234375,0.016810178756713867,2023-10-21T15:49:20.605031Z,1697903360604
0.0718240737915039,0.07141971588134766,-0.024187803268432617,2023-10-21T15:49:20.625315Z,1697903360625
0.19311809539794922,0.20616388320922852,-0.07006287574768066,2023-10-21T15:49:20.645581Z,1697903360645
0.3025956153869629,0.34455251693725586,-0.1173715591430664,2023-10-21T15:49:20.665799Z,1697903360665
0.39384984970092773,0.47562217712402344,-0.16240787506103516,2023-10-21T15:49:20.686742Z,1697903360686
0.46322107315063477,0.5894632339477539,-0.20207524299621582,2023-10-21T15:49:20.706319Z,1697903360706
0.5096197128295898,0.6777782440185547,-0.2340221405029297,2023-10-21T15:49:20.726812Z,1697903360726
0.5353899002075195,0.7374811172485352,-0.2577846050262451,2023-10-21T15:49:20.746810Z,1697903360746
0.54449462890625,0.7704787254333496,-0.27440834045410156,2023-10-21T15:49:20.770011Z,1697903360769
0.5413808822631836,0.7825126647949219,-0.285888671875,2023-10-21T15:49:20.787358Z,1697903360787
0.5295314788818359,0.7800970077514648,-0.29398036003112793,2023-10-21T15:49:20.807739Z,1697903360807
0.5119309425354004,0.7700099945068359,-0.3004019260406494,2023-10-21T15:49:20.827941Z,1697903360827
0.4938654899597168,0.7618846893310547,-0.3076605796813965,2023-10-21T15:49:20.848108Z,1697903360848
0.47989416122436523,0.7634029388427734,-0.31777071952819824,2023-10-21T15:49:20.869858Z,1697903360869
0.4701204299926758,0.7750825881958008,-0.32990050315856934,2023-10-21T15:49:20.888705Z,1697903360888
0.46170473098754883,0.7930517196655273,-0.3418257236480713,2023-10-21T15:49:20.909021Z,1697903360908
0.45102643966674805,0.811823844909668,-0.35123753547668457,2023-10-21T15:49:20.929268Z,1697903360929
0.43793153762817383,0.8304767608642578,-0.3580360412597656,2023-10-21T15:49:20.949441Z,1697903360949
0.42290401458740234,0.8480691909790039,-0.3621649742126465,2023-10-21T15:49:20.969769Z,1697903360969
0.4044630527496338,0.859044075012207,-0.36140871047973633,2023-10-21T15:49:20.990074Z,1697903360990
0.37979960441589355,0.8540353775024414,-0.3522472381591797,2023-10-21T15:49:21.010270Z,1697903361010
0.3461878299713135,0.8224191665649414,-0.3313729763031006,2023-10-21T15:49:21.030492Z,1697903361030
0.30256104469299316,0.7565832138061523,-0.29758167266845703,2023-10-21T15:49:21.053138Z,1697903361053
0.2510535717010498,0.6568822860717773,-0.2528843879699707,2023-10-21T15:49:21.071053Z,1697903361071
0.19690394401550293,0.5342893600463867,-0.20256710052490234,2023-10-21T15:49:21.091367Z,1697903361091
0.14465832710266113,0.4032735824584961,-0.1516270637512207,2023-10-21T15:49:21.111557Z,1697903361111
0.09751439094543457,0.27747249603271484,-0.10398554801940918,2023-10-21T15:49:21.131830Z,1697903361131
0.05636143684387207,0.16344261169433594,-0.06115269660949707,2023-10-21T15:49:21.153154Z,1697903361153
0.02207040786743164,0.06542587280273438,-0.024398088455200195,2023-10-21T15:49:21.172409Z,1697903361172
-0.0033528804779052734,-0.0102081298828125,0.0037810802459716797,2023-10-21T15:49:21.192736Z,1697903361192
-0.017346858978271484,-0.05446910858154297,0.019948482513427734,2023-10-21T15:49:21.212929Z,1697903361212
-0.017528057098388672,-0.056880950927734375,0.020505428314208984,2023-10-21T15:49:21.236598Z,1697903361236
-0.0035576820373535156,-0.01192474365234375,0.004212617874145508,2023-10-21T15:49:21.253528Z,1697903361253
0.02316451072692871,0.07999706268310547,-0.02759861946105957,2023-10-21T15:49:21.273762Z,1697903361273
0.05960559844970703,0.2112751007080078,-0.07088160514831543,2023-10-21T15:49:21.294053Z,1697903361294
0.10206246376037598,0.36888790130615234,-0.11982035636901855,2023-10-21T15:49:21.314238Z,1697903361314
0.14749550819396973,0.5373983383178711,-0.1683182716369629,2023-10-21T15:49:21.336347Z,1697903361336
0.19269704818725586,0.6979389190673828,-0.21045470237731934,2023-10-21T15:49:21.354761Z,1697903361354
0.23531484603881836,0.8356504440307617,-0.24323773384094238,2023-10-21T15:49:21.375081Z,1697903361375
0.2739529609680176,0.9428853988647461,-0.2667977809906006,2023-10-21T15:49:21.395304Z,1697903361395
0.3075084686279297,1.0179481506347656,-0.28260302543640137,2023-10-21T15:49:21.415525Z,1697903361415
0.3352189064025879,1.0631370544433594,-0.29152488708496094,2023-10-21T15:49:21.436183Z,1697903361436
0.354508638381958,1.0769672393798828,-0.29242420196533203,2023-10-21T15:49:21.456186Z,1697903361456
0.3634171485900879,1.0594244003295898,-0.2846212387084961,2023-10-21T15:49:21.476390Z,1697903361476
0.3625221252441406,1.0158987045288086,-0.2699105739593506,2023-10-21T15:49:21.496617Z,1697903361496
0.3544142246246338,0.9563570022583008,-0.2517859935760498,2023-10-21T15:49:21.519501Z,1697903361519
0.3418600559234619,0.8909063339233398,-0.23315858840942383,2023-10-21T15:49:21.537128Z,1697903361537
0.32822632789611816,0.829890251159668,-0.2163863182067871,2023-10-21T15:49:21.557514Z,1697903361557
0.315518856048584,0.7782020568847656,-0.20203757286071777,2023-10-21T15:49:21.577687Z,1697903361577
0.30384016036987305,0.7349691390991211,-0.18932795524597168,2023-10-21T15:49:21.597867Z,1697903361597
0.29192662239074707,0.6946516036987305,-0.17682957649230957,2023-10-21T15:49:21.619320Z,1697903361619
0.27718043327331543,0.6490602493286133,-0.16315484046936035,2023-10-21T15:49:21.638470Z,1697903361638
0.2580900192260742,0.5940752029418945,-0.14803171157836914,2023-10-21T15:49:21.658796Z,1697903361658
0.23250246047973633,0.5258808135986328,-0.13079524040222168,2023-10-21T15:49:21.678933Z,1697903361678
0.19838476181030273,0.4414529800415039,-0.11025285720825195,2023-10-21T15:49:21.699168Z,1697903361699
0.15552115440368652,0.34105873107910156,-0.08576679229736328,2023-10-21T15:49:21.719493Z,1697903361719
0.10572147369384766,0.22899627685546875,-0.05786561965942383,2023-10-21T15:49:21.739818Z,1697903361739
0.051758766174316406,0.1110544204711914,-0.02799057960510254,2023-10-21T15:49:21.760060Z,1697903361760
-0.004755496978759766,-0.010158538818359375,0.0025234222412109375,2023-10-21T15:49:21.780260Z,1697903361780
-0.061536550521850586,-0.13166522979736328,0.03181600570678711,2023-10-21T15:49:21.802646Z,1697903361802
-0.11426520347595215,-0.24628257751464844,0.05725729465484619,2023-10-21T15:49:21.820823Z,1697903361820
-0.1584312915802002,-0.3458099365234375,0.0767679214477539,2023-10-21T15:49:21.841138Z,1697903361841
-0.19036269187927246,-0.4225149154663086,0.08918023109436035,2023-10-21T15:49:21.861352Z,1697903361861
-0.20938611030578613,-0.47367382049560547,0.09489583969116211,2023-10-21T15:49:21.881549Z,1697903361881
-0.21671390533447266,-0.4996337890625,0.09522104263305664,2023-10-21T15:49:21.902481Z,1697903361902
-0.21526193618774414,-0.5040578842163086,0.09201204776763916,2023-10-21T15:49:21.922122Z,1697903361922
-0.20929861068725586,-0.4944181442260742,0.08778917789459229,2023-10-21T15:49:21.942447Z,1697903361942
-0.20186543464660645,-0.4761838912963867,0.0843205451965332,2023-10-21T15:49:21.962680Z,1697903361962
-0.19344615936279297,-0.4498605728149414,0.08194160461425781,2023-10-21T15:49:21.985766Z,1697903361985
-0.18321943283081055,-0.4145975112915039,0.07982242107391357,2023-10-21T15:49:22.003183Z,1697903362003
-0.17078542709350586,-0.3720216751098633,0.07685995101928711,2023-10-21T15:49:22.023516Z,1697903362023
-0.1561570167541504,-0.3247032165527344,0.07233285903930664,2023-10-21T15:49:22.043744Z,1697903362043
-0.13936805725097656,-0.2747764587402344,0.06590235233306885,2023-10-21T15:49:22.063961Z,1697903362063
-0.11869621276855469,-0.22078514099121094,0.056825876235961914,2023-10-21T15:49:22.085625Z,1697903362085
-0.09281730651855469,-0.16243648529052734,0.044695138931274414,2023-10-21T15:49:22.104537Z,1697903362104
-0.061429500579833984,-0.10121726989746094,0.029648780822753906,2023-10-21T15:49:22.124827Z,1697903362124
-0.0244598388671875,-0.03806161880493164,0.011798858642578125,2023-10-21T15:49:22.145073Z,1697903362145
0.01787710189819336,0.026363849639892578,-0.008584022521972656,2023-10-21T15:49:22.165243Z,1697903362165
0.067047119140625,0.0939340591430664,-0.03187274932861328,2023-10-21T15:49:22.185600Z,1697903362185
0.12414836883544922,0.1654062271118164,-0.05814623832702637,2023-10-21T15:49:22.205886Z,1697903362205
0.18766355514526367,0.23810386657714844,-0.08649706840515137,2023-10-21T15:49:22.226135Z,1697903362226
0.25177574157714844,0.30481624603271484,-0.11445331573486328,2023-10-21T15:49:22.246373Z,1697903362246
0.31009483337402344,0.3587040901184082,-0.13955926895141602,2023-10-21T15:49:22.268653Z,1697903362268
0.36023759841918945,0.39780235290527344,-0.1610279083251953,2023-10-21T15:49:22.286892Z,1697903362286
0.4019155502319336,0.4225602149963379,-0.17876172065734863,2023-10-21T15:49:22.307211Z,1697903362307
0.4344196319580078,0.4334883689880371,-0.19231724739074707,2023-10-21T15:49:22.327434Z,1697903362327
0.4567909240722656,0.4313035011291504,-0.20116829872131348,2023-10-21T15:49:22.347640Z,1697903362347
0.4681854248046875,0.41707706451416016,-0.20492982864379883,2023-10-21T15:49:22.368799Z,1697903362368
0.4693756103515625,0.39351749420166016,-0.20393681526184082,2023-10-21T15:49:22.388295Z,1697903362388
0.46306705474853516,0.36463403701782227,-0.1992626190185547,2023-10-21T15:49:22.408496Z,1697903362408
0.45350074768066406,0.33496522903442383,-0.1926131248474121,2023-10-21T15:49:22.428744Z,1697903362428
0.44655895233154297,0.3093881607055664,-0.18637466430664062,2023-10-21T15:49:22.452138Z,1697903362452
0.4436531066894531,0.28896522521972656,-0.18105816841125488,2023-10-21T15:49:22.469258Z,1697903362469
0.4389009475708008,0.2700624465942383,-0.17430400848388672,2023-10-21T15:49:22.489544Z,1697903362489
0.4246654510498047,0.24854707717895508,-0.16335391998291016,2023-10-21T15:49:22.509797Z,1697903362509
0.3980731964111328,0.2231121063232422,-0.1477041244506836,2023-10-21T15:49:22.529974Z,1697903362529
0.36185169219970703,0.19533634185791016,-0.12905430793762207,2023-10-21T15:49:22.552366Z,1697903362552
0.32026100158691406,0.1673736572265625,-0.10950970649719238,2023-10-21T15:49:22.570553Z,1697903362570
0.27414417266845703,0.13940858840942383,-0.0897219181060791,2023-10-21T15:49:22.590882Z,1697903362590
0.22323226928710938,0.11101198196411133,-0.06988763809204102,2023-10-21T15:49:22.611077Z,1697903362611
0.16992950439453125,0.08297491073608398,-0.05087542533874512,2023-10-21T15:49:22.631278Z,1697903362631
0.11730766296386719,0.05636310577392578,-0.03357529640197754,2023-10-21T15:49:22.651736Z,1697903362651
0.06884479522705078,0.03256702423095703,-0.018831253051757812,2023-10-21T15:49:22.671914Z,1697903362671
0.026825904846191406,0.012492656707763672,-0.007015705108642578,2023-10-21T15:49:22.692183Z,1697903362692
-0.006279945373535156,-0.0028765201568603516,0.001573801040649414,2023-10-21T15:49:22.712487Z,1697903362712
-0.028898239135742188,-0.01302647590637207,0.0069599151611328125,2023-10-21T15:49:22.735229Z,1697903362735
-0.04170799255371094,-0.018491029739379883,0.00970315933227539,2023-10-21T15:49:22.752942Z,1697903362752
-0.04696178436279297,-0.020478248596191406,0.010606169700622559,2023-10-21T15:49:22.773253Z,1697903362773
-0.04638957977294922,-0.01991868019104004,0.010238289833068848,2023-10-21T15:49:22.793496Z,1697903362793
-0.040459632873535156,-0.01713085174560547,0.00877833366394043,2023-10-21T15:49:22.813785Z,1697903362813
-0.030359268188476562,-0.012704610824584961,0.006515026092529297,2023-10-21T15:49:22.835114Z,1697903362835
-0.01833629608154297,-0.007612466812133789,0.003914833068847656,2023-10-21T15:49:22.854279Z,1697903362854
-0.0059356689453125,-0.002457141876220703,0.0012685060501098633,2023-10-21T15:49:22.874596Z,1697903362874
0.005656242370605469,0.002349853515625,-0.0012156963348388672,2023-10-21T15:49:22.894816Z,1697903362894
0.016077041625976562,0.006745338439941406,-0.0034903287887573242,2023-10-21T15:49:22.914974Z,1697903362914
0.024913787841796875,0.01061868667602539,-0.005478024482727051,2023-10-21T15:49:22.935311Z,1697903362935
0.03174114227294922,0.013812541961669922,-0.007079958915710449,2023-10-21T15:49:22.955586Z,1697903362955
0.03696250915527344,0.0164945125579834,-0.00837850570678711,2023-10-21T15:49:22.975838Z,1697903362975
0.040966033935546875,0.01880645751953125,-0.00944662094116211,2023-10-21T15:49:22.996108Z,1697903362996
0.044465065002441406,0.02102184295654297,-0.010438680648803711,2023-10-21T15:49:23.018354Z,1697903363018
0.047959327697753906,0.023349285125732422,-0.011470317840576172,2023-10-21T15:49:23.036638Z,1697903363036
0.051807403564453125,0.025939464569091797,-0.012625455856323242,2023-10-21T15:49:23.056961Z,1697903363056
0.055174827575683594,0.028350353240966797,-0.013701677322387695,2023-10-21T15:49:23.077189Z,1697903363077
0.05721282958984375,0.030090808868408203,-0.01447296142578125,2023-10-21T15:49:23.097375Z,1697903363097
0.05674457550048828,0.030466556549072266,-0.014600992202758789,2023-10-21T15:49:23.118321Z,1697903363118
0.05306720733642578,0.029030323028564453,-0.013865232467651367,2023-10-21T15:49:23.138164Z,1697903363138
0.04735755920410156,0.02636861801147461,-0.012543916702270508,2023-10-21T15:49:23.158263Z,1697903363158
0.04144477844238281,0.02347564697265625,-0.011111736297607422,2023-10-21T15:49:23.178469Z,1697903363178
0.03787422180175781,0.021816730499267578,-0.010266542434692383,2023-10-21T15:49:23.201659Z,1697903363201
0.037636756896972656,0.022049903869628906,-0.010291099548339844,2023-10-21T15:49:23.218985Z,1697903363218
0.040760040283203125,0.024297237396240234,-0.011216878890991211,2023-10-21T15:49:23.239309Z,1697903363239
0.047224998474121094,0.028666973114013672,-0.013042688369750977,2023-10-21T15:49:23.259567Z,1697903363259
0.05695819854736328,0.0352482795715332,-0.01575326919555664,2023-10-21T15:49:23.279812Z,1697903363279
0.07030963897705078,0.04438018798828125,-0.0194394588470459,2023-10-21T15:49:23.301577Z,1697903363301
0.08731746673583984,0.05623435974121094,-0.0241239070892334,2023-10-21T15:49:23.320345Z,1697903363320
0.10737752914428711,0.07054281234741211,-0.02965402603149414,2023-10-21T15:49:23.340644Z,1697903363340
0.12877655029296875,0.08620929718017578,-0.03556108474731445,2023-10-21T15:49:23.360906Z,1697903363360
0.14913368225097656,0.10155773162841797,-0.04116964340209961,2023-10-21T15:49:23.381117Z,1697903363381
0.16707706451416016,0.11549615859985352,-0.04609322547912598,2023-10-21T15:49:23.401595Z,1697903363401
0.18177461624145508,0.12732982635498047,-0.05013704299926758,2023-10-21T15:49:23.421658Z,1697903363421
0.19316816329956055,0.13690996170043945,-0.05334830284118652,2023-10-21T15:49:23.442748Z,1697903363442
0.20122194290161133,0.1440725326538086,-0.05572772026062012,2023-10-21T15:49:23.462226Z,1697903363462
0.20600509643554688,0.14873600006103516,-0.057279109954833984,2023-10-21T15:49:23.484948Z,1697903363484
0.20801687240600586,0.1512308120727539,-0.05810141563415527,2023-10-21T15:49:23.502676Z,1697903363502
0.2076435089111328,0.15183734893798828,-0.05825662612915039,2023-10-21T15:49:23.522979Z,1697903363522
0.20598697662353516,0.15134811401367188,-0.05803251266479492,2023-10-21T15:49:23.543227Z,1697903363543
0.20316505432128906,0.14985990524291992,-0.05743765830993652,2023-10-21T15:49:23.563519Z,1697903363563
0.19966506958007812,0.1477212905883789,-0.05658149719238281,2023-10-21T15:49:23.584620Z,1697903363584
0.19584035873413086,0.1452016830444336,-0.05554795265197754,2023-10-21T15:49:23.604068Z,1697903363604
0.19313335418701172,0.14330482482910156,-0.05475592613220215,2023-10-21T15:49:23.624362Z,1697903363624
0.19190692901611328,0.14231300354003906,-0.05433344841003418,2023-10-21T15:49:23.644614Z,1697903363644
0.1906418800354004,0.14121246337890625,-0.05389523506164551,2023-10-21T15:49:23.668583Z,1697903363668
0.18790912628173828,0.13907480239868164,-0.05306506156921387,2023-10-21T15:49:23.685315Z,1697903363685
0.18343305587768555,0.13575363159179688,-0.05175447463989258,2023-10-21T15:49:23.705398Z,1697903363705
0.17913293838500977,0.1325826644897461,-0.05047798156738281,2023-10-21T15:49:23.725699Z,1697903363725
0.1766223907470703,0.1307239532470703,-0.04968452453613281,2023-10-21T15:49:23.745851Z,1697903363745
0.17696237564086914,0.13095855712890625,-0.049689292907714844,2023-10-21T15:49:23.767975Z,1697903363767
0.17958879470825195,0.1329021453857422,-0.050351858139038086,2023-10-21T15:49:23.786394Z,1697903363786
0.18231630325317383,0.13496875762939453,-0.051052093505859375,2023-10-21T15:49:23.806707Z,1697903363806
0.18234014511108398,0.1351490020751953,-0.0509793758392334,2023-10-21T15:49:23.826931Z,1697903363826
0.17908716201782227,0.13304805755615234,-0.0499577522277832,2023-10-21T15:49:23.847132Z,1697903363847
0.17442893981933594,0.13001585006713867,-0.048505306243896484,2023-10-21T15:49:23.867645Z,1697903363867
0.17066144943237305,0.12768316268920898,-0.04725837707519531,2023-10-21T15:49:23.887740Z,1697903363887
0.16813087463378906,0.12627220153808594,-0.04633522033691406,2023-10-21T15:49:23.908033Z,1697903363907
0.1658186912536621,0.12506341934204102,-0.04547452926635742,2023-10-21T15:49:23.928284Z,1697903363928
0.16314315795898438,0.12364530563354492,-0.04453158378601074,2023-10-21T15:49:23.951117Z,1697903363951
0.15981483459472656,0.12179994583129883,-0.04342770576477051,2023-10-21T15:49:23.968770Z,1697903363968
0.15604114532470703,0.11967229843139648,-0.04223299026489258,2023-10-21T15:49:23.989133Z,1697903363989
0.1524200439453125,0.11770963668823242,-0.04114484786987305,2023-10-21T15:49:24.009322Z,1697903364009
0.14995145797729492,0.11665678024291992,-0.04045557975769043,2023-10-21T15:49:24.029547Z,1697903364029
0.14881086349487305,0.11662149429321289,-0.040232181549072266,2023-10-21T15:49:24.050777Z,1697903364050
0.14876365661621094,0.1174006462097168,-0.040421485900878906,2023-10-21T15:49:24.070147Z,1697903364070
0.14927244186401367,0.11858177185058594,-0.04089856147766113,2023-10-21T15:49:24.090439Z,1697903364090
0.14980220794677734,0.11974525451660156,-0.04154348373413086,2023-10-21T15:49:24.110624Z,1697903364110
0.14856529235839844,0.11949777603149414,-0.041858673095703125,2023-10-21T15:49:24.130796Z,1697903364130
0.14495229721069336,0.1172800064086914,-0.041623592376708984,2023-10-21T15:49:24.151130Z,1697903364151
0.14017295837402344,0.1139669418334961,-0.041131019592285156,2023-10-21T15:49:24.171452Z,1697903364171
0.13540363311767578,0.11046028137207031,-0.04069209098815918,2023-10-21T15:49:24.191732Z,1697903364191
0.13126754760742188,0.10727691650390625,-0.0405116081237793,2023-10-21T15:49:24.211980Z,1697903364211
0.12715816497802734,0.10403871536254883,-0.04044151306152344,2023-10-21T15:49:24.234098Z,1697903364234
0.12304162979125977,0.10080766677856445,-0.04048442840576172,2023-10-21T15:49:24.252479Z,1697903364252
0.1194462776184082,0.09806632995605469,-0.0408017635345459,2023-10-21T15:49:24.272769Z,1697903364272
0.11688852310180664,0.09627294540405273,-0.041567325592041016,2023-10-21T15:49:24.293008Z,1697903364292
0.1161351203918457,0.09610891342163086,-0.04308652877807617,2023-10-21T15:49:24.313224Z,1697903364313
0.11899948120117188,0.09905433654785156,-0.04611682891845703,2023-10-21T15:49:24.334014Z,1697903364333
0.12585878372192383,0.1054525375366211,-0.050985097885131836,2023-10-21T15:49:24.353800Z,1697903364353
0.13555335998535156,0.11439943313598633,-0.05742502212524414,2023-10-21T15:49:24.374096Z,1697903364374
0.14681673049926758,0.12486791610717773,-0.0650472640991211,2023-10-21T15:49:24.394304Z,1697903364394
0.15810060501098633,0.1355452537536621,-0.07321858406066895,2023-10-21T15:49:24.417449Z,1697903364417
0.1684737205505371,0.14548301696777344,-0.08140921592712402,2023-10-21T15:49:24.434839Z,1697903364434
0.176544189453125,0.15330839157104492,-0.08879661560058594,2023-10-21T15:49:24.455138Z,1697903364455
0.1814413070678711,0.1581125259399414,-0.09474587440490723,2023-10-21T15:49:24.475396Z,1697903364475
0.18365192413330078,0.16014623641967773,-0.09928274154663086,2023-10-21T15:49:24.495691Z,1697903364495
0.1844630241394043,0.1604151725769043,-0.10294270515441895,2023-10-21T15:49:24.517134Z,1697903364517
0.18514776229858398,0.1600489616394043,-0.10637402534484863,2023-10-21T15:49:24.536152Z,1697903364536
0.18608570098876953,0.1595163345336914,-0.10982370376586914,2023-10-21T15:49:24.556469Z,1697903364556
0.18693017959594727,0.1586446762084961,-0.11306428909301758,2023-10-21T15:49:24.576650Z,1697903364576
0.1871933937072754,0.1571192741394043,-0.11574220657348633,2023-10-21T15:49:24.596900Z,1697903364596
0.18713760375976562,0.15526103973388672,-0.11793088912963867,2023-10-21T15:49:24.617182Z,1697903364617
0.18801021575927734,0.1541757583618164,-0.12036657333374023,2023-10-21T15:49:24.637489Z,1697903364637
0.19083023071289062,0.1547718048095703,-0.12369251251220703,2023-10-21T15:49:24.657733Z,1697903364657
0.19571924209594727,0.15719270706176758,-0.12798023223876953,2023-10-21T15:49:24.677972Z,1697903364677
0.2018289566040039,0.1608285903930664,-0.13265180587768555,2023-10-21T15:49:24.700335Z,1697903364700
0.2072606086730957,0.1642894744873047,-0.13643741607666016,2023-10-21T15:49:24.718511Z,1697903364718
0.20961475372314453,0.16573429107666016,-0.13768959045410156,2023-10-21T15:49:24.738821Z,1697903364738
0.2078719139099121,0.16423416137695312,-0.13565731048583984,2023-10-21T15:49:24.759056Z,1697903364759
0.20244407653808594,0.1599712371826172,-0.13066482543945312,2023-10-21T15:49:24.779259Z,1697903364779
0.19444513320922852,0.15370988845825195,-0.12355422973632812,2023-10-21T15:49:24.800522Z,1697903364800
0.18488216400146484,0.14615917205810547,-0.11514043807983398,2023-10-21T15:49:24.819914Z,1697903364819
0.17393875122070312,0.13748884201049805,-0.10576820373535156,2023-10-21T15:49:24.840153Z,1697903364840
0.16323041915893555,0.1290121078491211,-0.09660530090332031,2023-10-21T15:49:24.860360Z,1697903364860
0.1548480987548828,0.12238359451293945,-0.0889444351196289,2023-10-21T15:49:24.883797Z,1697903364883
0.15023088455200195,0.11872673034667969,-0.08351945877075195,2023-10-21T15:49:24.900842Z,1697903364900
0.14985990524291992,0.11834859848022461,-0.08038806915283203,2023-10-21T15:49:24.921196Z,1697903364921
0.15393590927124023,0.12135696411132812,-0.07942605018615723,2023-10-21T15:49:24.941425Z,1697903364941
0.16208934783935547,0.12747621536254883,-0.08022737503051758,2023-10-21T15:49:24.961708Z,1697903364961
0.17328786849975586,0.1359272003173828,-0.08208942413330078,2023-10-21T15:49:24.983722Z,1697903364983
0.18445444107055664,0.14438390731811523,-0.08349275588989258,2023-10-21T15:49:25.002223Z,1697903365002
0.19115209579467773,0.14948081970214844,-0.0825653076171875,2023-10-21T15:49:25.022536Z,1697903365022
0.18842601776123047,0.1473526954650879,-0.07753372192382812,2023-10-21T15:49:25.042714Z,1697903365042
0.17121601104736328,0.133941650390625,-0.06693506240844727,2023-10-21T15:49:25.062940Z,1697903365062
0.13530826568603516,0.10585832595825195,-0.050096988677978516,2023-10-21T15:49:25.083517Z,1697903365083
0.0780186653137207,0.06098651885986328,-0.027277708053588867,2023-10-21T15:49:25.103555Z,1697903365103
2.1982192993164062E-4,1.7118453979492188E-4,-7.343292236328125E-5,2023-10-21T15:49:25.123946Z,1697903365123
-0.09421157836914062,-0.07329511642456055,0.029462575912475586,2023-10-21T15:49:25.144006Z,1697903365143
-0.19785261154174805,-0.15343904495239258,0.05921649932861328,2023-10-21T15:49:25.166666Z,1697903365166
-0.30198144912719727,-0.23363685607910156,0.08788275718688965,2023-10-21T15:49:25.184562Z,1697903365184
-0.3974952697753906,-0.3073573112487793,0.11471176147460938,2023-10-21T15:49:25.204872Z,1697903365204
-0.47753143310546875,-0.36995410919189453,0.13950300216674805,2023-10-21T15:49:25.225143Z,1697903365225
-0.5367040634155273,-0.4178810119628906,0.16202616691589355,2023-10-21T15:49:25.245351Z,1697903365245
-0.570746898651123,-0.4482583999633789,0.18177032470703125,2023-10-21T15:49:25.267025Z,1697903365266
-0.5750551223754883,-0.4573249816894531,0.19686079025268555,2023-10-21T15:49:25.285926Z,1697903365285
-0.545173168182373,-0.4405531883239746,0.2035367488861084,2023-10-21T15:49:25.306213Z,1697903365306
-0.48059940338134766,-0.3957362174987793,0.19725918769836426,2023-10-21T15:49:25.326417Z,1697903365326
-0.38521337509155273,-0.323760986328125,0.17402148246765137,2023-10-21T15:49:25.346604Z,1697903365346
-0.2679586410522461,-0.22990989685058594,0.1326608657836914,2023-10-21T15:49:25.366943Z,1697903365366
-0.13863134384155273,-0.12126779556274414,0.07470226287841797,2023-10-21T15:49:25.387267Z,1697903365387
-0.005303382873535156,-0.004720211029052734,0.0030896663665771484,2023-10-21T15:49:25.407511Z,1697903365407
0.1285266876220703,0.11603736877441406,-0.08052968978881836,2023-10-21T15:49:25.427843Z,1697903365427
0.260526180267334,0.23804950714111328,-0.1747598648071289,2023-10-21T15:49:25.450123Z,1697903365450
0.38776063919067383,0.35767126083374023,-0.27712059020996094,2023-10-21T15:49:25.468274Z,1697903365468
0.5056872367858887,0.4697418212890625,-0.38298559188842773,2023-10-21T15:49:25.488697Z,1697903365488
0.6101455688476562,0.5694842338562012,-0.4869256019592285,2023-10-21T15:49:25.508847Z,1697903365508
0.6997241973876953,0.6546978950500488,-0.5850620269775391,2023-10-21T15:49:25.529014Z,1697903365528
0.7757611274719238,0.7260036468505859,-0.6760087013244629,2023-10-21T15:49:25.549937Z,1697903365549
0.8418922424316406,0.7865123748779297,-0.7609329223632812,2023-10-21T15:49:25.569621Z,1697903365569
0.9028964042663574,0.8407316207885742,-0.842430591583252,2023-10-21T15:49:25.589909Z,1697903365589
0.9639983177185059,0.8935332298278809,-0.9233736991882324,2023-10-21T15:49:25.610113Z,1697903365610
1.0286555290222168,0.9477396011352539,-1.0045385360717773,2023-10-21T15:49:25.633267Z,1697903365633
1.0987296104431152,1.004364013671875,-1.084669589996338,2023-10-21T15:49:25.650645Z,1697903365650
1.1731352806091309,1.061610221862793,-1.1598467826843262,2023-10-21T15:49:25.670955Z,1697903365670
1.2494382858276367,1.1163334846496582,-1.2257132530212402,2023-10-21T15:49:25.691197Z,1697903365691
1.3245458602905273,1.1647758483886719,-1.2788758277893066,2023-10-21T15:49:25.711393Z,1697903365711
1.3971047401428223,1.2050423622131348,-1.3188652992248535,2023-10-21T15:49:25.733156Z,1697903365733
1.4663853645324707,1.2360553741455078,-1.3459177017211914,2023-10-21T15:49:25.751978Z,1697903365751
1.5291876792907715,1.255208969116211,-1.3578486442565918,2023-10-21T15:49:25.772268Z,1697903365772
1.577744960784912,1.2563562393188477,-1.349022388458252,2023-10-21T15:49:25.792429Z,1697903365792
1.6008977890014648,1.2312431335449219,-1.3126564025878906,2023-10-21T15:49:25.812683Z,1697903365812
1.5880327224731445,1.1734166145324707,-1.2448439598083496,2023-10-21T15:49:25.833009Z,1697903365832
1.5312514305114746,1.080108642578125,-1.145777702331543,2023-10-21T15:49:25.853306Z,1697903365853
1.4274992942810059,0.9538965225219727,-1.0195846557617188,2023-10-21T15:49:25.873578Z,1697903365873
1.2782740592956543,0.8021011352539062,-0.8723568916320801,2023-10-21T15:49:25.893773Z,1697903365893
1.089029312133789,0.6356773376464844,-0.7110095024108887,2023-10-21T15:49:25.916354Z,1697903365916
0.8652420043945312,0.4652595520019531,-0.5410332679748535,2023-10-21T15:49:25.934347Z,1697903365934
0.6131372451782227,0.3006434440612793,-0.36764955520629883,2023-10-21T15:49:25.954648Z,1697903365954
0.3435516357421875,0.1518547534942627,-0.19802141189575195,2023-10-21T15:49:25.974910Z,1697903365974
0.07652664184570312,0.030097484588623047,-0.042611122131347656,2023-10-21T15:49:25.995051Z,1697903365995
-0.16118144989013672,-0.05571770668029785,0.08742666244506836,2023-10-21T15:49:26.016277Z,1697903366016
-0.3430013656616211,-0.10353922843933105,0.18329954147338867,2023-10-21T15:49:26.035718Z,1697903366035
-0.4522271156311035,-0.11973810195922852,0.24105358123779297,2023-10-21T15:49:26.055965Z,1697903366055
-0.48398447036743164,-0.11448049545288086,0.2603492736816406,2023-10-21T15:49:26.076160Z,1697903366076
-0.4442281723022461,-0.09675467014312744,0.24378299713134766,2023-10-21T15:49:26.099536Z,1697903366099
-0.34584522247314453,-0.07194149494171143,0.1954364776611328,2023-10-21T15:49:26.116730Z,1697903366116
-0.20628738403320312,-0.042469143867492676,0.12091970443725586,2023-10-21T15:49:26.137012Z,1697903366136
-0.04501533508300781,-0.009425997734069824,0.027498245239257812,2023-10-21T15:49:26.157266Z,1697903366157
0.11704730987548828,0.02532827854156494,-0.07462453842163086,2023-10-21T15:49:26.177488Z,1697903366177
0.259307861328125,0.05832946300506592,-0.17229604721069336,2023-10-21T15:49:26.199431Z,1697903366199
0.36509037017822266,0.08515703678131104,-0.25182008743286133,2023-10-21T15:49:26.218020Z,1697903366217
0.4217371940612793,0.1009821891784668,-0.300386905670166,2023-10-21T15:49:26.238304Z,1697903366238
0.42436790466308594,0.10281622409820557,-0.31055736541748047,2023-10-21T15:49:26.258527Z,1697903366258
0.3769073486328125,0.09110414981842041,-0.2821826934814453,2023-10-21T15:49:26.278794Z,1697903366278
0.2934865951538086,0.07017958164215088,-0.22382020950317383,2023-10-21T15:49:26.299328Z,1697903366299
0.19569873809814453,0.0463252067565918,-0.15127229690551758,2023-10-21T15:49:26.319349Z,1697903366319
0.10682487487792969,0.025287866592407227,-0.08320426940917969,2023-10-21T15:49:26.339650Z,1697903366339
0.04500102996826172,0.010851263999938965,-0.03509521484375,2023-10-21T15:49:26.359904Z,1697903366359
0.02094888687133789,0.005264401435852051,-0.016264915466308594,2023-10-21T15:49:26.382653Z,1697903366382
0.03891754150390625,0.010410308837890625,-0.029928207397460938,2023-10-21T15:49:26.400410Z,1697903366400
0.1003561019897461,0.029024839401245117,-0.0761260986328125,2023-10-21T15:49:26.420713Z,1697903366420
0.20629215240478516,0.06503438949584961,-0.15376758575439453,2023-10-21T15:49:26.440948Z,1697903366440
0.35535430908203125,0.12222528457641602,-0.25928592681884766,2023-10-21T15:49:26.461149Z,1697903366461
0.5397138595581055,0.20173168182373047,-0.38397979736328125,2023-10-21T15:49:26.482590Z,1697903366482
0.7429556846618652,0.2996640205383301,-0.5130658149719238,2023-10-21T15:49:26.501781Z,1697903366501
0.9423952102661133,0.4062631130218506,-0.6283373832702637,2023-10-21T15:49:26.522005Z,1697903366521
1.1156177520751953,0.5079572200775146,-0.713923454284668,2023-10-21T15:49:26.542204Z,1697903366542
1.2488641738891602,0.5933694839477539,-0.7625036239624023,2023-10-21T15:49:26.562416Z,1697903366562
1.3392648696899414,0.6573412418365479,-0.7752861976623535,2023-10-21T15:49:26.582745Z,1697903366582
1.3940982818603516,0.7018320560455322,-0.7591619491577148,2023-10-21T15:49:26.603048Z,1697903366603
1.4256820678710938,0.7326560020446777,-0.7228446006774902,2023-10-21T15:49:26.623305Z,1697903366623
1.4443864822387695,0.7559456825256348,-0.6731796264648438,2023-10-21T15:49:26.643521Z,1697903366643
1.462620735168457,0.7814908027648926,-0.6173462867736816,2023-10-21T15:49:26.665871Z,1697903366665
1.4961118698120117,0.8245487213134766,-0.5632519721984863,2023-10-21T15:49:26.684073Z,1697903366684
1.5608711242675781,0.9022502899169922,-0.5162360668182373,2023-10-21T15:49:26.704395Z,1697903366704
1.6742286682128906,1.0353741645812988,-0.47835874557495117,2023-10-21T15:49:26.724649Z,1697903366724
1.8517484664916992,1.247328281402588,-0.44728970527648926,2023-10-21T15:49:26.744870Z,1697903366744
2.1056671142578125,1.5649943351745605,-0.418057918548584,2023-10-21T15:49:26.765704Z,1697903366765
2.3653459548950195,1.9109745025634766,-0.3793783187866211,2023-10-21T15:49:26.785458Z,1697903366785
2.686093330383301,2.3770837783813477,-0.35549914836883545,2023-10-21T15:49:26.805719Z,1697903366805
3.0421810150146484,2.958674430847168,-0.3632831573486328,2023-10-21T15:49:26.825935Z,1697903366825
3.415464401245117,3.6475696563720703,-0.4119105339050293,2023-10-21T15:49:26.849188Z,1697903366849
3.7746477127075195,4.423397064208984,-0.5000154972076416,2023-10-21T15:49:26.866424Z,1697903366866
4.098761081695557,5.263772010803223,-0.6315685510635376,2023-10-21T15:49:26.886750Z,1697903366886
4.375675201416016,6.1516923904418945,-0.8115352392196655,2023-10-21T15:49:26.906997Z,1697903366906
4.589037895202637,7.059693336486816,-1.0665733814239502,2023-10-21T15:49:26.927198Z,1697903366927
4.734475612640381,7.965998649597168,-1.395545482635498,2023-10-21T15:49:26.948850Z,1697903366948
4.790379524230957,8.838118553161621,-1.787860631942749,2023-10-21T15:49:26.967797Z,1697903366967
4.800914764404297,9.811304092407227,-2.2349348068237305,2023-10-21T15:49:26.988076Z,1697903366988
4.741104602813721,10.697386741638184,-2.6881587505340576,2023-10-21T15:49:27.008289Z,1697903367008
4.619171142578125,11.489206314086914,-3.1055233478546143,2023-10-21T15:49:27.028500Z,1697903367028
4.4374871253967285,12.194981575012207,-3.480339527130127,2023-10-21T15:49:27.048870Z,1697903367048
4.212978363037109,12.825786590576172,-3.828101634979248,2023-10-21T15:49:27.069149Z,1697903367069
3.9620370864868164,13.370157241821289,-4.150312423706055,2023-10-21T15:49:27.089374Z,1697903367089
3.7027063369750977,13.806656837463379,-4.447810173034668,2023-10-21T15:49:27.109601Z,1697903367109
3.4529242515563965,14.128314971923828,-4.69515323638916,2023-10-21T15:49:27.132113Z,1697903367132
3.2180910110473633,14.34496021270752,-4.911073684692383,2023-10-21T15:49:27.150150Z,1697903367150
3.017655849456787,14.473051071166992,-5.115954399108887,2023-10-21T15:49:27.170462Z,1697903367170
2.850743293762207,14.524859428405762,-5.317950248718262,2023-10-21T15:49:27.190671Z,1697903367190
2.714838743209839,14.510299682617188,-5.526055335998535,2023-10-21T15:49:27.210881Z,1697903367210
2.6137068271636963,14.424657821655273,-5.751855850219727,2023-10-21T15:49:27.232038Z,1697903367232
2.5456137657165527,14.262384414672852,-6.001857757568359,2023-10-21T15:49:27.251498Z,1697903367251
2.508814573287964,14.012742042541504,-6.271189212799072,2023-10-21T15:49:27.271805Z,1697903367271
2.51481032371521,13.840069770812988,-6.555929183959961,2023-10-21T15:49:27.291976Z,1697903367291
2.5451111793518066,13.565521240234375,-6.7870612144470215,2023-10-21T15:49:27.315140Z,1697903367315
2.5903735160827637,13.188997268676758,-6.919634819030762,2023-10-21T15:49:27.332490Z,1697903367332
2.6333231925964355,12.718133926391602,-6.946573257446289,2023-10-21T15:49:27.352820Z,1697903367352
2.6784262657165527,12.168432235717773,-6.883612632751465,2023-10-21T15:49:27.373073Z,1697903367373
2.725477933883667,11.556925773620605,-6.73453950881958,2023-10-21T15:49:27.393324Z,1697903367393
2.7716548442840576,10.891845703125,-6.500373840332031,2023-10-21T15:49:27.415269Z,1697903367415
2.818683385848999,10.18470573425293,-6.15357780456543,2023-10-21T15:49:27.433907Z,1697903367433
2.8625261783599854,9.454164505004883,-5.713082313537598,2023-10-21T15:49:27.454150Z,1697903367454
2.916410446166992,8.731578826904297,-5.209041595458984,2023-10-21T15:49:27.474397Z,1697903367474
2.9447262287139893,7.901860237121582,-4.648321151733398,2023-10-21T15:49:27.494680Z,1697903367494
2.9585776329040527,7.158809185028076,-4.116714954376221,2023-10-21T15:49:27.515100Z,1697903367515
2.9685304164886475,6.517841339111328,-3.658694267272949,2023-10-21T15:49:27.535181Z,1697903367535
2.990090847015381,5.977202415466309,-3.277815818786621,2023-10-21T15:49:27.555484Z,1697903367555
3.022249698638916,5.52495002746582,-2.955605983734131,2023-10-21T15:49:27.575671Z,1697903367575
3.063199996948242,5.162166595458984,-2.6863255500793457,2023-10-21T15:49:27.598530Z,1697903367598
3.1067609786987305,4.890534400939941,-2.4629647731781006,2023-10-21T15:49:27.616181Z,1697903367616
3.144512176513672,4.703301429748535,-2.2959537506103516,2023-10-21T15:49:27.636523Z,1697903367636
3.1712470054626465,4.581426620483398,-2.166536808013916,2023-10-21T15:49:27.656769Z,1697903367656
3.1669535636901855,4.494414329528809,-2.054908514022827,2023-10-21T15:49:27.676987Z,1697903367676
3.130443572998047,4.414065361022949,-1.9514081478118896,2023-10-21T15:49:27.698305Z,1697903367698
3.063584327697754,4.314957618713379,-1.8471474647521973,2023-10-21T15:49:27.717598Z,1697903367717
2.9638266563415527,4.183503150939941,-1.7329041957855225,2023-10-21T15:49:27.737842Z,1697903367737
2.8339920043945312,4.020337104797363,-1.6057710647583008,2023-10-21T15:49:27.758063Z,1697903367758
2.6747522354125977,3.8321566581726074,-1.4665515422821045,2023-10-21T15:49:27.778255Z,1697903367778
2.4858627319335938,3.6196541786193848,-1.3174748420715332,2023-10-21T15:49:27.798571Z,1697903367798
2.2724266052246094,3.3833932876586914,-1.1626880168914795,2023-10-21T15:49:27.818861Z,1697903367818
2.0436487197875977,3.1271486282348633,-1.0080480575561523,2023-10-21T15:49:27.839104Z,1697903367839
1.8105053901672363,2.858525276184082,-0.8601696491241455,2023-10-21T15:49:27.859389Z,1697903367859
1.583322525024414,2.5872488021850586,-0.724804162979126,2023-10-21T15:49:27.881713Z,1697903367881
1.3737859725952148,2.328810691833496,-0.6067910194396973,2023-10-21T15:49:27.900041Z,1697903367900
1.1916584968566895,2.1007213592529297,-0.5094408988952637,2023-10-21T15:49:27.920251Z,1697903367920
1.040511131286621,1.9136276245117188,-0.4329569339752197,2023-10-21T15:49:27.940485Z,1697903367940
0.9177408218383789,1.767878532409668,-0.3747744560241699,2023-10-21T15:49:27.960702Z,1697903367960
0.8198380470275879,1.659531593322754,-0.3319580554962158,2023-10-21T15:49:27.981597Z,1697903367981
0.7445025444030762,1.584946632385254,-0.3020378351211548,2023-10-21T15:49:28.001254Z,1697903368001
0.6900696754455566,1.542083740234375,-0.28308939933776855,2023-10-21T15:49:28.021591Z,1697903368021
0.6526699066162109,1.5249547958374023,-0.27260303497314453,2023-10-21T15:49:28.041786Z,1697903368041
0.6253869533538818,1.5202388763427734,-0.26696765422821045,2023-10-21T15:49:28.064773Z,1697903368064
0.6007347106933594,1.511052131652832,-0.2624450922012329,2023-10-21T15:49:28.082287Z,1697903368082
0.5724384784698486,1.4810943603515625,-0.2558544874191284,2023-10-21T15:49:28.102619Z,1697903368102
0.5374395847320557,1.4199790954589844,-0.24548542499542236,2023-10-21T15:49:28.122855Z,1697903368122
0.49521517753601074,1.3235454559326172,-0.23076438903808594,2023-10-21T15:49:28.143089Z,1697903368143
0.44693541526794434,1.1944618225097656,-0.21204900741577148,2023-10-21T15:49:28.164697Z,1697903368164
0.39358019828796387,1.0390491485595703,-0.18987107276916504,2023-10-21T15:49:28.183650Z,1697903368183
0.33600330352783203,0.8664283752441406,-0.16495168209075928,2023-10-21T15:49:28.203952Z,1697903368203
0.27524280548095703,0.6871614456176758,-0.13803315162658691,2023-10-21T15:49:28.224155Z,1697903368224
0.213517427444458,0.5128726959228516,-0.1100921630859375,2023-10-21T15:49:28.244331Z,1697903368244
0.15320801734924316,0.35249805450439453,-0.08179664611816406,2023-10-21T15:49:28.264728Z,1697903368264
0.09693026542663574,0.21289348602294922,-0.05387115478515625,2023-10-21T15:49:28.284963Z,1697903368284
0.04753303527832031,0.09938812255859375,-0.027572154998779297,2023-10-21T15:49:28.305198Z,1697903368305
0.008031368255615234,0.015966415405273438,-0.004865407943725586,2023-10-21T15:49:28.325477Z,1697903368325
-0.019105911254882812,-0.03614997863769531,0.012080192565917969,2023-10-21T15:49:28.347766Z,1697903368347
-0.033658504486083984,-0.060769081115722656,0.022170066833496094,2023-10-21T15:49:28.365977Z,1697903368365
-0.03802490234375,-0.0656743049621582,0.02599048614501953,2023-10-21T15:49:28.386287Z,1697903368386
-0.036379337310791016,-0.060141563415527344,0.025634050369262695,2023-10-21T15:49:28.406485Z,1697903368406
-0.031958580017089844,-0.050455570220947266,0.02298593521118164,2023-10-21T15:49:28.426723Z,1697903368426
-0.025667190551757812,-0.03856468200683594,0.01863884925842285,2023-10-21T15:49:28.447852Z,1697903368447
-0.015393257141113281,-0.021934986114501953,0.011162757873535156,2023-10-21T15:49:28.467345Z,1697903368467
9.756088256835938E-4,0.001316070556640625,-6.992816925048828E-4,2023-10-21T15:49:28.487723Z,1697903368487
0.023054122924804688,0.029449939727783203,-0.016243934631347656,2023-10-21T15:49:28.507832Z,1697903368507
0.04769086837768555,0.05780458450317383,-0.03284478187561035,2023-10-21T15:49:28.531162Z,1697903368531
0.07261466979980469,0.08364391326904297,-0.04863882064819336,2023-10-21T15:49:28.548348Z,1697903368548
0.09775972366333008,0.10722208023071289,-0.06336402893066406,2023-10-21T15:49:28.568662Z,1697903368568
0.12503671646118164,0.13101911544799805,-0.07808518409729004,2023-10-21T15:49:28.588944Z,1697903368588
0.15642881393432617,0.15757083892822266,-0.09394502639770508,2023-10-21T15:49:28.609220Z,1697903368609
0.19208240509033203,0.18765687942504883,-0.11099648475646973,2023-10-21T15:49:28.631067Z,1697903368631
0.2313699722290039,0.2213611602783203,-0.12889671325683594,2023-10-21T15:49:28.649643Z,1697903368649
0.27208757400512695,0.25725603103637695,-0.1465144157409668,2023-10-21T15:49:28.669950Z,1697903368669
0.31230926513671875,0.2939887046813965,-0.16291499137878418,2023-10-21T15:49:28.690214Z,1697903368690
0.3512578010559082,0.33085155487060547,-0.17758846282958984,2023-10-21T15:49:28.710420Z,1697903368710
0.388974666595459,0.3675532341003418,-0.19037604331970215,2023-10-21T15:49:28.730980Z,1697903368730
0.42444705963134766,0.40260744094848633,-0.20067787170410156,2023-10-21T15:49:28.750984Z,1697903368750
0.45737266540527344,0.4351806640625,-0.20851707458496094,2023-10-21T15:49:28.771237Z,1697903368771
0.487210750579834,0.46417999267578125,-0.21402812004089355,2023-10-21T15:49:28.791504Z,1697903368791
0.5118069648742676,0.48699426651000977,-0.2166121006011963,2023-10-21T15:49:28.814397Z,1697903368814
0.5272598266601562,0.49919700622558594,-0.21491575241088867,2023-10-21T15:49:28.832031Z,1697903368831
0.529512882232666,0.4962482452392578,-0.20766448974609375,2023-10-21T15:49:28.852350Z,1697903368852
0.5154905319213867,0.47561216354370117,-0.19426608085632324,2023-10-21T15:49:28.872553Z,1697903368872
0.483644962310791,0.43736982345581055,-0.17505550384521484,2023-10-21T15:49:28.892800Z,1697903368892
0.4328174591064453,0.3825960159301758,-0.15067386627197266,2023-10-21T15:49:28.914228Z,1697903368914
0.36287784576416016,0.313077449798584,-0.12191128730773926,2023-10-21T15:49:28.933357Z,1697903368933
0.2755465507507324,0.2316431999206543,-0.08976292610168457,2023-10-21T15:49:28.953658Z,1697903368953
0.17276763916015625,0.14122581481933594,-0.05488014221191406,2023-10-21T15:49:28.973875Z,1697903368973
0.05823993682861328,0.04620027542114258,-0.01813960075378418,2023-10-21T15:49:28.994067Z,1697903368994
-0.05984926223754883,-0.04597949981689453,0.01836705207824707,2023-10-21T15:49:29.014417Z,1697903369014
-0.1710186004638672,-0.12707757949829102,0.05203843116760254,2023-10-21T15:49:29.034714Z,1697903369034
-0.26647233963012695,-0.19164752960205078,0.08109259605407715,2023-10-21T15:49:29.054976Z,1697903369054
-0.33836936950683594,-0.2360234260559082,0.10412144660949707,2023-10-21T15:49:29.075197Z,1697903369075
-0.38075685501098633,-0.2581448554992676,0.11984539031982422,2023-10-21T15:49:29.097594Z,1697903369097
-0.38800907135009766,-0.25606346130371094,0.12615966796875,2023-10-21T15:49:29.115814Z,1697903369115
-0.3590831756591797,-0.23100852966308594,0.12155604362487793,2023-10-21T15:49:29.135977Z,1697903369135
-0.2994537353515625,-0.1883549690246582,0.10615897178649902,2023-10-21T15:49:29.156180Z,1697903369156
-0.2169055938720703,-0.13391780853271484,0.0808107852935791,2023-10-21T15:49:29.176445Z,1697903369176
-0.11941003799438477,-0.07264089584350586,0.04681134223937988,2023-10-21T15:49:29.197543Z,1697903369197
-0.01531839370727539,-0.009214401245117188,0.006319522857666016,2023-10-21T15:49:29.216994Z,1697903369216
0.0870976448059082,0.05199003219604492,-0.03781557083129883,2023-10-21T15:49:29.237225Z,1697903369237
0.1801457405090332,0.10706090927124023,-0.08221650123596191,2023-10-21T15:49:29.257475Z,1697903369257
0.25684165954589844,0.15249156951904297,-0.12303829193115234,2023-10-21T15:49:29.280718Z,1697903369280
0.31229400634765625,0.18593358993530273,-0.15674448013305664,2023-10-21T15:49:29.298042Z,1697903369298
0.345001220703125,0.20685386657714844,-0.1811528205871582,2023-10-21T15:49:29.318272Z,1697903369318
0.35883283615112305,0.2176194190979004,-0.19686651229858398,2023-10-21T15:49:29.338559Z,1697903369338
0.3608522415161133,0.22232580184936523,-0.2066650390625,2023-10-21T15:49:29.358860Z,1697903369358
0.35726213455200195,0.2245197296142578,-0.2134695053100586,2023-10-21T15:49:29.380739Z,1697903369380
0.3514561653137207,0.22601032257080078,-0.21902132034301758,2023-10-21T15:49:29.399332Z,1697903369399
0.34352540969848633,0.22661542892456055,-0.22319793701171875,2023-10-21T15:49:29.419588Z,1697903369419
0.3323988914489746,0.2254624366760254,-0.22508811950683594,2023-10-21T15:49:29.439908Z,1697903369439
0.3187432289123535,0.22286224365234375,-0.22492122650146484,2023-10-21T15:49:29.460097Z,1697903369460
0.3059267997741699,0.22113943099975586,-0.22502565383911133,2023-10-21T15:49:29.480412Z,1697903369480
0.2987351417541504,0.22374391555786133,-0.22909832000732422,2023-10-21T15:49:29.500659Z,1697903369500
0.29909372329711914,0.2324986457824707,-0.23915958404541016,2023-10-21T15:49:29.521004Z,1697903369520
0.30420732498168945,0.2457590103149414,-0.25352954864501953,2023-10-21T15:49:29.541239Z,1697903369541
0.30975914001464844,0.26033830642700195,-0.2688126564025879,2023-10-21T15:49:29.563650Z,1697903369563
0.31243181228637695,0.27348804473876953,-0.28195762634277344,2023-10-21T15:49:29.581749Z,1697903369581
0.31209230422973633,0.284945011138916,-0.2924051284790039,2023-10-21T15:49:29.601990Z,1697903369601
0.3113827705383301,0.29686927795410156,-0.30210351943969727,2023-10-21T15:49:29.622299Z,1697903369622
0.31424999237060547,0.31270456314086914,-0.31419944763183594,2023-10-21T15:49:29.642502Z,1697903369642
0.32401037216186523,0.33542728424072266,-0.3312540054321289,2023-10-21T15:49:29.663724Z,1697903369663
0.34161996841430664,0.3657040596008301,-0.35335683822631836,2023-10-21T15:49:29.683091Z,1697903369683
0.36782073974609375,0.40395069122314453,-0.38037633895874023,2023-10-21T15:49:29.703309Z,1697903369703
0.40459632873535156,0.45158863067626953,-0.41327714920043945,2023-10-21T15:49:29.723569Z,1697903369723
0.4537482261657715,0.5095524787902832,-0.4525766372680664,2023-10-21T15:49:29.747159Z,1697903369747
0.5164337158203125,0.5774936676025391,-0.4977583885192871,2023-10-21T15:49:29.764107Z,1697903369764
0.591339111328125,0.6521310806274414,-0.5459694862365723,2023-10-21T15:49:29.784382Z,1697903369784
0.6747946739196777,0.7274980545043945,-0.5927929878234863,2023-10-21T15:49:29.804637Z,1697903369804
0.7606005668640137,0.7954263687133789,-0.6330766677856445,2023-10-21T15:49:29.824885Z,1697903369824
0.8383574485778809,0.8446660041809082,-0.660120964050293,2023-10-21T15:49:29.847274Z,1697903369847
0.895695686340332,0.8639960289001465,-0.6674895286560059,2023-10-21T15:49:29.865386Z,1697903369865
0.922727108001709,0.8470525741577148,-0.6518111228942871,2023-10-21T15:49:29.885732Z,1697903369885
0.9122719764709473,0.7920994758605957,-0.6119656562805176,2023-10-21T15:49:29.905936Z,1697903369905
0.8609485626220703,0.7021808624267578,-0.5493936538696289,2023-10-21T15:49:29.926205Z,1697903369926
0.7726616859436035,0.5871391296386719,-0.47010135650634766,2023-10-21T15:49:29.946819Z,1697903369946
0.6587600708007812,0.462191104888916,-0.38377952575683594,2023-10-21T15:49:29.966754Z,1697903369966
0.5396385192871094,0.3461885452270508,-0.30309629440307617,2023-10-21T15:49:29.987062Z,1697903369987
0.4441385269165039,0.25817298889160156,-0.24283266067504883,2023-10-21T15:49:30.007277Z,1697903370007
0.40911388397216797,0.21439170837402344,-0.2201075553894043,2023-10-21T15:49:30.030081Z,1697903370030
0.4656229019165039,0.22045207023620605,-0.2493753433227539,2023-10-21T15:49:30.047824Z,1697903370047
0.6206226348876953,0.2686898708343506,-0.3351783752441406,2023-10-21T15:49:30.068069Z,1697903370068
0.8548870086669922,0.34505701065063477,-0.4716801643371582,2023-10-21T15:49:30.088293Z,1697903370088
1.1370306015014648,0.4375264644622803,-0.6480469703674316,2023-10-21T15:49:30.108561Z,1697903370108
1.4419841766357422,0.5405004024505615,-0.8546438217163086,2023-10-21T15:49:30.129974Z,1697903370129
1.7460274696350098,0.6492233276367188,-1.0785627365112305,2023-10-21T15:49:30.149126Z,1697903370149
2.020427703857422,0.7558591365814209,-1.3000893592834473,2023-10-21T15:49:30.169383Z,1697903370169
2.233309745788574,0.8495132923126221,-1.4951329231262207,2023-10-21T15:49:30.189646Z,1697903370189
2.3515701293945312,0.9158158302307129,-1.6358952522277832,2023-10-21T15:49:30.213482Z,1697903370213
2.3468384742736816,0.9380366802215576,-1.6963839530944824,2023-10-21T15:49:30.230576Z,1697903370230
2.2082390785217285,0.9054319858551025,-1.6612091064453125,2023-10-21T15:49:30.250872Z,1697903370250
1.953171730041504,0.8200986385345459,-1.5324831008911133,2023-10-21T15:49:30.271115Z,1697903370271
1.6200165748596191,0.6960101127624512,-1.3280048370361328,2023-10-21T15:49:30.291375Z,1697903370291
1.2529230117797852,0.5518157482147217,-1.0737786293029785,2023-10-21T15:49:30.313328Z,1697903370313
0.8879046440124512,0.40327930450439453,-0.7960138320922852,2023-10-21T15:49:30.331914Z,1697903370331
0.5602493286132812,0.2654883861541748,-0.5257525444030762,2023-10-21T15:49:30.352199Z,1697903370352
0.3045344352722168,0.15303659439086914,-0.29898786544799805,2023-10-21T15:49:30.372435Z,1697903370372
0.1459059715270996,0.07907629013061523,-0.14934778213500977,2023-10-21T15:49:30.392684Z,1697903370392
0.09708070755004883,0.05752706527709961,-0.10293865203857422,2023-10-21T15:49:30.413713Z,1697903370413
0.15581226348876953,0.10176372528076172,-0.1696605682373047,2023-10-21T15:49:30.433238Z,1697903370433
0.3082127571105957,0.22193622589111328,-0.3409914970397949,2023-10-21T15:49:30.453483Z,1697903370453
0.5304622650146484,0.41793107986450195,-0.5892081260681152,2023-10-21T15:49:30.473765Z,1697903370473
0.7927761077880859,0.6749277114868164,-0.8740720748901367,2023-10-21T15:49:30.496645Z,1697903370496
1.060384750366211,0.962277889251709,-1.1502742767333984,2023-10-21T15:49:30.514272Z,1697903370514
1.2923431396484375,1.2342543601989746,-1.3727350234985352,2023-10-21T15:49:30.534553Z,1697903370534
1.4494633674621582,1.4407978057861328,-1.5047645568847656,2023-10-21T15:49:30.554844Z,1697903370554
1.5084552764892578,1.5431265830993652,-1.5265145301818848,2023-10-21T15:49:30.575150Z,1697903370575
1.465742588043213,1.523949146270752,-1.4381475448608398,2023-10-21T15:49:30.596336Z,1697903370596
1.3289666175842285,1.3839364051818848,-1.2537384033203125,2023-10-21T15:49:30.615682Z,1697903370615
1.1033568382263184,1.132237434387207,-0.9922466278076172,2023-10-21T15:49:30.635824Z,1697903370635
0.7947959899902344,0.7898769378662109,-0.6767992973327637,2023-10-21T15:49:30.656135Z,1697903370656
0.4179997444152832,0.3947477340698242,-0.33562612533569336,2023-10-21T15:49:30.679652Z,1697903370679
-6.756782531738281E-4,-5.927085876464844E-4,5.106925964355469E-4,2023-10-21T15:49:30.696872Z,1697903370696
-0.4194350242614746,-0.33290672302246094,0.29849958419799805,2023-10-21T15:49:30.716907Z,1697903370716
-0.7795796394348145,-0.5433840751647949,0.5251693725585938,2023-10-21T15:49:30.737183Z,1697903370737
-1.0149803161621094,-0.6047177314758301,0.6532769203186035,2023-10-21T15:49:30.757409Z,1697903370757
-1.0775666236877441,-0.539419412612915,0.672238826751709,2023-10-21T15:49:30.779560Z,1697903370779
-0.9567160606384277,-0.40055227279663086,0.5884299278259277,2023-10-21T15:49:30.797959Z,1697903370797
-0.6810827255249023,-0.239912748336792,0.41996049880981445,2023-10-21T15:49:30.818223Z,1697903370818
-0.2925529479980469,-0.08771967887878418,0.1829209327697754,2023-10-21T15:49:30.838483Z,1697903370838
0.15823841094970703,0.04088592529296875,-0.1008005142211914,2023-10-21T15:49:30.858720Z,1697903370858
0.6200637817382812,0.13912737369537354,-0.4023919105529785,2023-10-21T15:49:30.879484Z,1697903370879
1.0476188659667969,0.20394134521484375,-0.6912131309509277,2023-10-21T15:49:30.899300Z,1697903370899
1.4032306671142578,0.23443162441253662,-0.9387087821960449,2023-10-21T15:49:30.919527Z,1697903370919
1.6632184982299805,0.23301494121551514,-1.1248021125793457,2023-10-21T15:49:30.940101Z,1697903370940
1.8128461837768555,0.20427334308624268,-1.2362256050109863,2023-10-21T15:49:30.962184Z,1697903370962
1.847208023071289,0.15558099746704102,-1.2680139541625977,2023-10-21T15:49:30.980333Z,1697903370980
1.7703065872192383,0.09670883417129517,-1.2220478057861328,2023-10-21T15:49:31.000557Z,1697903371000
1.5977411270141602,0.039712950587272644,-1.1077098846435547,2023-10-21T15:49:31.020853Z,1697903371020
1.3516511917114258,-0.00419868528842926,-0.9396038055419922,2023-10-21T15:49:31.041137Z,1697903371041
1.0609054565429688,-0.02768227458000183,-0.7382845878601074,2023-10-21T15:49:31.062653Z,1697903371062
0.7488241195678711,-0.02971714735031128,-0.5211129188537598,2023-10-21T15:49:31.081701Z,1697903371081
0.4318675994873047,-0.016431540250778198,-0.30024003982543945,2023-10-21T15:49:31.101960Z,1697903371101
0.1256570816040039,-0.0019075796008110046,-0.08716821670532227,2023-10-21T15:49:31.122209Z,1697903371122
-0.14675426483154297,-0.0050820112228393555,0.10141706466674805,2023-10-21T15:49:31.142393Z,1697903371142
-0.3396453857421875,-0.038854360580444336,0.23360252380371094,2023-10-21T15:49:31.162817Z,1697903371162
-0.39441633224487305,-0.08828353881835938,0.2701268196105957,2023-10-21T15:49:31.182934Z,1697903371182
-0.2605881690979004,-0.09366536140441895,0.17812776565551758,2023-10-21T15:49:31.203249Z,1697903371203
0.05582571029663086,0.028830528259277344,-0.038177490234375,2023-10-21T15:49:31.223464Z,1697903371223
0.5030288696289062,0.34838342666625977,-0.34589147567749023,2023-10-21T15:49:31.245891Z,1697903371245
1.027073860168457,0.9069881439208984,-0.7137198448181152,2023-10-21T15:49:31.264051Z,1697903371264
1.5806260108947754,1.7051711082458496,-1.1131787300109863,2023-10-21T15:49:31.284278Z,1697903371284
2.1315698623657227,2.70072078704834,-1.5122489929199219,2023-10-21T15:49:31.304536Z,1697903371304
2.6474061012268066,3.821730613708496,-1.871126413345337,2023-10-21T15:49:31.324856Z,1697903371324
3.0942912101745605,5.002997875213623,-2.162733316421509,2023-10-21T15:49:31.346112Z,1697903371346
3.4650564193725586,6.208725929260254,-2.3867692947387695,2023-10-21T15:49:31.365389Z,1697903371365
3.752101421356201,7.409416198730469,-2.5553646087646484,2023-10-21T15:49:31.385612Z,1697903371385
3.97019100189209,8.584686279296875,-2.67333722114563,2023-10-21T15:49:31.405841Z,1697903371405
4.120440483093262,9.712545394897461,-2.748936891555786,2023-10-21T15:49:31.429201Z,1697903371429
4.227121353149414,10.779687881469727,-2.7939023971557617,2023-10-21T15:49:31.446508Z,1697903371446
4.304111003875732,11.776321411132812,-2.81302809715271,2023-10-21T15:49:31.466856Z,1697903371466
4.346631050109863,12.700324058532715,-2.812285900115967,2023-10-21T15:49:31.487058Z,1697903371487
4.345494747161865,13.549880027770996,-2.8142006397247314,2023-10-21T15:49:31.507313Z,1697903371507
4.318490505218506,14.31492805480957,-2.8483786582946777,2023-10-21T15:49:31.529089Z,1697903371529
4.301587104797363,14.966354370117188,-2.928736925125122,2023-10-21T15:49:31.547951Z,1697903371547
4.300426959991455,15.468856811523438,-3.040273904800415,2023-10-21T15:49:31.568204Z,1697903371568
4.3226728439331055,15.795026779174805,-3.1556880474090576,2023-10-21T15:49:31.588440Z,1697903371588
4.347830772399902,15.926874160766602,-3.264216661453247,2023-10-21T15:49:31.608600Z,1697903371608
4.387740135192871,15.863972663879395,-3.3621842861175537,2023-10-21T15:49:31.629154Z,1697903371629
4.436797618865967,15.603593826293945,-3.440213918685913,2023-10-21T15:49:31.649126Z,1697903371649
4.474458694458008,15.15142822265625,-3.480067729949951,2023-10-21T15:49:31.669410Z,1697903371669
4.4844889640808105,14.513727188110352,-3.4592041969299316,2023-10-21T15:49:31.689741Z,1697903371689
4.44566535949707,13.699586868286133,-3.3600544929504395,2023-10-21T15:49:31.712397Z,1697903371712
4.354741096496582,12.728635787963867,-3.185950756072998,2023-10-21T15:49:31.730143Z,1697903371730
4.223500728607178,11.623936653137207,-2.944220781326294,2023-10-21T15:49:31.750529Z,1697903371750
4.043527126312256,10.416703224182129,-2.637611150741577,2023-10-21T15:49:31.770765Z,1697903371770
3.792107582092285,9.140671730041504,-2.269901752471924,2023-10-21T15:49:31.791005Z,1697903371790
3.4449448585510254,7.819955825805664,-1.8644933700561523,2023-10-21T15:49:31.812404Z,1697903371812
3.0157670974731445,6.478723526000977,-1.4576678276062012,2023-10-21T15:49:31.831436Z,1697903371831
2.5422801971435547,5.144381523132324,-1.0777733325958252,2023-10-21T15:49:31.851717Z,1697903371851
2.0395426750183105,3.8457441329956055,-0.7384521961212158,2023-10-21T15:49:31.871983Z,1697903371871
1.5187578201293945,2.6243505477905273,-0.4480997323989868,2023-10-21T15:49:31.892287Z,1697903371892
0.9720420837402344,1.5154762268066406,-0.22042298316955566,2023-10-21T15:49:31.912512Z,1697903371912
0.40941333770751953,0.5652999877929688,-0.0649685263633728,2023-10-21T15:49:31.932784Z,1697903371932
-0.1612567901611328,-0.19429349899291992,0.015111386775970459,2023-10-21T15:49:31.953011Z,1697903371952
-0.7100391387939453,-0.736478328704834,0.025230541825294495,2023-10-21T15:49:31.973264Z,1697903371973
-1.1860332489013672,-1.0411162376403809,-0.016089580953121185,2023-10-21T15:49:31.995721Z,1697903371995
-1.5234594345092773,-1.1108264923095703,-0.08586621284484863,2023-10-21T15:49:32.013788Z,1697903372013
-1.6800942420959473,-1.0103859901428223,-0.16473156213760376,2023-10-21T15:49:32.034080Z,1697903372034
-1.6628851890563965,-0.838430643081665,-0.2350795865058899,2023-10-21T15:49:32.054272Z,1697903372054
-1.499950885772705,-0.6562869548797607,-0.27547383308410645,2023-10-21T15:49:32.074526Z,1697903372074
-1.2493619918823242,-0.49778246879577637,-0.2758007049560547,2023-10-21T15:49:32.095254Z,1697903372095
-0.9363269805908203,-0.35559773445129395,-0.23553252220153809,2023-10-21T15:49:32.115173Z,1697903372115
-0.6195163726806641,-0.23353958129882812,-0.1722710132598877,2023-10-21T15:49:32.135371Z,1697903372135
-0.3304567337036133,-0.12746715545654297,-0.09965157508850098,2023-10-21T15:49:32.155671Z,1697903372155
-0.07915019989013672,-0.0318450927734375,-0.025513410568237305,2023-10-21T15:49:32.178600Z,1697903372178
0.12601852416992188,0.05356454849243164,0.04288840293884277,2023-10-21T15:49:32.196146Z,1697903372196
0.28821563720703125,0.1303853988647461,0.10242319107055664,2023-10-21T15:49:32.216401Z,1697903372216
0.41297435760498047,0.19947576522827148,0.15189361572265625,2023-10-21T15:49:32.236662Z,1697903372236
0.505244255065918,0.26062917709350586,0.19109344482421875,2023-10-21T15:49:32.256916Z,1697903372256
0.5710725784301758,0.3138546943664551,0.22097349166870117,2023-10-21T15:49:32.278479Z,1697903372278
0.6178569793701172,0.36018800735473633,0.24332475662231445,2023-10-21T15:49:32.297530Z,1697903372297
0.6557302474975586,0.4037175178527832,0.2615189552307129,2023-10-21T15:49:32.317715Z,1697903372317
0.6943378448486328,0.4500703811645508,0.27939581871032715,2023-10-21T15:49:32.337982Z,1697903372337
0.7376222610473633,0.5027585029602051,0.29911327362060547,2023-10-21T15:49:32.358247Z,1697903372358
0.782135009765625,0.5604715347290039,0.32007789611816406,2023-10-21T15:49:32.378519Z,1697903372378
0.820775032043457,0.6184887886047363,0.33981943130493164,2023-10-21T15:49:32.398803Z,1697903372398
0.8489413261413574,0.6728811264038086,0.35625481605529785,2023-10-21T15:49:32.419019Z,1697903372418
0.8634629249572754,0.7195005416870117,0.36748600006103516,2023-10-21T15:49:32.439302Z,1697903372439
0.8599672317504883,0.7520322799682617,0.37112855911254883,2023-10-21T15:49:32.461828Z,1697903372461
0.8327770233154297,0.7624692916870117,0.36440587043762207,2023-10-21T15:49:32.479915Z,1697903372479
0.7783684730529785,0.7444896697998047,0.34534716606140137,2023-10-21T15:49:32.500108Z,1697903372500
0.6969819068908691,0.6952204704284668,0.3133358955383301,2023-10-21T15:49:32.520339Z,1697903372520
0.5938186645507812,0.6168193817138672,0.2698071002960205,2023-10-21T15:49:32.540631Z,1697903372540
0.47832536697387695,0.516444206237793,0.21837210655212402,2023-10-21T15:49:32.561650Z,1697903372561
0.36243438720703125,0.40572643280029297,0.16456913948059082,2023-10-21T15:49:32.581254Z,1697903372581
0.2584419250488281,0.2990593910217285,0.11500906944274902,2023-10-21T15:49:32.601569Z,1697903372601
0.17708921432495117,0.21112060546875,0.07575011253356934,2023-10-21T15:49:32.621756Z,1697903372621
0.12656879425048828,0.15494012832641602,0.05083918571472168,2023-10-21T15:49:32.644930Z,1697903372644
0.11102771759033203,0.13908147811889648,0.040753841400146484,2023-10-21T15:49:32.662283Z,1697903372662
0.13087844848632812,0.16710281372070312,0.04254913330078125,2023-10-21T15:49:32.682598Z,1697903372682
0.18196868896484375,0.23572587966918945,0.05057871341705322,2023-10-21T15:49:32.702830Z,1697903372702
0.25748634338378906,0.3366990089416504,0.05870342254638672,2023-10-21T15:49:32.723031Z,1697903372722
0.3481144905090332,0.4572005271911621,0.06179094314575195,2023-10-21T15:49:32.744801Z,1697903372744
0.44228458404541016,0.5809168815612793,0.05689811706542969,2023-10-21T15:49:32.763666Z,1697903372763
0.5265932083129883,0.6893291473388672,0.04372429847717285,2023-10-21T15:49:32.783947Z,1697903372783
0.5884890556335449,0.765376091003418,0.024435847997665405,2023-10-21T15:49:32.804155Z,1697903372804
0.6184234619140625,0.7964944839477539,0.002611665055155754,2023-10-21T15:49:32.824348Z,1697903372824
0.6122360229492188,0.778045654296875,-0.01802501082420349,2023-10-21T15:49:32.844775Z,1697903372844
0.5706920623779297,0.7130084037780762,-0.034370243549346924,2023-10-21T15:49:32.864945Z,1697903372864
0.4984874725341797,0.610224723815918,-0.04435575008392334,2023-10-21T15:49:32.885212Z,1697903372885
0.40331315994262695,0.48207616806030273,-0.0470086932182312,2023-10-21T15:49:32.905457Z,1697903372905
0.2950901985168457,0.3430919647216797,-0.04243963956832886,2023-10-21T15:49:32.928166Z,1697903372928
0.18578863143920898,0.20923328399658203,-0.0318528413772583,2023-10-21T15:49:32.945977Z,1697903372945
0.08937788009643555,0.09712886810302734,-0.017887115478515625,2023-10-21T15:49:32.966294Z,1697903372966
0.018872737884521484,0.01975250244140625,-0.004343986511230469,2023-10-21T15:49:32.986545Z,1697903372986
-0.015585899353027344,-0.015727996826171875,0.004080295562744141,2023-10-21T15:49:33.006746Z,1697903373006
-0.009432315826416016,-0.00921010971069336,0.0027756690979003906,2023-10-21T15:49:33.027923Z,1697903373027
0.0366973876953125,0.034856319427490234,-0.012006759643554688,2023-10-21T15:49:33.047354Z,1697903373047
0.1170954704284668,0.1087498664855957,-0.042067527770996094,2023-10-21T15:49:33.067656Z,1697903373067
0.22016048431396484,0.20075511932373047,-0.0856926441192627,2023-10-21T15:49:33.087855Z,1697903373087
0.3311452865600586,0.2974557876586914,-0.1378002166748047,2023-10-21T15:49:33.108033Z,1697903373108
0.43363237380981445,0.3848915100097656,-0.19057297706604004,2023-10-21T15:49:33.128337Z,1697903373128
0.5149374008178711,0.4532895088195801,-0.23671698570251465,2023-10-21T15:49:33.148671Z,1697903373148
0.5679240226745605,0.49779224395751953,-0.27115654945373535,2023-10-21T15:49:33.168912Z,1697903373168
0.5919828414916992,0.5184035301208496,-0.2919652462005615,2023-10-21T15:49:33.189188Z,1697903373189
0.5900373458862305,0.5173497200012207,-0.29923319816589355,2023-10-21T15:49:33.211248Z,1697903373211
0.5677914619445801,0.4990992546081543,-0.29494285583496094,2023-10-21T15:49:33.229672Z,1697903373229
0.5314774513244629,0.4687032699584961,-0.2819235324859619,2023-10-21T15:49:33.249974Z,1697903373249
0.48877382278442383,0.4327220916748047,-0.2642667293548584,2023-10-21T15:49:33.270213Z,1697903373270
0.4490537643432617,0.39942216873168945,-0.24731230735778809,2023-10-21T15:49:33.290423Z,1697903373290
0.4210171699523926,0.37654590606689453,-0.23618483543395996,2023-10-21T15:49:33.311114Z,1697903373311
0.41102027893066406,0.3698725700378418,-0.23484444618225098,2023-10-21T15:49:33.330994Z,1697903373330
0.4205465316772461,0.3807401657104492,-0.24445128440856934,2023-10-21T15:49:33.351302Z,1697903373351
0.44742631912231445,0.40701866149902344,-0.2638988494873047,2023-10-21T15:49:33.371539Z,1697903373371
0.4873223304748535,0.4442925453186035,-0.29047513008117676,2023-10-21T15:49:33.394459Z,1697903373394
0.5350713729858398,0.48715829849243164,-0.32062435150146484,2023-10-21T15:49:33.412065Z,1697903373412
0.5831971168518066,0.5282306671142578,-0.3492922782897949,2023-10-21T15:49:33.432399Z,1697903373432
0.621617317199707,0.5583844184875488,-0.37011098861694336,2023-10-21T15:49:33.452603Z,1697903373452
0.6386704444885254,0.5675873756408691,-0.3761582374572754,2023-10-21T15:49:33.472833Z,1697903373472
0.625917911529541,0.5486011505126953,-0.3628532886505127,2023-10-21T15:49:33.494320Z,1697903373494
0.5795149803161621,0.49837779998779297,-0.3289616107940674,2023-10-21T15:49:33.513383Z,1697903373513
0.5001363754272461,0.4190239906311035,-0.276623010635376,2023-10-21T15:49:33.533723Z,1697903373533
0.38892459869384766,0.31490659713745117,-0.20879268646240234,2023-10-21T15:49:33.553920Z,1697903373553
0.24641180038452148,0.1913285255432129,-0.1280803680419922,2023-10-21T15:49:33.574092Z,1697903373574
0.07584285736083984,0.056087493896484375,-0.03813433647155762,2023-10-21T15:49:33.594441Z,1697903373594
-0.11472606658935547,-0.08028507232666016,0.05581307411193848,2023-10-21T15:49:33.614723Z,1697903373614
-0.3101944923400879,-0.204010009765625,0.14619183540344238,2023-10-21T15:49:33.635008Z,1697903373634
-0.4921121597290039,-0.3018784523010254,0.22510242462158203,2023-10-21T15:49:33.655223Z,1697903373655
-0.6423478126525879,-0.364713191986084,0.28591465950012207,2023-10-21T15:49:33.677646Z,1697903373677
-0.7482728958129883,-0.39116430282592773,0.3254702091217041,2023-10-21T15:49:33.695774Z,1697903373695
-0.803868293762207,-0.38651084899902344,0.3437232971191406,2023-10-21T15:49:33.716065Z,1697903373716
-0.808011531829834,-0.35860204696655273,0.3421928882598877,2023-10-21T15:49:33.736289Z,1697903373736
-0.7621150016784668,-0.3145785331726074,0.3223299980163574,2023-10-21T15:49:33.756469Z,1697903373756
-0.667698860168457,-0.2589573860168457,0.28446412086486816,2023-10-21T15:49:33.777463Z,1697903373777
-0.5288958549499512,-0.1949293613433838,0.22889018058776855,2023-10-21T15:49:33.797064Z,1697903373797
-0.3533649444580078,-0.1252760887145996,0.15661263465881348,2023-10-21T15:49:33.817384Z,1697903373817
-0.15236473083496094,-0.0526120662689209,0.06966280937194824,2023-10-21T15:49:33.837544Z,1697903373837
0.0629119873046875,0.02141857147216797,-0.029860496520996094,2023-10-21T15:49:33.860756Z,1697903373860
0.2828483581542969,0.09605050086975098,-0.1400914192199707,2023-10-21T15:49:33.878119Z,1697903373878
0.5001249313354492,0.17123103141784668,-0.2594904899597168,2023-10-21T15:49:33.898443Z,1697903373898
0.7079553604125977,0.24692440032958984,-0.38588476181030273,2023-10-21T15:49:33.918708Z,1697903373918
0.8985385894775391,0.3223690986633301,-0.5153083801269531,2023-10-21T15:49:33.938887Z,1697903373938
1.0661535263061523,0.39652514457702637,-0.6434049606323242,2023-10-21T15:49:33.960774Z,1697903373960
1.2050728797912598,0.46712255477905273,-0.7644815444946289,2023-10-21T15:49:33.979437Z,1697903373979
1.3097658157348633,0.5309498310089111,-0.8719058036804199,2023-10-21T15:49:33.999878Z,1697903373999
1.3752975463867188,0.5842208862304688,-0.9586567878723145,2023-10-21T15:49:34.020034Z,1697903374019
1.3987836837768555,0.6233043670654297,-1.018728256225586,2023-10-21T15:49:34.040186Z,1697903374040
1.3813629150390625,0.6457252502441406,-1.0489063262939453,2023-10-21T15:49:34.060610Z,1697903374060
1.3279743194580078,0.6507315635681152,-1.0495615005493164,2023-10-21T15:49:34.080752Z,1697903374080
1.2470722198486328,0.6398274898529053,-1.0248541831970215,2023-10-21T15:49:34.101036Z,1697903374100
1.1499385833740234,0.6170449256896973,-0.9823346138000488,2023-10-21T15:49:34.121279Z,1697903374121
1.049161434173584,0.5884661674499512,-0.9314513206481934,2023-10-21T15:49:34.143957Z,1697903374143
0.9562826156616211,0.5608096122741699,-0.8814754486083984,2023-10-21T15:49:34.161935Z,1697903374161
0.8784794807434082,0.5389294624328613,-0.8387718200683594,2023-10-21T15:49:34.182110Z,1697903374182
0.8177428245544434,0.5244326591491699,-0.8057775497436523,2023-10-21T15:49:34.202355Z,1697903374202
0.7725777626037598,0.5166401863098145,-0.782233715057373,2023-10-21T15:49:34.222593Z,1697903374222
0.7390522956848145,0.5130805969238281,-0.7652754783630371,2023-10-21T15:49:34.243823Z,1697903374243
0.7143878936767578,0.5120029449462891,-0.7524876594543457,2023-10-21T15:49:34.263141Z,1697903374263
0.6946244239807129,0.5107464790344238,-0.7396488189697266,2023-10-21T15:49:34.283445Z,1697903374283
0.6738572120666504,0.5051541328430176,-0.7203531265258789,2023-10-21T15:49:34.303721Z,1697903374303
0.6443896293640137,0.48930931091308594,-0.6864972114562988,2023-10-21T15:49:34.327323Z,1697903374327
0.5983791351318359,0.4568214416503906,-0.6306843757629395,2023-10-21T15:49:34.344207Z,1697903374344
0.5298004150390625,0.4030742645263672,-0.5488643646240234,2023-10-21T15:49:34.364520Z,1697903374364
0.4358949661254883,0.3272528648376465,-0.44158935546875,2023-10-21T15:49:34.384753Z,1697903374384
0.3187141418457031,0.23383569717407227,-0.3146638870239258,2023-10-21T15:49:34.404946Z,1697903374404
0.1851487159729004,0.13153934478759766,-0.17782020568847656,2023-10-21T15:49:34.427090Z,1697903374427
0.04826498031616211,0.03293466567993164,-0.04509449005126953,2023-10-21T15:49:34.445490Z,1697903374445
-0.07686853408813477,-0.05004596710205078,0.0700521469116211,2023-10-21T15:49:34.465797Z,1697903374465
-0.17347431182861328,-0.10732436180114746,0.15505409240722656,2023-10-21T15:49:34.485972Z,1697903374485
-0.22739601135253906,-0.13350415229797363,0.20084285736083984,2023-10-21T15:49:34.506243Z,1697903374506
-0.2291855812072754,-0.12785124778747559,0.2016453742980957,2023-10-21T15:49:34.526904Z,1697903374526
-0.1749267578125,-0.09302997589111328,0.15446138381958008,2023-10-21T15:49:34.546807Z,1697903374546
-0.0665750503540039,-0.033904314041137695,0.05934953689575195,2023-10-21T15:49:34.567186Z,1697903374567
0.08853864669799805,0.043389081954956055,-0.08001184463500977,2023-10-21T15:49:34.587383Z,1697903374587
0.27684688568115234,0.13114213943481445,-0.25410032272338867,2023-10-21T15:49:34.610239Z,1697903374610
0.47803401947021484,0.2194983959197998,-0.44562864303588867,2023-10-21T15:49:34.627953Z,1697903374627
0.6673460006713867,0.2969222068786621,-0.6310248374938965,2023-10-21T15:49:34.648223Z,1697903374648
0.820709228515625,0.3520348072052002,-0.7857723236083984,2023-10-21T15:49:34.668438Z,1697903374668
0.9205150604248047,0.3768744468688965,-0.8908991813659668,2023-10-21T15:49:34.688670Z,1697903374688
0.9593920707702637,0.3697469234466553,-0.9373035430908203,2023-10-21T15:49:34.710015Z,1697903374709
0.9386773109436035,0.33487772941589355,-0.9244017601013184,2023-10-21T15:49:34.729229Z,1697903374729
0.8641610145568848,0.28006410598754883,-0.8566441535949707,2023-10-21T15:49:34.749528Z,1697903374749
0.7431097030639648,0.21406030654907227,-0.7408862113952637,2023-10-21T15:49:34.769696Z,1697903374769
0.587860107421875,0.14661824703216553,-0.5894851684570312,2023-10-21T15:49:34.789877Z,1697903374789
0.4166684150695801,0.08709514141082764,-0.4205026626586914,2023-10-21T15:49:34.810253Z,1697903374810
0.2525749206542969,0.04257619380950928,-0.256746768951416,2023-10-21T15:49:34.830594Z,1697903374830
0.1165609359741211,0.015252470970153809,-0.11942005157470703,2023-10-21T15:49:34.850788Z,1697903374850
0.021921634674072266,0.0021843910217285156,-0.02263498306274414,2023-10-21T15:49:34.871052Z,1697903374871
-0.026778697967529297,-0.0020905733108520508,0.027831077575683594,2023-10-21T15:49:34.893338Z,1697903374893
-0.032506465911865234,-0.0021885931491851807,0.03391838073730469,2023-10-21T15:49:34.911555Z,1697903374911
-0.0036144256591796875,-2.4005770683288574E-4,0.003773212432861328,2023-10-21T15:49:34.931928Z,1697903374931
0.04783058166503906,0.0034983456134796143,-0.049798011779785156,2023-10-21T15:49:34.952097Z,1697903374952
0.10663604736328125,0.009079813957214355,-0.11032819747924805,2023-10-21T15:49:34.972628Z,1697903374972
0.1563282012939453,0.01567363739013672,-0.16008567810058594,2023-10-21T15:49:34.993289Z,1697903374993
0.18308305740356445,0.021374166011810303,-0.18469524383544922,2023-10-21T15:49:35.013107Z,1697903375013
0.17557716369628906,0.023475944995880127,-0.17357397079467773,2023-10-21T15:49:35.033212Z,1697903375033
0.12603187561035156,0.019023537635803223,-0.1214146614074707,2023-10-21T15:49:35.053408Z,1697903375053
0.028934955596923828,0.004882335662841797,-0.027007579803466797,2023-10-21T15:49:35.076369Z,1697903375076
-0.11734676361083984,-0.022008180618286133,0.10548019409179688,2023-10-21T15:49:35.093929Z,1697903375093
-0.3090548515319824,-0.06458425521850586,0.2659454345703125,2023-10-21T15:49:35.114259Z,1697903375114
-0.534369945526123,-0.12648499011993408,0.43779802322387695,2023-10-21T15:49:35.134633Z,1697903375134
-0.7699971199035645,-0.21344363689422607,0.5985331535339355,2023-10-21T15:49:35.154694Z,1697903375154
-0.9787235260009766,-0.33094334602355957,0.7222046852111816,2023-10-21T15:49:35.176508Z,1697903375176
-1.114088535308838,-0.47452211380004883,0.7836360931396484,2023-10-21T15:49:35.195277Z,1697903375195
-1.127875804901123,-0.6153664588928223,0.7628555297851562,2023-10-21T15:49:35.215558Z,1697903375215
-0.9791126251220703,-0.6850495338439941,0.6474828720092773,2023-10-21T15:49:35.235834Z,1697903375235
-0.7306885719299316,-0.6310105323791504,0.4863722324371338,2023-10-21T15:49:35.255996Z,1697903375255
-0.40912580490112305,-0.4229903221130371,0.2851846218109131,2023-10-21T15:49:35.276381Z,1697903375276
0.010706424713134766,0.013170719146728516,-0.008109092712402344,2023-10-21T15:49:35.296751Z,1697903375296
0.47236204147338867,0.680722713470459,-0.39557456970214844,2023-10-21T15:49:35.316897Z,1697903375316
0.9203948974609375,1.5319442749023438,-0.8585066795349121,2023-10-21T15:49:35.337145Z,1697903375337
1.3173565864562988,2.503262519836426,-1.3712530136108398,2023-10-21T15:49:35.359695Z,1697903375359
1.6474847793579102,3.535724639892578,-1.9126644134521484,2023-10-21T15:49:35.377690Z,1697903375377
1.914717435836792,4.5810394287109375,-2.470576763153076,2023-10-21T15:49:35.397961Z,1697903375397
2.13617205619812,5.602227210998535,-3.0303430557250977,2023-10-21T15:49:35.418170Z,1697903375418
2.310135841369629,6.570690155029297,-3.570010185241699,2023-10-21T15:49:35.438385Z,1697903375438
2.45534086227417,7.5976762771606445,-4.095179080963135,2023-10-21T15:49:35.459870Z,1697903375459
2.5594775676727295,8.6652193069458,-4.569687843322754,2023-10-21T15:49:35.478987Z,1697903375478
2.5972187519073486,9.62623405456543,-4.947110176086426,2023-10-21T15:49:35.499292Z,1697903375499
2.5670204162597656,10.474153518676758,-5.2471466064453125,2023-10-21T15:49:35.519469Z,1697903375519
2.493603229522705,11.207736015319824,-5.5004472732543945,2023-10-21T15:49:35.539678Z,1697903375539
2.4028255939483643,11.825273513793945,-5.733916759490967,2023-10-21T15:49:35.560024Z,1697903375559
2.310821533203125,12.324336051940918,-5.96005916595459,2023-10-21T15:49:35.580319Z,1697903375580
2.2169246673583984,12.710511207580566,-6.183671951293945,2023-10-21T15:49:35.600599Z,1697903375600
2.1113202571868896,12.985395431518555,-6.412261962890625,2023-10-21T15:49:35.620929Z,1697903375620
2.0094103813171387,13.139559745788574,-6.645399570465088,2023-10-21T15:49:35.642920Z,1697903375642
1.9231584072113037,13.150080680847168,-6.870368957519531,2023-10-21T15:49:35.661338Z,1697903375661
1.8615473508834839,12.997567176818848,-7.069209098815918,2023-10-21T15:49:35.681587Z,1697903375681
1.8253331184387207,12.680011749267578,-7.229030609130859,2023-10-21T15:49:35.701870Z,1697903375701
1.8113864660263062,12.207555770874023,-7.337169647216797,2023-10-21T15:49:35.722246Z,1697903375722
1.8147037029266357,11.596681594848633,-7.369932651519775,2023-10-21T15:49:35.742790Z,1697903375742
1.8407320976257324,10.997160911560059,-7.324107646942139,2023-10-21T15:49:35.762656Z,1697903375762
1.8818390369415283,10.411927223205566,-7.166886329650879,2023-10-21T15:49:35.782955Z,1697903375782
1.9144413471221924,9.715688705444336,-6.854708671569824,2023-10-21T15:49:35.803214Z,1697903375803
1.919379472732544,8.92795467376709,-6.4106268882751465,2023-10-21T15:49:35.828040Z,1697903375828
1.9050393104553223,8.074129104614258,-5.867565155029297,2023-10-21T15:49:35.843809Z,1697903375843
1.8809525966644287,7.1923933029174805,-5.262298583984375,2023-10-21T15:49:35.864092Z,1697903375864
1.848539113998413,6.3206963539123535,-4.6245222091674805,2023-10-21T15:49:35.884298Z,1697903375884
1.7987418174743652,5.487994194030762,-3.9758949279785156,2023-10-21T15:49:35.904498Z,1697903375904
1.7180242538452148,4.7117109298706055,-3.3427038192749023,2023-10-21T15:49:35.926073Z,1697903375926
1.6171801090240479,4.002508163452148,-2.753641128540039,2023-10-21T15:49:35.945042Z,1697903375945
1.4758257865905762,3.2589807510375977,-2.1910276412963867,2023-10-21T15:49:35.965344Z,1697903375965
1.2974212169647217,2.514881134033203,-1.6783809661865234,2023-10-21T15:49:35.985568Z,1697903375985
1.1266975402832031,1.9079437255859375,-1.2714858055114746,2023-10-21T15:49:36.005724Z,1697903376005
0.9814963340759277,1.4463472366333008,-0.9641656875610352,2023-10-21T15:49:36.026068Z,1697903376026
0.8649182319641113,1.116128921508789,-0.7396640777587891,2023-10-21T15:49:36.046373Z,1697903376046
0.7790298461914062,0.8941311836242676,-0.5803990364074707,2023-10-21T15:49:36.066628Z,1697903376066
0.7307682037353516,0.7615828514099121,-0.4745187759399414,2023-10-21T15:49:36.086869Z,1697903376086
0.7337970733642578,0.7084159851074219,-0.4145009517669678,2023-10-21T15:49:36.109192Z,1697903376109
0.8039188385009766,0.7312536239624023,-0.3918337821960449,2023-10-21T15:49:36.127385Z,1697903376127
0.932459831237793,0.8148293495178223,-0.3894011974334717,2023-10-21T15:49:36.147708Z,1697903376147
1.1067981719970703,0.9473047256469727,-0.39395785331726074,2023-10-21T15:49:36.167981Z,1697903376167
1.3097467422485352,1.1165823936462402,-0.3956294059753418,2023-10-21T15:49:36.188160Z,1697903376188
1.5267210006713867,1.3126378059387207,-0.389315128326416,2023-10-21T15:49:36.209124Z,1697903376209
1.7465620040893555,1.5263848304748535,-0.3733304738998413,2023-10-21T15:49:36.228712Z,1697903376228
1.9575791358947754,1.7471323013305664,-0.34868037700653076,2023-10-21T15:49:36.249021Z,1697903376248
2.14650821685791,1.9606103897094727,-0.3179628849029541,2023-10-21T15:49:36.269205Z,1697903376269
2.2993850708007812,2.150953769683838,-0.28434741497039795,2023-10-21T15:49:36.292292Z,1697903376292
2.407072067260742,2.3055572509765625,-0.250929594039917,2023-10-21T15:49:36.309756Z,1697903376309
2.4655160903930664,2.416492462158203,-0.21951252222061157,2023-10-21T15:49:36.330069Z,1697903376330
2.475118637084961,2.4808878898620605,-0.19099634885787964,2023-10-21T15:49:36.350288Z,1697903376350
2.4386072158813477,2.498321533203125,-0.1662827730178833,2023-10-21T15:49:36.370513Z,1697903376370
2.3604650497436523,2.4703893661499023,-0.1468546986579895,2023-10-21T15:49:36.392364Z,1697903376392
2.2482171058654785,2.4033474922180176,-0.13432282209396362,2023-10-21T15:49:36.411073Z,1697903376411
2.112929344177246,2.3080062866210938,-0.12957829236984253,2023-10-21T15:49:36.431373Z,1697903376431
1.967000961303711,2.1976237297058105,-0.13255780935287476,2023-10-21T15:49:36.451618Z,1697903376451
1.8199748992919922,2.083380699157715,-0.14245903491973877,2023-10-21T15:49:36.471886Z,1697903376471
1.6791610717773438,1.9735512733459473,-0.15860337018966675,2023-10-21T15:49:36.492195Z,1697903376492
1.549881935119629,1.8738317489624023,-0.18046927452087402,2023-10-21T15:49:36.512443Z,1697903376512
1.437269687652588,1.7896881103515625,-0.20801770687103271,2023-10-21T15:49:36.532687Z,1697903376532
1.3444013595581055,1.7250165939331055,-0.24122381210327148,2023-10-21T15:49:36.552941Z,1697903376552
1.2700567245483398,1.6794042587280273,-0.27916419506073,2023-10-21T15:49:36.575443Z,1697903376575
1.2090749740600586,1.6476449966430664,-0.3199748992919922,2023-10-21T15:49:36.593444Z,1697903376593
1.1535515785217285,1.6192378997802734,-0.36049747467041016,2023-10-21T15:49:36.613772Z,1697903376613
1.096604824066162,1.5834846496582031,-0.3973352909088135,2023-10-21T15:49:36.634039Z,1697903376633
1.0342559814453125,1.53306245803833,-0.4275674819946289,2023-10-21T15:49:36.654220Z,1697903376654
0.9667763710021973,1.4670205116271973,-0.44968724250793457,2023-10-21T15:49:36.675398Z,1697903376675
0.8963432312011719,1.388352394104004,-0.46341967582702637,2023-10-21T15:49:36.694774Z,1697903376694
0.8251523971557617,1.3011646270751953,-0.46916627883911133,2023-10-21T15:49:36.715094Z,1697903376715
0.754817008972168,1.208775520324707,-0.4675309658050537,2023-10-21T15:49:36.735306Z,1697903376735
0.686861515045166,1.114166259765625,-0.45941805839538574,2023-10-21T15:49:36.758790Z,1697903376758
0.6237692832946777,1.0219793319702148,-0.44690966606140137,2023-10-21T15:49:36.775840Z,1697903376775
0.5682787895202637,0.9377965927124023,-0.4329264163970947,2023-10-21T15:49:36.796146Z,1697903376796
0.5225763320922852,0.8665647506713867,-0.42052578926086426,2023-10-21T15:49:36.816448Z,1697903376816
0.48765087127685547,0.8109302520751953,-0.4120044708251953,2023-10-21T15:49:36.836603Z,1697903376836
0.46269702911376953,0.7702031135559082,-0.407956600189209,2023-10-21T15:49:36.858804Z,1697903376858
0.44520139694213867,0.740325927734375,-0.40694427490234375,2023-10-21T15:49:36.877159Z,1697903376877
0.43123626708984375,0.7149653434753418,-0.405850887298584,2023-10-21T15:49:36.897468Z,1697903376897
0.4153714179992676,0.6849579811096191,-0.3995652198791504,2023-10-21T15:49:36.917665Z,1697903376917
0.39281225204467773,0.6421976089477539,-0.3833785057067871,2023-10-21T15:49:36.937883Z,1697903376937
0.3606224060058594,0.5818548202514648,-0.35430908203125,2023-10-21T15:49:36.958595Z,1697903376958
0.3195953369140625,0.5057682991027832,-0.31328487396240234,2023-10-21T15:49:36.978473Z,1697903376978
0.2722358703613281,0.4194979667663574,-0.2635483741760254,2023-10-21T15:49:36.998752Z,1697903376998
0.2202763557434082,0.32810497283935547,-0.20829534530639648,2023-10-21T15:49:37.019007Z,1697903377018
0.16342782974243164,0.23369407653808594,-0.1492786407470703,2023-10-21T15:49:37.041841Z,1697903377041
0.1036825180053711,0.1412210464477539,-0.09046792984008789,2023-10-21T15:49:37.059531Z,1697903377059
0.04806804656982422,0.06178092956542969,-0.03964805603027344,2023-10-21T15:49:37.079875Z,1697903377079
0.008063316345214844,0.009684562683105469,-0.006231784820556641,2023-10-21T15:49:37.100087Z,1697903377100
-0.005798816680908203,-0.006458759307861328,0.004175662994384766,2023-10-21T15:49:37.120271Z,1697903377120
0.009638309478759766,0.009928226470947266,-0.006452083587646484,2023-10-21T15:49:37.141741Z,1697903377141
0.050212860107421875,0.04793500900268555,-0.03131246566772461,2023-10-21T15:49:37.160884Z,1697903377160
0.10621070861816406,0.09443378448486328,-0.06193971633911133,2023-10-21T15:49:37.181198Z,1697903377181
0.16841983795166016,0.14017486572265625,-0.09231734275817871,2023-10-21T15:49:37.201391Z,1697903377201
0.22953128814697266,0.17949962615966797,-0.1189262866973877,2023-10-21T15:49:37.221544Z,1697903377221
0.28529882431030273,0.21013641357421875,-0.1406106948852539,2023-10-21T15:49:37.241859Z,1697903377241
0.3289790153503418,0.22880268096923828,-0.15530943870544434,2023-10-21T15:49:37.262223Z,1697903377262
0.35028886795043945,0.23084783554077148,-0.15962004661560059,2023-10-21T15:49:37.282444Z,1697903377282
0.3395347595214844,0.21277427673339844,-0.15049195289611816,2023-10-21T15:49:37.302673Z,1697903377302
0.2958841323852539,0.1767120361328125,-0.12849044799804688,2023-10-21T15:49:37.324974Z,1697903377324
0.23076248168945312,0.1313638687133789,-0.09878277778625488,2023-10-21T15:49:37.343191Z,1697903377343
0.16209888458251953,0.08785390853881836,-0.06872296333312988,2023-10-21T15:49:37.363530Z,1697903377363
0.10727214813232422,0.05531024932861328,-0.04518294334411621,2023-10-21T15:49:37.383728Z,1697903377383
0.07601642608642578,0.03733682632446289,-0.03186655044555664,2023-10-21T15:49:37.404084Z,1697903377404
0.0727224349975586,0.03418684005737305,-0.030392169952392578,2023-10-21T15:49:37.425004Z,1697903377424
0.09592628479003906,0.04352402687072754,-0.0400693416595459,2023-10-21T15:49:37.444527Z,1697903377444
0.1406383514404297,0.0622861385345459,-0.058933258056640625,2023-10-21T15:49:37.464847Z,1697903377464
0.19937515258789062,0.0873100757598877,-0.08417582511901855,2023-10-21T15:49:37.485084Z,1697903377485
0.26351070404052734,0.11556053161621094,-0.11251378059387207,2023-10-21T15:49:37.508245Z,1697903377508
0.32662296295166016,0.1450505256652832,-0.14149880409240723,2023-10-21T15:49:37.525554Z,1697903377525
0.38384056091308594,0.17415857315063477,-0.16922259330749512,2023-10-21T15:49:37.545865Z,1697903377545
0.4252328872680664,0.1986079216003418,-0.19149041175842285,2023-10-21T15:49:37.566110Z,1697903377566
0.4368009567260742,0.21140360832214355,-0.20190882682800293,2023-10-21T15:49:37.586275Z,1697903377586
0.40787220001220703,0.20566558837890625,-0.1947004795074463,2023-10-21T15:49:37.608177Z,1697903377608
0.3399019241333008,0.1791830062866211,-0.16856884956359863,2023-10-21T15:49:37.626828Z,1697903377626
0.2488541603088379,0.13723993301391602,-0.12880706787109375,2023-10-21T15:49:37.647090Z,1697903377647
0.15533876419067383,0.08941841125488281,-0.0841069221496582,2023-10-21T15:49:37.667328Z,1697903377667
0.07655525207519531,0.04578971862792969,-0.043360233306884766,2023-10-21T15:49:37.687576Z,1697903377687
0.02100992202758789,0.012992382049560547,-0.012433052062988281,2023-10-21T15:49:37.708011Z,1697903377707
-0.009493827819824219,-0.006043910980224609,0.005859375,2023-10-21T15:49:37.728283Z,1697903377728
-0.01708984375,-0.011164665222167969,0.010974884033203125,2023-10-21T15:49:37.748406Z,1697903377748
-0.0014052391052246094,-9.388923645019531E-4,9.365081787109375E-4,2023-10-21T15:49:37.768708Z,1697903377768
0.04051351547241211,0.02754688262939453,-0.027917861938476562,2023-10-21T15:49:37.791363Z,1697903377791
0.11170387268066406,0.07689285278320312,-0.07923173904418945,2023-10-21T15:49:37.809191Z,1697903377809
0.2094254493713379,0.14525890350341797,-0.15227842330932617,2023-10-21T15:49:37.829453Z,1697903377829
0.321927547454834,0.22431516647338867,-0.23940277099609375,2023-10-21T15:49:37.849696Z,1697903377849
0.4330425262451172,0.3026766777038574,-0.32937097549438477,2023-10-21T15:49:37.869962Z,1697903377869
0.5273909568786621,0.36947107315063477,-0.4112548828125,2023-10-21T15:49:37.891101Z,1697903377891
0.5979490280151367,0.41916942596435547,-0.47976112365722656,2023-10-21T15:49:37.910578Z,1697903377910
0.6440920829772949,0.45028066635131836,-0.53363037109375,2023-10-21T15:49:37.930763Z,1697903377930
0.6700801849365234,0.46470117568969727,-0.5748329162597656,2023-10-21T15:49:37.951028Z,1697903377950
0.681307315826416,0.46563196182250977,-0.6061305999755859,2023-10-21T15:49:37.971365Z,1697903377971
0.683314323425293,0.456815242767334,-0.6307554244995117,2023-10-21T15:49:37.991576Z,1697903377991
0.6816301345825195,0.44225454330444336,-0.6526646614074707,2023-10-21T15:49:38.011890Z,1697903378011
0.681239128112793,0.4255695343017578,-0.6759152412414551,2023-10-21T15:49:38.032129Z,1697903378032
0.6866464614868164,0.40999865531921387,-0.7047195434570312,2023-10-21T15:49:38.052379Z,1697903378052
0.7026848793029785,0.39858150482177734,-0.7437982559204102,2023-10-21T15:49:38.074924Z,1697903378074
0.7344441413879395,0.39417243003845215,-0.7983393669128418,2023-10-21T15:49:38.092878Z,1697903378092
0.7841958999633789,0.3979074954986572,-0.8705596923828125,2023-10-21T15:49:38.113108Z,1697903378113
0.8503141403198242,0.4091508388519287,-0.9583449363708496,2023-10-21T15:49:38.133376Z,1697903378133
0.9271407127380371,0.4258308410644531,-1.055068016052246,2023-10-21T15:49:38.153641Z,1697903378153
1.0076241493225098,0.44576430320739746,-1.1526250839233398,2023-10-21T15:49:38.174365Z,1697903378174
1.086132526397705,0.46777963638305664,-1.2450017929077148,2023-10-21T15:49:38.194328Z,1697903378194
1.158677577972412,0.49125075340270996,-1.3277087211608887,2023-10-21T15:49:38.214669Z,1697903378214
1.222489356994629,0.5157091617584229,-1.3973779678344727,2023-10-21T15:49:38.234827Z,1697903378234
1.2753939628601074,0.5401580333709717,-1.4507856369018555,2023-10-21T15:49:38.257873Z,1697903378257
1.3145084381103516,0.5626368522644043,-1.483933448791504,2023-10-21T15:49:38.275349Z,1697903378275
1.3367919921875,0.580467700958252,-1.4929847717285156,2023-10-21T15:49:38.295740Z,1697903378295
1.3398356437683105,0.5908150672912598,-1.475529670715332,2023-10-21T15:49:38.316014Z,1697903378315
1.3231124877929688,0.591780424118042,-1.4319567680358887,2023-10-21T15:49:38.336038Z,1697903378336
1.2885489463806152,0.5831332206726074,-1.3658437728881836,2023-10-21T15:49:38.357591Z,1697903378357
1.2392830848693848,0.5658340454101562,-1.2821574211120605,2023-10-21T15:49:38.376596Z,1697903378376
1.1775355339050293,0.5408244132995605,-1.1847996711730957,2023-10-21T15:49:38.396906Z,1697903378396
1.1044559478759766,0.5087993144989014,-1.0766816139221191,2023-10-21T15:49:38.417089Z,1697903378417
1.0214667320251465,0.47078514099121094,-0.9609498977661133,2023-10-21T15:49:38.437316Z,1697903378437
0.931128978729248,0.42850732803344727,-0.8416996002197266,2023-10-21T15:49:38.457697Z,1697903378457
0.8371267318725586,0.384291410446167,-0.7237992286682129,2023-10-21T15:49:38.477875Z,1697903378477
0.7437233924865723,0.34044766426086426,-0.612037181854248,2023-10-21T15:49:38.498159Z,1697903378498
0.6556472778320312,0.29920101165771484,-0.5108089447021484,2023-10-21T15:49:38.518428Z,1697903378518
0.5766854286193848,0.26221609115600586,-0.42299842834472656,2023-10-21T15:49:38.540840Z,1697903378540
0.508699893951416,0.23025774955749512,-0.3492765426635742,2023-10-21T15:49:38.558934Z,1697903378558
0.45247364044189453,0.20373320579528809,-0.28903770446777344,2023-10-21T15:49:38.579192Z,1697903378579
0.40890932083129883,0.1831507682800293,-0.2413339614868164,2023-10-21T15:49:38.599452Z,1697903378599
0.38100624084472656,0.16983389854431152,-0.20615100860595703,2023-10-21T15:49:38.619716Z,1697903378619
0.3701953887939453,0.16435456275939941,-0.18216228485107422,2023-10-21T15:49:38.640716Z,1697903378640
0.3764963150024414,0.16675925254821777,-0.16705727577209473,2023-10-21T15:49:38.660303Z,1697903378660
0.40196895599365234,0.17856049537658691,-0.15944480895996094,2023-10-21T15:49:38.680481Z,1697903378680
0.44997215270996094,0.2027289867401123,-0.15817880630493164,2023-10-21T15:49:38.700906Z,1697903378700
0.5256776809692383,0.24450302124023438,-0.16234207153320312,2023-10-21T15:49:38.723865Z,1697903378723
0.6337289810180664,0.3110346794128418,-0.1699659824371338,2023-10-21T15:49:38.741311Z,1697903378741
0.774235725402832,0.40986108779907227,-0.17704033851623535,2023-10-21T15:49:38.761577Z,1697903378761
0.9468832015991211,0.5506916046142578,-0.17966604232788086,2023-10-21T15:49:38.781857Z,1697903378781
1.1531648635864258,0.7467246055603027,-0.17627716064453125,2023-10-21T15:49:38.802096Z,1697903378802
1.4066829681396484,1.0215568542480469,-0.16969680786132812,2023-10-21T15:49:38.823882Z,1697903378823
1.7213382720947266,1.4052157402038574,-0.16521310806274414,2023-10-21T15:49:38.842679Z,1697903378842
2.1057071685791016,1.9256339073181152,-0.16999369859695435,2023-10-21T15:49:38.862900Z,1697903378862
2.5477828979492188,2.5923357009887695,-0.18786078691482544,2023-10-21T15:49:38.883159Z,1697903378883
3.0204296112060547,3.393692970275879,-0.22340154647827148,2023-10-21T15:49:38.903415Z,1697903378903
3.490579605102539,4.297266006469727,-0.27922582626342773,2023-10-21T15:49:38.923791Z,1697903378923
3.936825752258301,5.265442371368408,-0.36135798692703247,2023-10-21T15:49:38.944018Z,1697903378943
4.345478057861328,6.263219833374023,-0.4785346984863281,2023-10-21T15:49:38.964217Z,1697903378964
4.721879005432129,7.263193130493164,-0.6369708776473999,2023-10-21T15:49:38.984494Z,1697903378984
5.059141159057617,8.238886833190918,-0.8332734107971191,2023-10-21T15:49:39.007197Z,1697903379007
5.337271213531494,9.15353012084961,-1.048888921737671,2023-10-21T15:49:39.025029Z,1697903379024
5.536791801452637,9.973783493041992,-1.2590973377227783,2023-10-21T15:49:39.045287Z,1697903379045
5.639253616333008,10.67966365814209,-1.4462823867797852,2023-10-21T15:49:39.065547Z,1697903379065
5.644941806793213,11.256863594055176,-1.6111273765563965,2023-10-21T15:49:39.085807Z,1697903379085
5.570560455322266,11.692570686340332,-1.755634069442749,2023-10-21T15:49:39.107012Z,1697903379106
5.437697410583496,11.984895706176758,-1.8844099044799805,2023-10-21T15:49:39.126389Z,1697903379126
5.263302326202393,12.140983581542969,-1.9980852603912354,2023-10-21T15:49:39.146605Z,1697903379146
5.067298412322998,12.17552661895752,-2.099106550216675,2023-10-21T15:49:39.166863Z,1697903379166
4.854288101196289,12.099263191223145,-2.189422845840454,2023-10-21T15:49:39.190393Z,1697903379190
4.640269756317139,11.911993980407715,-2.267030715942383,2023-10-21T15:49:39.207443Z,1697903379207
4.435181617736816,11.614548683166504,-2.3318216800689697,2023-10-21T15:49:39.227743Z,1697903379227
4.2431511878967285,11.203603744506836,-2.3870224952697754,2023-10-21T15:49:39.247988Z,1697903379247
4.067892074584961,10.681696891784668,-2.438035249710083,2023-10-21T15:49:39.268214Z,1697903379268
3.911008834838867,10.060532569885254,-2.486013650894165,2023-10-21T15:49:39.290744Z,1697903379290
3.771129608154297,9.357499122619629,-2.5210254192352295,2023-10-21T15:49:39.308744Z,1697903379308
3.633697986602783,8.585016250610352,-2.52407169342041,2023-10-21T15:49:39.329057Z,1697903379329
3.4771759510040283,7.7434844970703125,-2.4744858741760254,2023-10-21T15:49:39.349275Z,1697903379349
3.2764482498168945,6.833168029785156,-2.357722282409668,2023-10-21T15:49:39.369543Z,1697903379369
3.0212621688842773,5.863879203796387,-2.176535129547119,2023-10-21T15:49:39.390435Z,1697903379390
2.715876579284668,4.861111640930176,-1.9383184909820557,2023-10-21T15:49:39.410055Z,1697903379409
2.3725686073303223,3.8702526092529297,-1.6583774089813232,2023-10-21T15:49:39.430309Z,1697903379430
1.99711275100708,2.933208465576172,-1.348759651184082,2023-10-21T15:49:39.450562Z,1697903379450
1.591738224029541,2.0786309242248535,-1.020616054534912,2023-10-21T15:49:39.473728Z,1697903379473
1.1469230651855469,1.319385051727295,-0.6861209869384766,2023-10-21T15:49:39.491163Z,1697903379491
0.6680812835693359,0.6702637672424316,-0.3662590980529785,2023-10-21T15:49:39.511475Z,1697903379511
0.18705034255981445,0.1617908477783203,-0.09253644943237305,2023-10-21T15:49:39.531743Z,1697903379531
-0.24732208251953125,-0.18230867385864258,0.10932612419128418,2023-10-21T15:49:39.551967Z,1697903379551
-0.5796003341674805,-0.35991764068603516,0.2275233268737793,2023-10-21T15:49:39.573954Z,1697903379573
-0.7784733772277832,-0.4057888984680176,0.269716739654541,2023-10-21T15:49:39.592651Z,1697903379592
-0.8480205535888672,-0.3755462169647217,0.25887179374694824,2023-10-21T15:49:39.612986Z,1697903379612
-0.8208036422729492,-0.3172025680541992,0.22076654434204102,2023-10-21T15:49:39.633199Z,1697903379633
-0.7264556884765625,-0.2540440559387207,0.17244327068328857,2023-10-21T15:49:39.653394Z,1697903379653
-0.5947914123535156,-0.19612884521484375,0.12499165534973145,2023-10-21T15:49:39.673688Z,1697903379673
-0.4326601028442383,-0.13953781127929688,0.08049595355987549,2023-10-21T15:49:39.693980Z,1697903379693
-0.25956249237060547,-0.08461737632751465,0.042792677879333496,2023-10-21T15:49:39.713944Z,1697903379713
-0.0909271240234375,-0.030668973922729492,0.013257741928100586,2023-10-21T15:49:39.734209Z,1697903379734
0.06470870971679688,0.02293229103088379,-0.0082930326461792,2023-10-21T15:49:39.756756Z,1697903379756
0.20370197296142578,0.07663464546203613,-0.02275681495666504,2023-10-21T15:49:39.774780Z,1697903379774
0.32998085021972656,0.13257265090942383,-0.0318148136138916,2023-10-21T15:49:39.795039Z,1697903379794
0.4513816833496094,0.1940774917602539,-0.03702789545059204,2023-10-21T15:49:39.815500Z,1697903379815
0.5721063613891602,0.26306772232055664,-0.03918910026550293,2023-10-21T15:49:39.835716Z,1697903379835
0.6902284622192383,0.3387141227722168,-0.03847217559814453,2023-10-21T15:49:39.856562Z,1697903379856
0.7998552322387695,0.41796064376831055,-0.03496730327606201,2023-10-21T15:49:39.876308Z,1697903379876
0.8955221176147461,0.49746274948120117,-0.029068291187286377,2023-10-21T15:49:39.896331Z,1697903379896
0.9737558364868164,0.5741314888000488,-0.021305128931999207,2023-10-21T15:49:39.916712Z,1697903379916
1.0316438674926758,0.6444740295410156,-0.012066714465618134,2023-10-21T15:49:39.939859Z,1697903379939
1.0667476654052734,0.7048711776733398,-0.0015142010524868965,2023-10-21T15:49:39.957284Z,1697903379957
1.077775001525879,0.7526121139526367,0.010202214121818542,2023-10-21T15:49:39.977574Z,1697903379977
1.0681171417236328,0.7885489463806152,0.022701606154441833,2023-10-21T15:49:39.997847Z,1697903379997
1.0467252731323242,0.818110466003418,0.035369664430618286,2023-10-21T15:49:40.018019Z,1697903380017
1.022078037261963,0.8478560447692871,0.047608792781829834,2023-10-21T15:49:40.039832Z,1697903380039
1.0000171661376953,0.8836507797241211,0.058987587690353394,2023-10-21T15:49:40.058578Z,1697903380058
0.9838752746582031,0.9299302101135254,0.06927269697189331,2023-10-21T15:49:40.078759Z,1697903380078
0.9768295288085938,0.9911365509033203,0.07858115434646606,2023-10-21T15:49:40.098988Z,1697903380098
0.9838933944702148,1.0737800598144531,0.08741497993469238,2023-10-21T15:49:40.119271Z,1697903380119
1.006394863128662,1.1818389892578125,0.09579038619995117,2023-10-21T15:49:40.139644Z,1697903380139
1.040503978729248,1.3138341903686523,0.10296308994293213,2023-10-21T15:49:40.159852Z,1697903380159
1.0790481567382812,1.462510585784912,0.10754925012588501,2023-10-21T15:49:40.180280Z,1697903380180
1.11342191696167,1.615675926208496,0.10800826549530029,2023-10-21T15:49:40.200459Z,1697903380200
1.135176658630371,1.7578697204589844,0.10334771871566772,2023-10-21T15:49:40.222995Z,1697903380222
1.1378369331359863,1.8732976913452148,0.09362787008285522,2023-10-21T15:49:40.240955Z,1697903380240
1.118431568145752,1.9487409591674805,0.07987630367279053,2023-10-21T15:49:40.261288Z,1697903380261
1.0775995254516602,1.9764347076416016,0.06357291340827942,2023-10-21T15:49:40.281518Z,1697903380281
1.017439365386963,1.9538793563842773,0.04583969712257385,2023-10-21T15:49:40.301676Z,1697903380301
0.9395723342895508,1.881657600402832,0.02722896635532379,2023-10-21T15:49:40.323480Z,1697903380323
0.846930980682373,1.7643928527832031,0.008472397923469543,2023-10-21T15:49:40.342377Z,1697903380342
0.7451939582824707,1.6115455627441406,-0.009481757879257202,2023-10-21T15:49:40.362627Z,1697903380362
0.6418726444244385,1.4369306564331055,-0.025759920477867126,2023-10-21T15:49:40.382812Z,1697903380382
0.5439105033874512,1.2559795379638672,-0.03967884182929993,2023-10-21T15:49:40.406311Z,1697903380406
0.4563908576965332,1.083251953125,-0.050926148891448975,2023-10-21T15:49:40.423337Z,1697903380423
0.3826742172241211,0.9306840896606445,-0.0597224235534668,2023-10-21T15:49:40.443707Z,1697903380443
0.3251769542694092,0.8077011108398438,-0.06698083877563477,2023-10-21T15:49:40.463962Z,1697903380463
0.285369873046875,0.72039794921875,-0.07422947883605957,2023-10-21T15:49:40.484144Z,1697903380484
0.2629520893096924,0.6692733764648438,-0.08301210403442383,2023-10-21T15:49:40.506165Z,1697903380506
0.25519657135009766,0.647770881652832,-0.09409141540527344,2023-10-21T15:49:40.524678Z,1697903380524
0.25736355781555176,0.643244743347168,-0.10676157474517822,2023-10-21T15:49:40.545008Z,1697903380544
0.26417970657348633,0.641697883605957,-0.11915647983551025,2023-10-21T15:49:40.565218Z,1697903380565
0.2708556652069092,0.6317806243896484,-0.1288893222808838,2023-10-21T15:49:40.585420Z,1697903380585
0.2737412452697754,0.6067390441894531,-0.13393616676330566,2023-10-21T15:49:40.607251Z,1697903380607
0.26978397369384766,0.5631208419799805,-0.1328427791595459,2023-10-21T15:49:40.625933Z,1697903380625
0.25649404525756836,0.5002126693725586,-0.1248772144317627,2023-10-21T15:49:40.646285Z,1697903380646
0.23223257064819336,0.42043209075927734,-0.1102285385131836,2023-10-21T15:49:40.666397Z,1697903380666
0.1966080665588379,0.3289928436279297,-0.09002327919006348,2023-10-21T15:49:40.689371Z,1697903380689
0.15190982818603516,0.23453807830810547,-0.06666016578674316,2023-10-21T15:49:40.706899Z,1697903380706
0.10317087173461914,0.1471090316772461,-0.0432889461517334,2023-10-21T15:49:40.727180Z,1697903380727
0.05827903747558594,0.07699394226074219,-0.02341294288635254,2023-10-21T15:49:40.747464Z,1697903380747
0.025286197662353516,0.031124114990234375,-0.009765863418579102,2023-10-21T15:49:40.767719Z,1697903380767
0.01011800765991211,0.011690139770507812,-0.0037813186645507812,2023-10-21T15:49:40.790100Z,1697903380790
0.014475822448730469,0.01583242416381836,-0.005274534225463867,2023-10-21T15:49:40.808206Z,1697903380808
0.0372767448425293,0.0389404296875,-0.01334691047668457,2023-10-21T15:49:40.828487Z,1697903380828
0.07553339004516602,0.07597923278808594,-0.02675175666809082,2023-10-21T15:49:40.848717Z,1697903380848
0.12489032745361328,0.12181806564331055,-0.04399394989013672,2023-10-21T15:49:40.868951Z,1697903380868
0.1793375015258789,0.17059087753295898,-0.06306838989257812,2023-10-21T15:49:40.889537Z,1697903380889
0.2312312126159668,0.21536731719970703,-0.08134055137634277,2023-10-21T15:49:40.909548Z,1697903380909
0.274444580078125,0.2507205009460449,-0.09654569625854492,2023-10-21T15:49:40.929806Z,1697903380929
0.3057670593261719,0.2738513946533203,-0.1073758602142334,2023-10-21T15:49:40.950109Z,1697903380950
0.32410621643066406,0.2839546203613281,-0.1132819652557373,2023-10-21T15:49:40.972966Z,1697903380972
0.3277096748352051,0.28000545501708984,-0.11362695693969727,2023-10-21T15:49:40.990583Z,1697903380990
0.31354522705078125,0.2605118751525879,-0.10754919052124023,2023-10-21T15:49:41.010935Z,1697903381010
0.27872276306152344,0.2247333526611328,-0.09440302848815918,2023-10-21T15:49:41.031245Z,1697903381031
0.22332477569580078,0.17455768585205078,-0.07466316223144531,2023-10-21T15:49:41.051524Z,1697903381051
0.14915132522583008,0.11297464370727539,-0.04926037788391113,2023-10-21T15:49:41.072354Z,1697903381072
0.059326171875,0.043537139892578125,-0.019403934478759766,2023-10-21T15:49:41.092023Z,1697903381091
-0.04282808303833008,-0.030455589294433594,0.013935565948486328,2023-10-21T15:49:41.112294Z,1697903381112
-0.1533665657043457,-0.10576105117797852,0.049938201904296875,2023-10-21T15:49:41.132498Z,1697903381132
-0.2677769660949707,-0.1793994903564453,0.08789467811584473,2023-10-21T15:49:41.155661Z,1697903381155
-0.3806304931640625,-0.24837970733642578,0.12691044807434082,2023-10-21T15:49:41.173053Z,1697903381173
-0.48404693603515625,-0.3084750175476074,0.16517138481140137,2023-10-21T15:49:41.193365Z,1697903381193
-0.5692634582519531,-0.35503101348876953,0.2001025676727295,2023-10-21T15:49:41.213598Z,1697903381213
-0.6275496482849121,-0.3834700584411621,0.228318452835083,2023-10-21T15:49:41.233811Z,1697903381233
-0.6534819602966309,-0.39162445068359375,0.24686241149902344,2023-10-21T15:49:41.255525Z,1697903381255
-0.6446676254272461,-0.3794689178466797,0.25324106216430664,2023-10-21T15:49:41.274346Z,1697903381274
-0.6023311614990234,-0.3490753173828125,0.24595189094543457,2023-10-21T15:49:41.294614Z,1697903381294
-0.5302515029907227,-0.3034505844116211,0.2245635986328125,2023-10-21T15:49:41.314829Z,1697903381314
-0.4358029365539551,-0.24704360961914062,0.19073987007141113,2023-10-21T15:49:41.335046Z,1697903381335
-0.3274674415588379,-0.1844635009765625,0.14756393432617188,2023-10-21T15:49:41.355698Z,1697903381355
-0.21262168884277344,-0.11937904357910156,0.09830808639526367,2023-10-21T15:49:41.375854Z,1697903381375
-0.09663963317871094,-0.05420684814453125,0.04571223258972168,2023-10-21T15:49:41.396099Z,1697903381396
0.017211437225341797,0.009658336639404297,-0.008308649063110352,2023-10-21T15:49:41.416299Z,1697903381416
0.12473917007446289,0.07009601593017578,-0.06134152412414551,2023-10-21T15:49:41.439123Z,1697903381439
0.22196292877197266,0.12499570846557617,-0.11113739013671875,2023-10-21T15:49:41.456822Z,1697903381456
0.3057594299316406,0.17262983322143555,-0.15595126152038574,2023-10-21T15:49:41.477019Z,1697903381476
0.3756990432739258,0.21274852752685547,-0.19547414779663086,2023-10-21T15:49:41.497283Z,1697903381497
0.43364524841308594,0.24643659591674805,-0.2306509017944336,2023-10-21T15:49:41.517481Z,1697903381517
0.4832639694213867,0.2758603096008301,-0.2634129524230957,2023-10-21T15:49:41.538750Z,1697903381538
0.5276470184326172,0.30284643173217773,-0.29538726806640625,2023-10-21T15:49:41.558126Z,1697903381558
0.5686187744140625,0.32851696014404297,-0.32750654220581055,2023-10-21T15:49:41.578317Z,1697903381578
0.6056137084960938,0.35277271270751953,-0.3593320846557617,2023-10-21T15:49:41.598585Z,1697903381598
0.6371855735778809,0.3750433921813965,-0.3897824287414551,2023-10-21T15:49:41.618799Z,1697903381618
0.6625814437866211,0.39491748809814453,-0.41793203353881836,2023-10-21T15:49:41.639116Z,1697903381639
0.681666374206543,0.41214513778686523,-0.4430837631225586,2023-10-21T15:49:41.659412Z,1697903381659
0.6949152946472168,0.4266395568847656,-0.4648885726928711,2023-10-21T15:49:41.679712Z,1697903381679
0.7013955116271973,0.4374661445617676,-0.48215389251708984,2023-10-21T15:49:41.699916Z,1697903381699
0.6985626220703125,0.4427518844604492,-0.49258947372436523,2023-10-21T15:49:41.721778Z,1697903381721
0.6830401420593262,0.43997621536254883,-0.49329519271850586,2023-10-21T15:49:41.740439Z,1697903381740
0.6530590057373047,0.4273514747619629,-0.4823942184448242,2023-10-21T15:49:41.760744Z,1697903381760
0.6085939407348633,0.40398550033569336,-0.45917701721191406,2023-10-21T15:49:41.781012Z,1697903381780
0.5517725944519043,0.3705277442932129,-0.42458057403564453,2023-10-21T15:49:41.801167Z,1697903381801
0.485867977142334,0.3288745880126953,-0.3806424140930176,2023-10-21T15:49:41.821716Z,1697903381821
0.4158296585083008,0.28252553939819336,-0.33100080490112305,2023-10-21T15:49:41.841760Z,1697903381841
0.34668588638305664,0.23531484603881836,-0.27974653244018555,2023-10-21T15:49:41.862055Z,1697903381862
0.2815842628479004,0.19001531600952148,-0.22976922988891602,2023-10-21T15:49:41.882259Z,1697903381882
0.22188901901245117,0.14820623397827148,-0.18262624740600586,2023-10-21T15:49:41.905455Z,1697903381905
0.16855764389038086,0.11107397079467773,-0.1395244598388672,2023-10-21T15:49:41.922791Z,1697903381922
0.1233210563659668,0.07999086380004883,-0.10225677490234375,2023-10-21T15:49:41.943176Z,1697903381943
0.08664798736572266,0.0552520751953125,-0.0715947151184082,2023-10-21T15:49:41.963349Z,1697903381963
0.05772590637207031,0.036190032958984375,-0.04725360870361328,2023-10-21T15:49:41.983561Z,1697903381983
0.036701202392578125,0.022657394409179688,-0.02958822250366211,2023-10-21T15:49:42.005059Z,1697903382005
0.026166439056396484,0.015953540802001953,-0.020665645599365234,2023-10-21T15:49:42.024120Z,1697903382024
0.027146339416503906,0.016417980194091797,-0.020910263061523438,2023-10-21T15:49:42.044427Z,1697903382044
0.03828144073486328,0.023087024688720703,-0.02864980697631836,2023-10-21T15:49:42.064621Z,1697903382064
0.05658149719238281,0.034223079681396484,-0.041034698486328125,2023-10-21T15:49:42.084856Z,1697903382084
0.07927322387695312,0.04831695556640625,-0.055573463439941406,2023-10-21T15:49:42.105147Z,1697903382105
0.10469198226928711,0.06443500518798828,-0.07078409194946289,2023-10-21T15:49:42.125453Z,1697903382125
0.13055133819580078,0.0811166763305664,-0.08502531051635742,2023-10-21T15:49:42.145700Z,1697903382145
0.15520143508911133,0.09715509414672852,-0.09740734100341797,2023-10-21T15:49:42.165952Z,1697903382165
0.17786550521850586,0.11185407638549805,-0.1077585220336914,2023-10-21T15:49:42.188269Z,1697903382188
0.1951766014099121,0.12294483184814453,-0.11445379257202148,2023-10-21T15:49:42.206500Z,1697903382206
0.201080322265625,0.12644481658935547,-0.11444473266601562,2023-10-21T15:49:42.226773Z,1697903382226
0.1909933090209961,0.11939287185668945,-0.10576295852661133,2023-10-21T15:49:42.247046Z,1697903382247
0.16546392440795898,0.10236454010009766,-0.08938026428222656,2023-10-21T15:49:42.267347Z,1697903382267
0.13062286376953125,0.0796499252319336,-0.06905126571655273,2023-10-21T15:49:42.287942Z,1697903382287
0.09565353393554688,0.05733537673950195,-0.049709320068359375,2023-10-21T15:49:42.307856Z,1697903382307
0.06839179992675781,0.040280818939208984,-0.035143375396728516,2023-10-21T15:49:42.328110Z,1697903382328
0.05465555191040039,0.03170585632324219,-0.027957677841186523,2023-10-21T15:49:42.348335Z,1697903382348
0.05766725540161133,0.0331110954284668,-0.02957892417907715,2023-10-21T15:49:42.371392Z,1697903382371
0.0787663459777832,0.04506826400756836,-0.04080486297607422,2023-10-21T15:49:42.388858Z,1697903382388
0.1179051399230957,0.06774520874023438,-0.06213665008544922,2023-10-21T15:49:42.409166Z,1697903382409
0.1727147102355957,0.10042476654052734,-0.09326553344726562,2023-10-21T15:49:42.429452Z,1697903382429
0.23882007598876953,0.14154386520385742,-0.13308334350585938,2023-10-21T15:49:42.449652Z,1697903382449
0.3106846809387207,0.1887836456298828,-0.17980051040649414,2023-10-21T15:49:42.471698Z,1697903382471
0.38283395767211914,0.23927021026611328,-0.23113059997558594,2023-10-21T15:49:42.490211Z,1697903382490
0.4473915100097656,0.28769636154174805,-0.2824821472167969,2023-10-21T15:49:42.510526Z,1697903382510
0.4954342842102051,0.32692670822143555,-0.3273601531982422,2023-10-21T15:49:42.530747Z,1697903382530
0.5210728645324707,0.35097646713256836,-0.36011505126953125,2023-10-21T15:49:42.550987Z,1697903382550
0.5224356651306152,0.35665082931518555,-0.3772273063659668,2023-10-21T15:49:42.571339Z,1697903382571
0.5009098052978516,0.34363317489624023,-0.37732982635498047,2023-10-21T15:49:42.591511Z,1697903382591
0.46094179153442383,0.31475067138671875,-0.3616657257080078,2023-10-21T15:49:42.611817Z,1697903382611
0.40888404846191406,0.27533674240112305,-0.33361148834228516,2023-10-21T15:49:42.631976Z,1697903382631
0.35314083099365234,0.23251056671142578,-0.2990121841430664,2023-10-21T15:49:42.654650Z,1697903382654
0.3009176254272461,0.19234037399291992,-0.26377058029174805,2023-10-21T15:49:42.672555Z,1697903382672
0.2569422721862793,0.15860509872436523,-0.23261022567749023,2023-10-21T15:49:42.692855Z,1697903382692
0.22679471969604492,0.13475465774536133,-0.21154451370239258,2023-10-21T15:49:42.713093Z,1697903382713
0.21757221221923828,0.12441611289978027,-0.20865392684936523,2023-10-21T15:49:42.733310Z,1697903382733
0.2339324951171875,0.1292119026184082,-0.23015785217285156,2023-10-21T15:49:42.754715Z,1697903382754
0.27507448196411133,0.1476907730102539,-0.2769050598144531,2023-10-21T15:49:42.774173Z,1697903382774
0.33490562438964844,0.17607712745666504,-0.34383583068847656,2023-10-21T15:49:42.794256Z,1697903382794
