GYR_X,GYR_Y,GYR_Z,DATE,UNIX_TIMESTAMP
-0.0026605629827827215,-0.003059647511690855,-0.0014633096288889647,2023-10-21T15:58:21.130190Z,1697903901130
-0.0039908443577587605,6.651407456956804E-4,0.0019954221788793802,2023-10-21T15:58:21.141231Z,1697903901141
0.0025275349617004395,-0.004256900865584612,-0.0039908443577587605,2023-10-21T15:58:21.150464Z,1697903901150
0.0015963378828018904,0.0019954221788793802,0.004655985161662102,2023-10-21T15:58:21.160110Z,1697903901160
-0.003325703786686063,0.0031926757656037807,-0.0017293660202994943,2023-10-21T15:58:21.170727Z,1697903901170
0.0013302814913913608,0.0018623941577970982,-0.0013302814913913608,2023-10-21T15:58:21.180335Z,1697903901180
-0.0027935912366956472,0.0011972533538937569,-3.990844707004726E-4,2023-10-21T15:58:21.191298Z,1697903901191
-7.981689414009452E-4,-0.0027935912366956472,-0.0022614786867052317,2023-10-21T15:58:21.200510Z,1697903901200
0.0031926757656037807,-0.001064225216396153,0.0047890134155750275,2023-10-21T15:58:21.211308Z,1697903901211
-0.0022614786867052317,0.0022614786867052317,0.0037247883155941963,2023-10-21T15:58:21.220624Z,1697903901220
0.0035917600616812706,0.004522957373410463,-0.0025275349617004395,2023-10-21T15:58:21.231500Z,1697903901231
-0.0011972533538937569,-5.321126081980765E-4,-0.0022614786867052317,2023-10-21T15:58:21.241079Z,1697903901241
-0.004522957373410463,0.0025275349617004395,-2.6605630409903824E-4,2023-10-21T15:58:21.251804Z,1697903901251
0.0015963378828018904,0.0025275349617004395,0.004389929119497538,2023-10-21T15:58:21.261372Z,1697903901261
-0.0023945067077875137,0.003059647511690855,-0.0031926757656037807,2023-10-21T15:58:21.278035Z,1697903901277
0.0034587320405989885,2.6605630409903824E-4,0.0015963378828018904,2023-10-21T15:58:21.281676Z,1697903901281
0.0019954221788793802,-0.0035917600616812706,0.004922041669487953,2023-10-21T15:58:21.292370Z,1697903901292
-0.0027935912366956472,0.0035917600616812706,0.003059647511690855,2023-10-21T15:58:21.301903Z,1697903901301
-0.002128450432792306,-0.002128450432792306,0.003325703786686063,2023-10-21T15:58:21.312921Z,1697903901312
-0.004389929119497538,-0.001064225216396153,-1.3302815204951912E-4,2023-10-21T15:58:21.325126Z,1697903901325
0.0014633096288889647,0.0027935912366956472,-0.003059647511690855,2023-10-21T15:58:21.333039Z,1697903901332
0.0034587320405989885,-5.321126081980765E-4,-0.003325703786686063,2023-10-21T15:58:21.342466Z,1697903901342
0.0017293660202994943,-1.3302815204951912E-4,-9.311970788985491E-4,2023-10-21T15:58:21.353300Z,1697903901353
-7.981689414009452E-4,0.0011972533538937569,1.3302815204951912E-4,2023-10-21T15:58:21.362796Z,1697903901362
9.311970788985491E-4,-6.651407456956804E-4,0.0015963378828018904,2023-10-21T15:58:21.375682Z,1697903901375
-0.0029266192577779293,-0.004522957373410463,-2.6605630409903824E-4,2023-10-21T15:58:21.383013Z,1697903901382
-0.004655985161662102,-5.321126081980765E-4,-0.0011972533538937569,2023-10-21T15:58:21.394089Z,1697903901393
0.0034587320405989885,-0.0017293660202994943,0.0031926757656037807,2023-10-21T15:58:21.403107Z,1697903901403
-0.0014633096288889647,0.0029266192577779293,0.0039908443577587605,2023-10-21T15:58:21.414348Z,1697903901414
0.0023945067077875137,0.0022614786867052317,-0.002128450432792306,2023-10-21T15:58:21.424921Z,1697903901424
-3.990844707004726E-4,-0.0037247883155941963,-1.3302815204951912E-4,2023-10-21T15:58:21.434409Z,1697903901434
-0.0039908443577587605,0.004256900865584612,0.0047890134155750275,2023-10-21T15:58:21.443799Z,1697903901443
7.981689414009452E-4,0.0018623941577970982,0.0017293660202994943,2023-10-21T15:58:21.454609Z,1697903901454
-0.0037247883155941963,-0.0018623941577970982,-0.0018623941577970982,2023-10-21T15:58:21.464084Z,1697903901463
9.311970788985491E-4,0.0031926757656037807,-0.0019954221788793802,2023-10-21T15:58:21.475264Z,1697903901475
-0.004922041669487953,-0.0027935912366956472,-0.0034587320405989885,2023-10-21T15:58:21.484162Z,1697903901484
-3.990844707004726E-4,0.0026605629827827215,-0.0038578163366764784,2023-10-21T15:58:21.495363Z,1697903901495
5.321126081980765E-4,-2.6605630409903824E-4,0.0034587320405989885,2023-10-21T15:58:21.504356Z,1697903901504
-0.001064225216396153,-0.0023945067077875137,-0.004389929119497538,2023-10-21T15:58:21.515660Z,1697903901515
-1.3302815204951912E-4,0.002128450432792306,-0.0018623941577970982,2023-10-21T15:58:21.525043Z,1697903901524
-0.0027935912366956472,3.990844707004726E-4,-0.0019954221788793802,2023-10-21T15:58:21.535557Z,1697903901535
-0.004655985161662102,0.0035917600616812706,-0.0029266192577779293,2023-10-21T15:58:21.545080Z,1697903901545
0.0025275349617004395,-0.002128450432792306,0.0018623941577970982,2023-10-21T15:58:21.558578Z,1697903901558
-0.0038578163366764784,0.001064225216396153,0.004123872611671686,2023-10-21T15:58:21.565340Z,1697903901565
0.0026605629827827215,-2.6605630409903824E-4,1.3302815204951912E-4,2023-10-21T15:58:21.576384Z,1697903901576
-0.0018623941577970982,-0.004256900865584612,-0.004922041669487953,2023-10-21T15:58:21.585539Z,1697903901585
-0.0029266192577779293,-0.0031926757656037807,-3.990844707004726E-4,2023-10-21T15:58:21.596699Z,1697903901596
0.053211260586977005,-0.07675724476575851,-0.29279497265815735,2023-10-21T15:58:21.607837Z,1697903901607
0.050018586218357086,-0.05720210447907448,-0.27470314502716064,2023-10-21T15:58:21.616758Z,1697903901616
0.04655985161662102,-0.027403799816966057,-0.2782948911190033,2023-10-21T15:58:21.626086Z,1697903901626
0.043500207364559174,-0.0018623941577970982,-0.28135454654693604,2023-10-21T15:58:21.636861Z,1697903901636
0.034986402839422226,-0.002128450432792306,-0.2727077007293701,2023-10-21T15:58:21.646412Z,1697903901646
0.027669856324791908,-0.0025275349617004395,-0.26525813341140747,2023-10-21T15:58:21.658482Z,1697903901658
0.015298237092792988,-0.05733513459563255,-0.25115716457366943,2023-10-21T15:58:21.666562Z,1697903901666
-0.0023945067077875137,-0.1552438586950302,-0.2507580518722534,2023-10-21T15:58:21.677599Z,1697903901677
-0.017825772985816002,-0.24410666525363922,-0.2398497611284256,2023-10-21T15:58:21.686743Z,1697903901686
-0.03392218053340912,-0.3309740424156189,-0.23612496256828308,2023-10-21T15:58:21.697807Z,1697903901697
-0.04988555610179901,-0.3974881172180176,-0.2359919399023056,2023-10-21T15:58:21.708542Z,1697903901708
-0.06611499190330505,-0.4319424033164978,-0.23080384731292725,2023-10-21T15:58:21.717996Z,1697903901717
-0.08261048048734665,-0.4384607970714569,-0.2179001122713089,2023-10-21T15:58:21.727415Z,1697903901727
-0.09804175049066544,-0.43486902117729187,-0.20566152036190033,2023-10-21T15:58:21.741924Z,1697903901741
-0.11028033494949341,-0.44324979186058044,-0.20592758059501648,2023-10-21T15:58:21.747693Z,1697903901747
-0.11866111308336258,-0.4800986051559448,-0.2228221595287323,2023-10-21T15:58:21.758642Z,1697903901758
-0.1251794844865799,-0.5567228198051453,-0.25102412700653076,2023-10-21T15:58:21.767880Z,1697903901767
-0.13289512693881989,-0.6780444979667664,-0.2832169234752655,2023-10-21T15:58:21.779019Z,1697903901778
-0.1432713270187378,-0.8327562212944031,-0.31261616945266724,2023-10-21T15:58:21.791396Z,1697903901791
-0.15670716762542725,-0.9963808655738831,-0.3342997431755066,2023-10-21T15:58:21.799063Z,1697903901799
-0.17386779189109802,-1.1395190954208374,-0.34268051385879517,2023-10-21T15:58:21.808457Z,1697903901808
-0.19555138051509857,-1.2400884628295898,-0.3315061628818512,2023-10-21T15:58:21.819260Z,1697903901819
-0.22189095616340637,-1.2915703058242798,-0.30104270577430725,2023-10-21T15:58:21.828790Z,1697903901828
-0.25062504410743713,-1.2995519638061523,-0.2614003121852875,2023-10-21T15:58:21.841782Z,1697903901841
-0.2786939740180969,-1.278267502784729,-0.22428546845912933,2023-10-21T15:58:21.848969Z,1697903901848
-0.3042353689670563,-1.2431480884552002,-0.19581744074821472,2023-10-21T15:58:21.860209Z,1697903901860
-0.3277813792228699,-1.210024118423462,-0.17586322128772736,2023-10-21T15:58:21.869201Z,1697903901869
-0.3513273596763611,-1.1912671327590942,-0.1624273806810379,2023-10-21T15:58:21.880361Z,1697903901880
-0.3752724230289459,-1.192331314086914,-0.15191814303398132,2023-10-21T15:58:21.891335Z,1697903901891
-0.39881840348243713,-1.2118864059448242,-0.1410098373889923,2023-10-21T15:58:21.900404Z,1697903901900
-0.4214331805706024,-1.2447444200515747,-0.12877124547958374,2023-10-21T15:58:21.909810Z,1697903901909
-0.44324979186058044,-1.2857171297073364,-0.11626660823822021,2023-10-21T15:58:21.920528Z,1697903901920
-0.4642682373523712,-1.3304145336151123,-0.10549132525920868,2023-10-21T15:58:21.930130Z,1697903901930
-0.48382338881492615,-1.374979019165039,-0.09817477315664291,2023-10-21T15:58:21.941710Z,1697903901941
-0.5012500882148743,-1.416882872581482,-0.09538118541240692,2023-10-21T15:58:21.950200Z,1697903901950
-0.5162822604179382,-1.455461025238037,-0.09724357724189758,2023-10-21T15:58:21.961299Z,1697903901961
-0.5289199352264404,-1.4917776584625244,-0.10362893342971802,2023-10-21T15:58:21.970432Z,1697903901970
-0.5396952033042908,-1.5279613733291626,-0.11480329185724258,2023-10-21T15:58:21.981676Z,1697903901981
-0.5494062900543213,-1.5661404132843018,-0.13050061464309692,2023-10-21T15:58:21.991239Z,1697903901991
-0.5592503547668457,-1.608709454536438,-0.15085391700267792,2023-10-21T15:58:22.001631Z,1697903902001
-0.5710898637771606,-1.656599521636963,-0.17626230418682098,2023-10-21T15:58:22.011163Z,1697903902011
-0.5857229828834534,-1.7090126276016235,-0.20566152036190033,2023-10-21T15:58:22.025137Z,1697903902025
-0.6023514866828918,-1.76288902759552,-0.2359919399023056,2023-10-21T15:58:22.031398Z,1697903902031
-0.6183148622512817,-1.8137058019638062,-0.2628636360168457,2023-10-21T15:58:22.042335Z,1697903902042
-0.6326819062232971,-1.8586692810058594,-0.2838820815086365,2023-10-21T15:58:22.051564Z,1697903902051
-0.6453195810317993,-1.896449327468872,-0.2997124195098877,2023-10-21T15:58:22.062708Z,1697903902062
-0.6575581431388855,-1.9279769659042358,-0.31314826011657715,2023-10-21T15:58:22.074608Z,1697903902074
-0.670461893081665,-1.9548486471176147,-0.3264510929584503,2023-10-21T15:58:22.082758Z,1697903902082
-0.6833656430244446,-1.9775965213775635,-0.3401529788970947,2023-10-21T15:58:22.092172Z,1697903902092
-0.6953381299972534,-1.9963535070419312,-0.3534558117389679,2023-10-21T15:58:22.102933Z,1697903902102
-0.7065125107765198,-2.010986566543579,-0.36635953187942505,2023-10-21T15:58:22.112488Z,1697903902112
-0.7174208164215088,-2.020963668823242,-0.37899720668792725,2023-10-21T15:58:22.124987Z,1697903902124
-0.7283291220664978,-2.026284694671631,-0.3924330472946167,2023-10-21T15:58:22.132662Z,1697903902132
-0.7391043901443481,-2.0285463333129883,-0.4083964228630066,2023-10-21T15:58:22.143711Z,1697903902143
-0.7493475675582886,-2.0297434329986572,-0.4287497401237488,2023-10-21T15:58:22.152870Z,1697903902152
-0.7593246698379517,-2.0320050716400146,-0.45469021797180176,2023-10-21T15:58:22.164044Z,1697903902164
-0.7690357565879822,-2.036262035369873,-0.48608487844467163,2023-10-21T15:58:22.174478Z,1697903902174
-0.7783477306365967,-2.043046474456787,-0.5230666995048523,2023-10-21T15:58:22.184021Z,1697903902184
-0.7881917953491211,-2.052757501602173,-0.5653696656227112,2023-10-21T15:58:22.193482Z,1697903902193
-0.8001643419265747,-2.065129041671753,-0.6125946640968323,2023-10-21T15:58:22.208025Z,1697903902207
-0.8145313858985901,-2.0793631076812744,-0.663278341293335,2023-10-21T15:58:22.213821Z,1697903902213
-0.8308938145637512,-2.0949273109436035,-0.7163565754890442,2023-10-21T15:58:22.224770Z,1697903902224
-0.8483205437660217,-2.111954927444458,-0.7712972164154053,2023-10-21T15:58:22.233886Z,1697903902233
-0.8650820851325989,-2.131110906600952,-0.827302098274231,2023-10-21T15:58:22.245022Z,1697903902245
-0.8801142573356628,-2.1541249752044678,-0.8842381238937378,2023-10-21T15:58:22.257812Z,1697903902257
-0.8938161730766296,-2.1837902069091797,-0.9442338347434998,2023-10-21T15:58:22.265076Z,1697903902265
-0.9100455641746521,-2.2235655784606934,-1.0103487968444824,2023-10-21T15:58:22.274527Z,1697903902274
-0.9307979941368103,-2.2747814655303955,-1.0837804079055786,2023-10-21T15:58:22.285362Z,1697903902285
-0.9544770121574402,-2.336240291595459,-1.1622669696807861,2023-10-21T15:58:22.294851Z,1697903902294
-0.9788211584091187,-2.406745433807373,-1.2422168254852295,2023-10-21T15:58:22.308131Z,1697903902308
-1.0019680261611938,-2.486030101776123,-1.320969581604004,2023-10-21T15:58:22.315052Z,1697903902315
-1.022720456123352,-2.57382869720459,-1.3966625928878784,2023-10-21T15:58:22.326021Z,1697903902325
-1.0384176969528198,-2.66748046875,-1.4671674966812134,2023-10-21T15:58:22.335244Z,1697903902335
-1.0470645427703857,-2.7629947662353516,-1.529557704925537,2023-10-21T15:58:22.346359Z,1697903902346
-1.0498582124710083,-2.857311725616455,-1.5811725854873657,2023-10-21T15:58:22.357680Z,1697903902357
-1.0489269495010376,-2.9468395709991455,-1.6208150386810303,2023-10-21T15:58:22.366439Z,1697903902366
-1.0442709922790527,-3.027188539505005,-1.6470215320587158,2023-10-21T15:58:22.375855Z,1697903902375
-1.0338947772979736,-3.092106342315674,-1.6560674905776978,2023-10-21T15:58:22.386596Z,1697903902386
-1.0154038667678833,-3.1362717151641846,-1.6422325372695923,2023-10-21T15:58:22.396206Z,1697903902396
-0.9885321855545044,-3.156092882156372,-1.6009937524795532,2023-10-21T15:58:22.408203Z,1697903902408
-0.9528806805610657,-3.15010666847229,-1.530222773551941,2023-10-21T15:58:22.416358Z,1697903902416
-0.9076510667800903,-3.118046760559082,-1.4316489696502686,2023-10-21T15:58:22.427375Z,1697903902427
-0.8531095385551453,-3.061243772506714,-1.3097951412200928,2023-10-21T15:58:22.436494Z,1697903902436
-0.7913844585418701,-2.981426954269409,-1.170514702796936,2023-10-21T15:58:22.447755Z,1697903902447
-0.7248703837394714,-2.881389856338501,-1.0211241245269775,2023-10-21T15:58:22.457630Z,1697903902457
-0.6564939022064209,-2.7639260292053223,-0.8692059516906738,2023-10-21T15:58:22.467708Z,1697903902467
-0.5905119776725769,-2.6340904235839844,-0.7222098112106323,2023-10-21T15:58:22.477189Z,1697903902477
-0.5314474701881409,-2.4974706172943115,-0.5859889984130859,2023-10-21T15:58:22.491737Z,1697903902491
-0.4814288914203644,-2.3584561347961426,-0.4642682373523712,2023-10-21T15:58:22.497442Z,1697903902497
-0.43885987997055054,-2.219308614730835,-0.3579787611961365,2023-10-21T15:58:22.508455Z,1697903902508
-0.4008138179779053,-2.0817575454711914,-0.266588419675827,2023-10-21T15:58:22.517599Z,1697903902517
-0.3638319969177246,-1.9466009140014648,-0.18916603922843933,2023-10-21T15:58:22.528808Z,1697903902528
-0.3248547613620758,-1.8147701025009155,-0.12464737892150879,2023-10-21T15:58:22.540936Z,1697903902540
-0.2830839157104492,-1.6881272792816162,-0.07170217484235764,2023-10-21T15:58:22.548875Z,1697903902548
-0.23745524883270264,-1.5680028200149536,-0.029399221763014793,2023-10-21T15:58:22.558219Z,1697903902558
-0.18783575296401978,-1.4551949501037598,0.0023945067077875137,2023-10-21T15:58:22.569024Z,1697903902568
-0.13369329273700714,-1.3494375944137573,0.023412954062223434,2023-10-21T15:58:22.578546Z,1697903902578
-0.07449576258659363,-1.250996708869934,0.03325703740119934,2023-10-21T15:58:22.591346Z,1697903902591
-0.011706477031111717,-1.1608036756515503,0.03259189799427986,2023-10-21T15:58:22.598707Z,1697903902598
0.05094978213310242,-1.0801886320114136,0.023146897554397583,2023-10-21T15:58:22.609815Z,1697903902609
0.11028033494949341,-1.0106148719787598,0.0065183793194592,2023-10-21T15:58:22.618914Z,1697903902618
0.16562004387378693,-0.952348530292511,-0.017027603462338448,2023-10-21T15:58:22.630111Z,1697903902630
0.21710194647312164,-0.9049904942512512,-0.047224994748830795,2023-10-21T15:58:22.640915Z,1697903902640
0.262996643781662,-0.8682747483253479,-0.08314259350299835,2023-10-21T15:58:22.650128Z,1697903902650
0.30024453997612,-0.8420681953430176,-0.12371618300676346,2023-10-21T15:58:22.659567Z,1697903902659
0.32525384426116943,-0.8277011513710022,-0.1690787822008133,2023-10-21T15:58:22.670336Z,1697903902670
0.33296945691108704,-0.8286323547363281,-0.22042764723300934,2023-10-21T15:58:22.679896Z,1697903902679
0.3195336163043976,-0.8479214310646057,-0.2782948911190033,2023-10-21T15:58:22.691096Z,1697903902691
0.28521236777305603,-0.885967493057251,-0.34268051385879517,2023-10-21T15:58:22.700031Z,1697903902699
0.23200109601020813,-0.9417062997817993,-0.41198819875717163,2023-10-21T15:58:22.711109Z,1697903902711
0.16335856914520264,-1.0128763914108276,-0.4839564263820648,2023-10-21T15:58:22.720159Z,1697903902720
0.08380773663520813,-1.0965510606765747,-0.555924654006958,2023-10-21T15:58:22.731411Z,1697903902731
-0.0019954221788793802,-1.188739538192749,-0.6253653168678284,2023-10-21T15:58:22.740678Z,1697903902740
-0.09072519838809967,-1.2859832048416138,-0.6902830600738525,2023-10-21T15:58:22.751423Z,1697903902751
-0.18025314807891846,-1.3846900463104248,-0.7480173110961914,2023-10-21T15:58:22.760960Z,1697903902760
-0.2701801657676697,-1.4820666313171387,-0.7959074378013611,2023-10-21T15:58:22.774515Z,1697903902774
-0.359575092792511,-1.5749202966690063,-0.8322241306304932,2023-10-21T15:58:22.781153Z,1697903902781
-0.4456443190574646,-1.6595262289047241,-0.8563022017478943,2023-10-21T15:58:22.792129Z,1697903902792
-0.5239979028701782,-1.731095314025879,-0.867742657661438,2023-10-21T15:58:22.801300Z,1697903902801
-0.5905119776725769,-1.785104751586914,-0.8660132884979248,2023-10-21T15:58:22.812454Z,1697903902812
-0.6423929333686829,-1.8186278343200684,-0.8507150411605835,2023-10-21T15:58:22.823803Z,1697903902823
-0.6787096261978149,-1.8312655687332153,-0.8222470283508301,2023-10-21T15:58:22.832442Z,1697903902832
-0.700526237487793,-1.825944423675537,-0.7816734313964844,2023-10-21T15:58:22.841908Z,1697903902841
-0.7101042866706848,-1.8070544004440308,-0.7315217852592468,2023-10-21T15:58:22.852714Z,1697903902852
-0.7099712491035461,-1.7785863876342773,-0.6748518347740173,2023-10-21T15:58:22.862244Z,1697903902862
-0.7017235159873962,-1.7437330484390259,-0.614989161491394,2023-10-21T15:58:22.874391Z,1697903902874
-0.6870903968811035,-1.7043566703796387,-0.5543283224105835,2023-10-21T15:58:22.882370Z,1697903902882
-0.6664710640907288,-1.66098952293396,-0.4945986568927765,2023-10-21T15:58:22.893445Z,1697903902893
-0.6398653984069824,-1.6124342679977417,-0.4369974732398987,2023-10-21T15:58:22.902530Z,1697903902902
-0.6083377599716187,-1.5584248304367065,-0.38112565875053406,2023-10-21T15:58:22.913816Z,1697903902913
-0.5738834738731384,-1.500158429145813,-0.3260520100593567,2023-10-21T15:58:22.924358Z,1697903902924
-0.5391631126403809,-1.4398967027664185,-0.27137744426727295,2023-10-21T15:58:22.933732Z,1697903902933
-0.5063051581382751,-1.38003408908844,-0.21710194647312164,2023-10-21T15:58:22.943279Z,1697903902943
-0.4758417010307312,-1.3207035064697266,-0.16402371227741241,2023-10-21T15:58:22.957844Z,1697903902957
-0.44750669598579407,-1.2612398862838745,-0.11307393014431,2023-10-21T15:58:22.963508Z,1697903902963
-0.4209010601043701,-1.2011111974716187,-0.0647847130894661,2023-10-21T15:58:22.974458Z,1697903902974
-0.3969559967517853,-1.141514539718628,-0.018623940646648407,2023-10-21T15:58:22.983723Z,1697903902983
-0.37686875462532043,-1.08364737033844,0.0260735172778368,2023-10-21T15:58:22.994825Z,1697903902994
-0.3611714243888855,-1.0276424884796143,0.07010583579540253,2023-10-21T15:58:23.007281Z,1697903903007
-0.34986403584480286,-0.9723027348518372,0.11400512605905533,2023-10-21T15:58:23.014885Z,1697903903014
-0.3430795967578888,-0.9162979125976562,0.15777139365673065,2023-10-21T15:58:23.024283Z,1697903903024
-0.34228143095970154,-0.8594948649406433,0.20167067646980286,2023-10-21T15:58:23.035130Z,1697903903035
-0.34893283247947693,-0.8020267486572266,0.2458360195159912,2023-10-21T15:58:23.044597Z,1697903903044
-0.363166868686676,-0.7436273694038391,0.2898683547973633,2023-10-21T15:58:23.057382Z,1697903903057
-0.38218986988067627,-0.6827004551887512,0.3324373662471771,2023-10-21T15:58:23.064861Z,1697903903064
-0.40320831537246704,-0.6183148622512817,0.3720797300338745,2023-10-21T15:58:23.075825Z,1697903903075
-0.4242267906665802,-0.551401674747467,0.407731294631958,2023-10-21T15:58:23.084999Z,1697903903084
-0.444580078125,-0.48555275797843933,0.43832775950431824,2023-10-21T15:58:23.096164Z,1697903903096
-0.4622728228569031,-0.4231625497341156,0.46307098865509033,2023-10-21T15:58:23.107187Z,1697903903107
-0.47384628653526306,-0.36516228318214417,0.4808967709541321,2023-10-21T15:58:23.116244Z,1697903903116
-0.47451141476631165,-0.3102216422557831,0.49100691080093384,2023-10-21T15:58:23.125617Z,1697903903125
-0.46067649126052856,-0.25647827982902527,0.493002325296402,2023-10-21T15:58:23.136377Z,1697903903136
-0.4314102828502655,-0.20326702296733856,0.4883463382720947,2023-10-21T15:58:23.145920Z,1697903903145
-0.3873779773712158,-0.15072089433670044,0.47890135645866394,2023-10-21T15:58:23.157334Z,1697903903157
-0.33004283905029297,-0.09724357724189758,0.4677269756793976,2023-10-21T15:58:23.166072Z,1697903903166
-0.2607351839542389,-0.03977541625499725,0.4581489562988281,2023-10-21T15:58:23.177132Z,1697903903177
-0.18304674327373505,0.022747814655303955,0.45309388637542725,2023-10-21T15:58:23.186236Z,1697903903186
-0.10216562449932098,0.08912885934114456,0.45362600684165955,2023-10-21T15:58:23.197447Z,1697903903197
-0.02168358862400055,0.15684019029140472,0.455488383769989,2023-10-21T15:58:23.207051Z,1697903903207
0.05746816098690033,0.22348730266094208,0.45149755477905273,2023-10-21T15:58:23.217446Z,1697903903217
0.13356027007102966,0.28454720973968506,0.4340708553791046,2023-10-21T15:58:23.226964Z,1697903903226
0.20153765380382538,0.33283644914627075,0.3974881172180176,2023-10-21T15:58:23.240742Z,1697903903240
0.25594615936279297,0.36090537905693054,0.3376254439353943,2023-10-21T15:58:23.247225Z,1697903903247
0.2921298146247864,0.363432914018631,0.251822292804718,2023-10-21T15:58:23.258134Z,1697903903258
0.30716201663017273,0.33842360973358154,0.13981258869171143,2023-10-21T15:58:23.267428Z,1697903903267
0.2986482083797455,0.28614354133605957,0.004655985161662102,2023-10-21T15:58:23.278526Z,1697903903278
0.26818475127220154,0.21257898211479187,-0.1432713270187378,2023-10-21T15:58:23.290295Z,1697903903290
0.22215701639652252,0.12917032837867737,-0.2865426540374756,2023-10-21T15:58:23.298610Z,1697903903298
0.17187237739562988,0.05361034348607063,-0.4045386016368866,2023-10-21T15:58:23.308052Z,1697903903308
0.13036759197711945,0.004522957373410463,-0.47890135645866394,2023-10-21T15:58:23.318832Z,1697903903318
0.10961519926786423,-0.0034587320405989885,-0.4973922669887543,2023-10-21T15:58:23.328331Z,1697903903328
0.11839505285024643,0.038445137441158295,-0.4556214213371277,2023-10-21T15:58:23.340510Z,1697903903340
0.15670716762542725,0.1273079365491867,-0.3610384166240692,2023-10-21T15:58:23.348453Z,1697903903348
0.21696890890598297,0.25049200654029846,-0.23120293021202087,2023-10-21T15:58:23.359535Z,1697903903359
0.28627657890319824,0.3875110149383545,-0.09139034152030945,2023-10-21T15:58:23.368677Z,1697903903368
0.34999707341194153,0.5170804262161255,0.03538548946380615,2023-10-21T15:58:23.380007Z,1697903903379
0.3940293788909912,0.6213744878768921,0.13356027007102966,2023-10-21T15:58:23.390358Z,1697903903390
0.40813037753105164,0.6888197660446167,0.19608350098133087,2023-10-21T15:58:23.399864Z,1697903903399
0.39003854990005493,0.7180859446525574,0.22375334799289703,2023-10-21T15:58:23.409304Z,1697903903409
0.34667137265205383,0.7160905599594116,0.22348730266094208,2023-10-21T15:58:23.423790Z,1697903903423
0.289336234331131,0.6945399641990662,0.20659272372722626,2023-10-21T15:58:23.429587Z,1697903903429
0.22814327478408813,0.6646086573600769,0.18411096930503845,2023-10-21T15:58:23.440718Z,1697903903440
0.17000998556613922,0.6348103284835815,0.16455581784248352,2023-10-21T15:58:23.449762Z,1697903903449
0.11932624876499176,0.6108652949333191,0.15338145196437836,2023-10-21T15:58:23.460957Z,1697903903460
0.0779544934630394,0.5957000851631165,0.15245026350021362,2023-10-21T15:58:23.473611Z,1697903903473
0.045096542686223984,0.5898468494415283,0.16176223754882812,2023-10-21T15:58:23.481006Z,1697903903480
0.01849091239273548,0.5914431810379028,0.17918892204761505,2023-10-21T15:58:23.490380Z,1697903903490
-0.0039908443577587605,0.5984936356544495,0.2024688422679901,2023-10-21T15:58:23.501278Z,1697903903501
-0.023679010570049286,0.6084707379341125,0.22814327478408813,2023-10-21T15:58:23.510693Z,1697903903510
-0.040972672402858734,0.618713915348053,0.25275349617004395,2023-10-21T15:58:23.524144Z,1697903903524
-0.05547273904085159,0.6262965202331543,0.2735058665275574,2023-10-21T15:58:23.530906Z,1697903903530
-0.06704618781805038,0.6288240551948547,0.28787291049957275,2023-10-21T15:58:23.541903Z,1697903903541
-0.07609210163354874,0.6237689852714539,0.2937261462211609,2023-10-21T15:58:23.551037Z,1697903903551
-0.08327562361955643,0.60820472240448,0.289336234331131,2023-10-21T15:58:23.562276Z,1697903903562
-0.09085822850465775,0.5790715217590332,0.27417102456092834,2023-10-21T15:58:23.573216Z,1697903903573
-0.08819766342639923,0.5197409987449646,0.24437271058559418,2023-10-21T15:58:23.582306Z,1697903903582
-0.10602343827486038,0.463204026222229,0.211381733417511,2023-10-21T15:58:23.591715Z,1697903903591
-0.13874836266040802,0.411190003156662,0.17586322128772736,2023-10-21T15:58:23.602473Z,1697903903602
-0.15231724083423615,0.33895573019981384,0.13249604403972626,2023-10-21T15:58:23.612012Z,1697903903611
-0.16003286838531494,0.26978108286857605,0.091656394302845,2023-10-21T15:58:23.624432Z,1697903903624
-0.15923470258712769,0.20885419845581055,0.058266330510377884,2023-10-21T15:58:23.632219Z,1697903903632
-0.14500068128108978,0.1680145561695099,0.04083964228630066,2023-10-21T15:58:23.643281Z,1697903903643
-0.12384921312332153,0.14353737235069275,0.03485337644815445,2023-10-21T15:58:23.652319Z,1697903903652
-0.10575737804174423,0.12251892685890198,0.02979830652475357,2023-10-21T15:58:23.663563Z,1697903903663
-0.0658489316701889,0.11427118629217148,0.044697459787130356,2023-10-21T15:58:23.673578Z,1697903903673
-0.01822485774755478,0.12105561792850494,0.0751609057188034,2023-10-21T15:58:23.683559Z,1697903903683
0.00784866139292717,0.1311657577753067,0.10083533823490143,2023-10-21T15:58:23.693001Z,1697903903692
0.021417532116174698,0.13755111396312714,0.1218537837266922,2023-10-21T15:58:23.703987Z,1697903903703
0.023146897554397583,0.12917032837867737,0.12105561792850494,2023-10-21T15:58:23.713343Z,1697903903713
0.015298237092792988,0.11839505285024643,0.12371618300676346,2023-10-21T15:58:23.724317Z,1697903903724
0.008513801731169224,0.1092161163687706,0.12597766518592834,2023-10-21T15:58:23.733557Z,1697903903733
-0.00944499857723713,0.07449576258659363,0.11161062121391296,2023-10-21T15:58:23.744635Z,1697903903744
-0.024876264855265617,0.04483048617839813,0.09923899918794632,2023-10-21T15:58:23.756777Z,1697903903756
-0.03964238986372948,0.00611929502338171,0.09365181624889374,2023-10-21T15:58:23.764639Z,1697903903764
-0.058266330510377884,-0.03924330323934555,0.10216562449932098,2023-10-21T15:58:23.774023Z,1697903903773
-0.06052780896425247,-0.052945204079151154,0.1218537837266922,2023-10-21T15:58:23.784869Z,1697903903784
-0.06079386547207832,-0.052945204079151154,0.15511082112789154,2023-10-21T15:58:23.794376Z,1697903903794
-0.0609268918633461,-0.04150478169322014,0.198078915476799,2023-10-21T15:58:23.806966Z,1697903903806
-0.06292231380939484,-0.02381203882396221,0.24344152212142944,2023-10-21T15:58:23.814554Z,1697903903814
-0.06983978301286697,-0.0065183793194592,0.2838820815086365,2023-10-21T15:58:23.825585Z,1697903903825
-0.08500499278306961,0.003325703786686063,0.31474462151527405,2023-10-21T15:58:23.834720Z,1697903903834
-0.10788583010435104,0.0019954221788793802,0.333634614944458,2023-10-21T15:58:23.845950Z,1697903903845
-0.13302814960479736,-0.009977111592888832,0.34055206179618835,2023-10-21T15:58:23.856693Z,1697903903856
-0.15351448953151703,-0.030330419540405273,0.3358960747718811,2023-10-21T15:58:23.865963Z,1697903903865
-0.1657530814409256,-0.05720210447907448,0.3200657367706299,2023-10-21T15:58:23.875454Z,1697903903875
-0.1696108877658844,-0.0911242812871933,0.29399222135543823,2023-10-21T15:58:23.886119Z,1697903903886
-0.16562004387378693,-0.13036759197711945,0.26033610105514526,2023-10-21T15:58:23.895694Z,1697903903895
-0.1541796326637268,-0.17213842272758484,0.2245515137910843,2023-10-21T15:58:23.906964Z,1697903903906
-0.13648688793182373,-0.21217989921569824,0.1926247626543045,2023-10-21T15:58:23.915869Z,1697903903915
-0.11453723907470703,-0.2470332831144333,0.16828061640262604,2023-10-21T15:58:23.926937Z,1697903903926
-0.09019308537244797,-0.2737719416618347,0.15391357243061066,2023-10-21T15:58:23.935987Z,1697903903935
-0.06425260007381439,-0.2888041138648987,0.15111997723579407,2023-10-21T15:58:23.947251Z,1697903903947
-0.03671576827764511,-0.2902674376964569,0.15923470258712769,2023-10-21T15:58:23.956510Z,1697903903956
-0.009045914746820927,-0.2798912227153778,0.17546413838863373,2023-10-21T15:58:23.967235Z,1697903903967
0.013302815146744251,-0.26419392228126526,0.19448715448379517,2023-10-21T15:58:23.976716Z,1697903903976
0.02381203882396221,-0.25102412700653076,0.2107165902853012,2023-10-21T15:58:23.990382Z,1697903903990
0.01849091239273548,-0.24463877081871033,0.21989554166793823,2023-10-21T15:58:23.996921Z,1697903903996
-0.0029266192577779293,-0.24663420021533966,0.21989554166793823,2023-10-21T15:58:24.007985Z,1697903904007
-0.03791302442550659,-0.25607919692993164,0.21178081631660461,2023-10-21T15:58:24.017142Z,1697903904017
-0.0818123146891594,-0.27097833156585693,0.19728074967861176,2023-10-21T15:58:24.028283Z,1697903904028
-0.127840057015419,-0.2885380685329437,0.17918892204761505,2023-10-21T15:58:24.039835Z,1697903904039
-0.16987694799900055,-0.30649685859680176,0.1596337854862213,2023-10-21T15:58:24.048349Z,1697903904048
-0.2031339854001999,-0.322726309299469,0.1410098373889923,2023-10-21T15:58:24.057750Z,1697903904057
-0.22468455135822296,-0.3358960747718811,0.12491343170404434,2023-10-21T15:58:24.068513Z,1697903904068
-0.23253321647644043,-0.3441438376903534,0.11280786991119385,2023-10-21T15:58:24.078037Z,1697903904077
-0.22574877738952637,-0.34600621461868286,0.1053582951426506,2023-10-21T15:58:24.090201Z,1697903904090
-0.20512941479682922,-0.34108418226242065,0.10256470739841461,2023-10-21T15:58:24.098200Z,1697903904098
-0.17187237739562988,-0.3288455903530121,0.10389498621225357,2023-10-21T15:58:24.109313Z,1697903904109
-0.14114287495613098,-0.2974509596824646,0.09777569025754929,2023-10-21T15:58:24.118381Z,1697903904118
-0.08846372365951538,-0.27536827325820923,0.10642252117395401,2023-10-21T15:58:24.129612Z,1697903904129
-0.018623940646648407,-0.26379483938217163,0.12438131868839264,2023-10-21T15:58:24.139734Z,1697903904139
0.03644971549510956,-0.23998278379440308,0.12544554471969604,2023-10-21T15:58:24.149637Z,1697903904149
0.08886280655860901,-0.22162489593029022,0.12039047479629517,2023-10-21T15:58:24.159043Z,1697903904159
0.13795019686222076,-0.2096523642539978,0.10722068697214127,2023-10-21T15:58:24.173567Z,1697903904173
0.18317976593971252,-0.20379912853240967,0.08713343739509583,2023-10-21T15:58:24.179340Z,1697903904179
0.22255609929561615,-0.20379912853240967,0.06385350972414017,2023-10-21T15:58:24.190278Z,1697903904190
0.25501495599746704,-0.2080560326576233,0.04177083820104599,2023-10-21T15:58:24.199570Z,1697903904199
0.2820196747779846,-0.2129780650138855,0.023945067077875137,2023-10-21T15:58:24.210625Z,1697903904210
0.30596473813056946,-0.21364320814609528,0.012105561792850494,2023-10-21T15:58:24.223084Z,1697903904223
0.3277813792228699,-0.20672574639320374,0.0070504918694496155,2023-10-21T15:58:24.230680Z,1697903904230
0.3458732068538666,-0.1926247626543045,0.007449576631188393,2023-10-21T15:58:24.240128Z,1697903904240
0.3555842638015747,-0.17466595768928528,0.010376195423305035,2023-10-21T15:58:24.250880Z,1697903904250
0.33177220821380615,-0.15324842929840088,0.011041336692869663,2023-10-21T15:58:24.260424Z,1697903904260
0.31807032227516174,-0.14406949281692505,0.008247745223343372,2023-10-21T15:58:24.273441Z,1697903904273
0.3062308132648468,-0.1360878050327301,0.00572021072730422,2023-10-21T15:58:24.280605Z,1697903904280
0.2749691903591156,-0.14633096754550934,-0.017027603462338448,2023-10-21T15:58:24.291637Z,1697903904291
0.2524874210357666,-0.17719349265098572,-0.05733513459563255,2023-10-21T15:58:24.300844Z,1697903904300
0.2250836342573166,-0.19954222440719604,-0.09591329842805862,2023-10-21T15:58:24.311997Z,1697903904311
0.20552849769592285,-0.22428546845912933,-0.13701899349689484,2023-10-21T15:58:24.322840Z,1697903904322
0.19608350098133087,-0.24743236601352692,-0.17706046998500824,2023-10-21T15:58:24.332007Z,1697903904331
0.19634954631328583,-0.2661893367767334,-0.21311110258102417,2023-10-21T15:58:24.341477Z,1697903904341
0.2036661058664322,-0.2786939740180969,-0.2426433563232422,2023-10-21T15:58:24.352228Z,1697903904352
0.21377624571323395,-0.2844142019748688,-0.26419392228126526,2023-10-21T15:58:24.361733Z,1697903904361
0.22322124242782593,-0.28295087814331055,-0.277762770652771,2023-10-21T15:58:24.373157Z,1697903904373
0.22920750081539154,-0.27590039372444153,-0.285478413105011,2023-10-21T15:58:24.381865Z,1697903904381
0.23013870418071747,-0.2656572163105011,-0.289336234331131,2023-10-21T15:58:24.392974Z,1697903904392
0.22521665692329407,-0.2546158730983734,-0.29053348302841187,2023-10-21T15:58:24.402055Z,1697903904402
0.21550559997558594,-0.24397362768650055,-0.29000136256217957,2023-10-21T15:58:24.413307Z,1697903904413
0.20459729433059692,-0.23333138227462769,-0.28867107629776,2023-10-21T15:58:24.422856Z,1697903904422
0.19608350098133087,-0.22149187326431274,-0.28720778226852417,2023-10-21T15:58:24.433309Z,1697903904433
0.1920926570892334,-0.20872117578983307,-0.28561145067214966,2023-10-21T15:58:24.442807Z,1697903904442
0.19275778532028198,-0.19634954631328583,-0.28348299860954285,2023-10-21T15:58:24.456582Z,1697903904456
0.19728074967861176,-0.18530821800231934,-0.2805563807487488,2023-10-21T15:58:24.462995Z,1697903904462
0.20566152036190033,-0.17586322128772736,-0.2776297628879547,2023-10-21T15:58:24.474579Z,1697903904474
0.21750102937221527,-0.166817307472229,-0.27683159708976746,2023-10-21T15:58:24.483238Z,1697903904483
0.23093686997890472,-0.15817047655582428,-0.2794921398162842,2023-10-21T15:58:24.494341Z,1697903904494
0.24104700982570648,-0.15165209770202637,-0.2853453755378723,2023-10-21T15:58:24.506247Z,1697903904506
0.24157913029193878,-0.15111997723579407,-0.29252889752388,2023-10-21T15:58:24.514402Z,1697903904514
0.22854237258434296,-0.15843652188777924,-0.2991803288459778,2023-10-21T15:58:24.523819Z,1697903904523
0.201936736702919,-0.17253752052783966,-0.3047674894332886,2023-10-21T15:58:24.534627Z,1697903904534
0.16402371227741241,-0.19062934815883636,-0.30822622776031494,2023-10-21T15:58:24.544130Z,1697903904544
0.11733082681894302,-0.21058356761932373,-0.307295024394989,2023-10-21T15:58:24.556530Z,1697903904556
0.06598196178674698,-0.2305377870798111,-0.29997849464416504,2023-10-21T15:58:24.564348Z,1697903904564
0.016229433938860893,-0.24783144891262054,-0.28561145067214966,2023-10-21T15:58:24.575337Z,1697903904575
-0.025541406124830246,-0.25940489768981934,-0.2633957266807556,2023-10-21T15:58:24.584621Z,1697903904584
-0.05374337360262871,-0.26153334975242615,-0.23120293021202087,2023-10-21T15:58:24.595402Z,1697903904595
-0.059197526425123215,-0.24078094959259033,-0.19688166677951813,2023-10-21T15:58:24.604796Z,1697903904604
-0.05627090856432915,-0.2200285643339157,-0.14007864892482758,2023-10-21T15:58:24.615914Z,1697903904615
-0.04749105125665665,-0.2008725106716156,-0.06598196178674698,2023-10-21T15:58:24.625221Z,1697903904625
-0.02354598231613636,-0.16269342601299286,6.651407456956804E-4,2023-10-21T15:58:24.636352Z,1697903904636
0.0034587320405989885,-0.11959230899810791,0.06717921793460846,2023-10-21T15:58:24.645420Z,1697903904645
0.02860105223953724,-0.07529393583536148,0.12863822281360626,2023-10-21T15:58:24.656615Z,1697903904656
0.04429837316274643,-0.03578457236289978,0.18211553990840912,2023-10-21T15:58:24.665650Z,1697903904665
0.04296809434890747,-0.007449576631188393,0.22641392052173615,2023-10-21T15:58:24.676656Z,1697903904676
0.023146897554397583,0.007981688715517521,0.2619324326515198,2023-10-21T15:58:24.689272Z,1697903904689
-0.009977111592888832,0.013435843400657177,0.2897353172302246,2023-10-21T15:58:24.696740Z,1697903904696
-0.04642682522535324,0.01476612500846386,0.31208404898643494,2023-10-21T15:58:24.706145Z,1697903904706
-0.07822055369615555,0.01755971647799015,0.33017587661743164,2023-10-21T15:58:24.716972Z,1697903904716
-0.10110139846801758,0.02474323660135269,0.3453410863876343,2023-10-21T15:58:24.726467Z,1697903904726
-0.11480329185724258,0.03644971549510956,0.3579787611961365,2023-10-21T15:58:24.739588Z,1697903904739
-0.12211984395980835,0.05055069923400879,0.36862102150917053,2023-10-21T15:58:24.746701Z,1697903904746
-0.12797307968139648,0.06332139670848846,0.3770017921924591,2023-10-21T15:58:24.757602Z,1697903904757
-0.1366199105978012,0.07223428785800934,0.3819238245487213,2023-10-21T15:58:24.766889Z,1697903904766
-0.15138603746891022,0.07595907151699066,0.3815247416496277,2023-10-21T15:58:24.777953Z,1697903904777
-0.1729366034269333,0.07489485293626785,0.3755384683609009,2023-10-21T15:58:24.789101Z,1697903904789
-0.20060645043849945,0.0691746398806572,0.36529529094696045,2023-10-21T15:58:24.797984Z,1697903904797
-0.23120293021202087,0.06026175245642662,0.35305672883987427,2023-10-21T15:58:24.807461Z,1697903904807
-0.2606021463871002,0.050683725625276566,0.3408181369304657,2023-10-21T15:58:24.818228Z,1697903904818
-0.28507933020591736,0.042169924825429916,0.32897862792015076,2023-10-21T15:58:24.827841Z,1697903904827
-0.3025060296058655,0.03578457236289978,0.31753820180892944,2023-10-21T15:58:24.839457Z,1697903904839
-0.31314826011657715,0.030995558947324753,0.30662989616394043,2023-10-21T15:58:24.847973Z,1697903904847
-0.3183363676071167,0.02727077156305313,0.29625368118286133,2023-10-21T15:58:24.859084Z,1697903904859
-0.3195336163043976,0.024344151839613914,0.2858774960041046,2023-10-21T15:58:24.868259Z,1697903904868
-0.3171391189098358,0.022348729893565178,0.27483615279197693,2023-10-21T15:58:24.879447Z,1697903904879
-0.31101980805397034,0.02168358862400055,0.2623315155506134,2023-10-21T15:58:24.889648Z,1697903904889
-0.30170783400535583,0.022348729893565178,0.24836355447769165,2023-10-21T15:58:24.899527Z,1697903904899
-0.29066652059555054,0.023146897554397583,0.23279926180839539,2023-10-21T15:58:24.908777Z,1697903904908
-0.26419392228126526,0.021550560370087624,0.20818905532360077,2023-10-21T15:58:24.919686Z,1697903904919
-0.25927186012268066,0.015431265346705914,0.19102843105793,2023-10-21T15:58:24.929104Z,1697903904929
-0.25488194823265076,0.010110139846801758,0.17639532685279846,2023-10-21T15:58:24.940021Z,1697903904939
-0.2542167901992798,-0.005188097711652517,0.1515190601348877,2023-10-21T15:58:24.949339Z,1697903904949
-0.2727077007293701,-0.028468023985624313,0.12424829602241516,2023-10-21T15:58:24.960381Z,1697903904960
-0.2740379869937897,-0.04709196463227272,0.09099125862121582,2023-10-21T15:58:24.972407Z,1697903904972
-0.2828178405761719,-0.06811041384935379,0.05680302157998085,2023-10-21T15:58:24.980492Z,1697903904980
-0.3001115024089813,-0.09019308537244797,0.023945067077875137,2023-10-21T15:58:24.989860Z,1697903904989
-0.3244556486606598,-0.11174365133047104,-0.004922041669487953,2023-10-21T15:58:25.000634Z,1697903905000
-0.351859450340271,-0.13089969754219055,-0.027669856324791908,2023-10-21T15:58:25.010159Z,1697903905010
-0.3787311613559723,-0.1459318846464157,-0.04363323375582695,2023-10-21T15:58:25.023148Z,1697903905023
-0.4017450213432312,-0.1552438586950302,-0.052546121180057526,2023-10-21T15:58:25.030383Z,1697903905030
-0.4198368489742279,-0.15870258212089539,-0.053876399993896484,2023-10-21T15:58:25.041370Z,1697903905041
-0.4324745237827301,-0.15604202449321747,-0.0477571077644825,2023-10-21T15:58:25.050639Z,1697903905050
-0.43885987997055054,-0.14752821624279022,-0.03578457236289978,2023-10-21T15:58:25.061678Z,1697903905061
-0.43979108333587646,-0.1339593529701233,-0.020220279693603516,2023-10-21T15:58:25.072716Z,1697903905072
-0.4361993074417114,-0.1169317439198494,-0.0037247883155941963,2023-10-21T15:58:25.081752Z,1697903905081
-0.4291488230228424,-0.09844083338975906,0.01144042145460844,2023-10-21T15:58:25.091184Z,1697903905091
-0.4191717207431793,-0.07994992285966873,0.02288084290921688,2023-10-21T15:58:25.101989Z,1697903905101
-0.4068000912666321,-0.06265626102685928,0.02860105223953724,2023-10-21T15:58:25.111455Z,1697903905111
-0.37074947357177734,-0.05055069923400879,0.027669856324791908,2023-10-21T15:58:25.123092Z,1697903905123
-0.3589099645614624,-0.03698182478547096,0.01755971647799015,2023-10-21T15:58:25.131676Z,1697903905131
-0.36848798394203186,-0.023679010570049286,-0.003059647511690855,2023-10-21T15:58:25.142672Z,1697903905142
-0.3551851511001587,-0.01888999715447426,-0.033124011009931564,2023-10-21T15:58:25.151822Z,1697903905151
-0.34600621461868286,-0.01915605366230011,-0.07183520495891571,2023-10-21T15:58:25.163007Z,1697903905162
-0.3396208584308624,-0.023013871163129807,-0.11892716586589813,2023-10-21T15:58:25.172699Z,1697903905172
-0.33403369784355164,-0.029133165255188942,-0.17479899525642395,2023-10-21T15:58:25.183085Z,1697903905183
-0.32804742455482483,-0.03698182478547096,-0.23958370089530945,2023-10-21T15:58:25.192507Z,1697903905192
-0.32232722640037537,-0.04642682522535324,-0.3127491772174835,2023-10-21T15:58:25.206225Z,1697903905206
-0.3178042471408844,-0.05746816098690033,-0.3940293788909912,2023-10-21T15:58:25.212792Z,1697903905212
-0.31687304377555847,-0.07063794881105423,-0.4828921854496002,2023-10-21T15:58:25.223727Z,1697903905223
-0.322726309299469,-0.0877985805273056,-0.5788055062294006,2023-10-21T15:58:25.232973Z,1697903905232
-0.33682727813720703,-0.10948216915130615,-0.6800399422645569,2023-10-21T15:58:25.244081Z,1697903905244
-0.35864388942718506,-0.13489054143428802,-0.7843340039253235,2023-10-21T15:58:25.255652Z,1697903905255
-0.3876440227031708,-0.1630925089120865,-0.8887611031532288,2023-10-21T15:58:25.264188Z,1697903905264
-0.42183226346969604,-0.1931568831205368,-0.9901285171508789,2023-10-21T15:58:25.273512Z,1697903905273
-0.4582819938659668,-0.22308820486068726,-1.086440920829773,2023-10-21T15:58:25.284321Z,1697903905284
-0.49473169445991516,-0.25062504410743713,-1.176367998123169,2023-10-21T15:58:25.293838Z,1697903905293
-0.5307823419570923,-0.27483615279197693,-1.2581802606582642,2023-10-21T15:58:25.305924Z,1697903905305
-0.5665668845176697,-0.2958545982837677,-1.3285521268844604,2023-10-21T15:58:25.314073Z,1697903905314
-0.6020854115486145,-0.3135473430156708,-1.3825615644454956,2023-10-21T15:58:25.324983Z,1697903905324
-0.636406660079956,-0.3260520100593567,-1.4151535034179688,2023-10-21T15:58:25.334185Z,1697903905334
-0.6680673956871033,-0.3299098312854767,-1.4227360486984253,2023-10-21T15:58:25.345290Z,1697903905345
-0.6944069266319275,-0.322726309299469,-1.404644250869751,2023-10-21T15:58:25.355574Z,1697903905355
-0.7136960625648499,-0.30609777569770813,-1.3635385036468506,2023-10-21T15:58:25.365357Z,1697903905365
-0.726333737373352,-0.28521236777305603,-1.3043410778045654,2023-10-21T15:58:25.374898Z,1697903905374
-0.734581470489502,-0.26366180181503296,-1.232372760772705,2023-10-21T15:58:25.389423Z,1697903905389
-0.7401686310768127,-0.2431754618883133,-1.1524229049682617,2023-10-21T15:58:25.395112Z,1697903905395
-0.7434943318367004,-0.2250836342573166,-1.0680830478668213,2023-10-21T15:58:25.406007Z,1697903905405
-0.7408337593078613,-0.20885419845581055,-0.9793532490730286,2023-10-21T15:58:25.415302Z,1697903905415
-0.7265997529029846,-0.19102843105793,-0.8830408453941345,2023-10-21T15:58:25.426410Z,1697903905426
-0.6944069266319275,-0.16668426990509033,-0.7747559547424316,2023-10-21T15:58:25.438822Z,1697903905438
-0.6237689852714539,-0.14114287495613098,-0.6647416949272156,2023-10-21T15:58:25.446471Z,1697903905446
-0.5456814765930176,-0.0949821025133133,-0.530915379524231,2023-10-21T15:58:25.455913Z,1697903905455
-0.45641958713531494,-0.028201967477798462,-0.38218986988067627,2023-10-21T15:58:25.466686Z,1697903905466
-0.32578593492507935,0.039376333355903625,-0.25115716457366943,2023-10-21T15:58:25.476214Z,1697903905476
-0.18012011051177979,0.11134456098079681,-0.13143181800842285,2023-10-21T15:58:25.489308Z,1697903905489
-0.030995558947324753,0.17878983914852142,-0.02886710874736309,2023-10-21T15:58:25.496453Z,1697903905496
0.11001428216695786,0.2338634878396988,0.05520668253302574,2023-10-21T15:58:25.507416Z,1697903905507
0.2377213090658188,0.2751022279262543,0.12251892685890198,2023-10-21T15:58:25.516655Z,1697903905516
0.3546530604362488,0.30596473813056946,0.17466595768928528,2023-10-21T15:58:25.527709Z,1697903905527
0.46519944071769714,0.32951071858406067,0.21217989921569824,2023-10-21T15:58:25.538880Z,1697903905538
0.5694935321807861,0.3453410863876343,0.23625800013542175,2023-10-21T15:58:25.547824Z,1697903905547
0.663677453994751,0.3506622016429901,0.24956081807613373,2023-10-21T15:58:25.557249Z,1697903905557
0.7465540170669556,0.3452080488204956,0.25554707646369934,2023-10-21T15:58:25.568073Z,1697903905568
0.8205176591873169,0.3327034115791321,0.25927186012268066,2023-10-21T15:58:25.577556Z,1697903905577
0.8883619904518127,0.318203330039978,0.26858383417129517,2023-10-21T15:58:25.589207Z,1697903905589
0.9532797336578369,0.3090243935585022,0.2918637692928314,2023-10-21T15:58:25.597726Z,1697903905597
1.0192617177963257,0.315010666847229,0.3063638210296631,2023-10-21T15:58:25.608720Z,1697903905608
1.0922940969467163,0.344808965921402,0.3237905204296112,2023-10-21T15:58:25.617898Z,1697903905617
1.1779643297195435,0.4012129008769989,0.40147897601127625,2023-10-21T15:58:25.628996Z,1697903905628
1.2801299095153809,0.4828921854496002,0.5243969559669495,2023-10-21T15:58:25.638616Z,1697903905638
1.3985249996185303,0.5841265916824341,0.6555627584457397,2023-10-21T15:58:25.649064Z,1697903905649
1.527030110359192,0.6941409111022949,0.7857972979545593,2023-10-21T15:58:25.658589Z,1697903905658
1.6575307846069336,0.8006964325904846,0.9051235318183899,2023-10-21T15:58:25.672333Z,1697903905672
1.7804487943649292,0.893683135509491,1.0050276517868042,2023-10-21T15:58:25.678881Z,1697903905678
1.8835456371307373,0.9649862051010132,1.0812528133392334,2023-10-21T15:58:25.689732Z,1697903905689
1.9499266147613525,1.0070230960845947,1.1345970630645752,2023-10-21T15:58:25.699049Z,1697903905699
1.9638946056365967,1.0143396854400635,1.167721152305603,2023-10-21T15:58:25.710067Z,1697903905710
1.91826593875885,0.9881331324577332,1.1815561056137085,2023-10-21T15:58:25.721938Z,1697903905721
1.8117103576660156,0.9311970472335815,1.1761019229888916,2023-10-21T15:58:25.730146Z,1697903905730
1.644760012626648,0.8437975645065308,1.1525559425354004,2023-10-21T15:58:25.739644Z,1697903905739
1.421006679534912,0.726466715335846,1.1126474142074585,2023-10-21T15:58:25.750392Z,1697903905750
1.1493632793426514,0.5825302600860596,1.0583720207214355,2023-10-21T15:58:25.759909Z,1697903905759
0.8439306020736694,0.418639600276947,0.9909266829490662,2023-10-21T15:58:25.772261Z,1697903905772
0.5234657526016235,0.24596905708312988,0.9116419553756714,2023-10-21T15:58:25.780139Z,1697903905780
0.2091202586889267,0.07675724476575851,0.8218479156494141,2023-10-21T15:58:25.791075Z,1697903905791
-0.08021597564220428,-0.07835358381271362,0.7242052555084229,2023-10-21T15:58:25.800327Z,1697903905800
-0.3346988260746002,-0.2145744115114212,0.6231038570404053,2023-10-21T15:58:25.811436Z,1697903905811
-0.5515347123146057,-0.3315061628818512,0.5229336619377136,2023-10-21T15:58:25.821928Z,1697903905821
-0.7293933629989624,-0.42835065722465515,0.42662128806114197,2023-10-21T15:58:25.831450Z,1697903905831
-0.8674765825271606,-0.5044427514076233,0.3352309465408325,2023-10-21T15:58:25.840925Z,1697903905840
-0.967380702495575,-0.5607136487960815,0.24902869760990143,2023-10-21T15:58:25.855465Z,1697903905855
-1.034160852432251,-0.5994248390197754,0.1678815335035324,2023-10-21T15:58:25.861243Z,1697903905861
-1.073803186416626,-0.622704803943634,0.091656394302845,2023-10-21T15:58:25.872185Z,1697903905872
-1.0898996591567993,-0.6312185525894165,0.019555138424038887,2023-10-21T15:58:25.881470Z,1697903905881
-1.0855097770690918,-0.6256313920021057,-0.048821330070495605,2023-10-21T15:58:25.892515Z,1697903905892
-1.0667527914047241,-0.6104661822319031,-0.11333998292684555,2023-10-21T15:58:25.905259Z,1697903905905
-1.041344404220581,-0.5909110307693481,-0.17386779189109802,2023-10-21T15:58:25.912648Z,1697903905912
-1.0124772787094116,-0.5684292912483215,-0.23067080974578857,2023-10-21T15:58:25.921953Z,1697903905921
-0.978289008140564,-0.5410255193710327,-0.2826848328113556,2023-10-21T15:58:25.932792Z,1697903905932
-0.9361190795898438,-0.5071033239364624,-0.3281804621219635,2023-10-21T15:58:25.942304Z,1697903905942
-0.8851693272590637,-0.4675939679145813,-0.36569440364837646,2023-10-21T15:58:25.955487Z,1697903905955
-0.8247745633125305,-0.4238276779651642,-0.3938963711261749,2023-10-21T15:58:25.962504Z,1697903905962
-0.7525402307510376,-0.37434121966362,-0.41198819875717163,2023-10-21T15:58:25.973470Z,1697903905973
-0.6676682829856873,-0.3190014958381653,-0.41957080364227295,2023-10-21T15:58:25.982722Z,1697903905982
-0.5730853080749512,-0.2600700259208679,-0.41784143447875977,2023-10-21T15:58:25.993786Z,1697903905993
-0.4749104976654053,-0.20127159357070923,-0.40852946043014526,2023-10-21T15:58:26.005115Z,1697903906005
-0.37899720668792725,-0.14526674151420593,-0.3938963711261749,2023-10-21T15:58:26.013909Z,1697903906013
-0.289336234331131,-0.09232153743505478,-0.37460726499557495,2023-10-21T15:58:26.023310Z,1697903906023
-0.20832209289073944,-0.041238728910684586,-0.35039615631103516,2023-10-21T15:58:26.034146Z,1697903906034
-0.13635385036468506,0.00944499857723713,-0.32033178210258484,2023-10-21T15:58:26.043652Z,1697903906043
-0.07316548377275467,0.06026175245642662,-0.2837490439414978,2023-10-21T15:58:26.055465Z,1697903906055
-0.01755971647799015,0.11174365133047104,-0.24064792692661285,2023-10-21T15:58:26.063809Z,1697903906063
0.03299098089337349,0.16349159181118011,-0.19129447638988495,2023-10-21T15:58:26.074850Z,1697903906074
0.08021597564220428,0.21550559997558594,-0.13795019686222076,2023-10-21T15:58:26.083991Z,1697903906083
0.12544554471969604,0.2672535479068756,-0.08380773663520813,2023-10-21T15:58:26.095183Z,1697903906095
0.16894575953483582,0.31687304377555847,-0.03299098089337349,2023-10-21T15:58:26.104838Z,1697903906104
0.21031750738620758,0.36183658242225647,0.011573448777198792,2023-10-21T15:58:26.115169Z,1697903906115
0.24836355447769165,0.39988261461257935,0.05015161260962486,2023-10-21T15:58:26.124635Z,1697903906124
0.28175362944602966,0.4314102828502655,0.08513801544904709,2023-10-21T15:58:26.138621Z,1697903906138
0.31088680028915405,0.45908015966415405,0.11892716586589813,2023-10-21T15:58:26.144919Z,1697903906144
0.3376254439353943,0.48661696910858154,0.1531154066324234,2023-10-21T15:58:26.155884Z,1697903906155
0.3632998764514923,0.5160161852836609,0.18810181319713593,2023-10-21T15:58:26.165172Z,1697903906165
0.3864467740058899,0.5464796423912048,0.22322124242782593,2023-10-21T15:58:26.176229Z,1697903906176
0.40413951873779297,0.5757458209991455,0.25661131739616394,2023-10-21T15:58:26.188310Z,1697903906188
0.41305240988731384,0.6007551550865173,0.28521236777305603,2023-10-21T15:58:26.196280Z,1697903906196
0.41185516119003296,0.6185808777809143,0.3047674894332886,2023-10-21T15:58:26.205636Z,1697903906205
0.4005477726459503,0.6281589269638062,0.31248313188552856,2023-10-21T15:58:26.216473Z,1697903906216
0.3792632520198822,0.6297552585601807,0.3078271448612213,2023-10-21T15:58:26.225989Z,1697903906225
0.3481346666812897,0.6247001886367798,0.29346010088920593,2023-10-21T15:58:26.238619Z,1697903906238
0.30756109952926636,0.6152551770210266,0.2727077007293701,2023-10-21T15:58:26.246165Z,1697903906246
0.2590058147907257,0.6034156680107117,0.2480975091457367,2023-10-21T15:58:26.257080Z,1697903906257
0.20406518876552582,0.5899798274040222,0.2189643383026123,2023-10-21T15:58:26.266357Z,1697903906266
0.14300526678562164,0.5724201202392578,0.1822485625743866,2023-10-21T15:58:26.277435Z,1697903906277
0.07555998861789703,0.5474108457565308,0.13435843586921692,2023-10-21T15:58:26.287976Z,1697903906287
7.981689414009452E-4,0.5112271904945374,0.07449576258659363,2023-10-21T15:58:26.297605Z,1697903906297
-0.0795508325099945,0.46240586042404175,0.004922041669487953,2023-10-21T15:58:26.306985Z,1697903906306
-0.16069801151752472,0.40214410424232483,-0.07156914472579956,2023-10-21T15:58:26.317793Z,1697903906317
-0.23479469120502472,0.3346988260746002,-0.15111997723579407,2023-10-21T15:58:26.327307Z,1697903906327
-0.2941252589225769,0.266854465007782,-0.22907447814941406,2023-10-21T15:58:26.338351Z,1697903906338
-0.3324373662471771,0.2047303318977356,-0.30157482624053955,2023-10-21T15:58:26.347453Z,1697903906347
-0.3469374179840088,0.15111997723579407,-0.3664925694465637,2023-10-21T15:58:26.358469Z,1697903906358
-0.34228143095970154,0.10322984308004379,-0.4254240393638611,2023-10-21T15:58:26.367651Z,1697903906367
-0.32911163568496704,0.055073656141757965,-0.48156189918518066,2023-10-21T15:58:26.378799Z,1697903906378
-0.32019877433776855,0.002128450432792306,-0.537300705909729,2023-10-21T15:58:26.388218Z,1697903906388
-0.32565292716026306,-0.05547273904085159,-0.5922413468360901,2023-10-21T15:58:26.398863Z,1697903906398
-0.3501301109790802,-0.11427118629217148,-0.6414617300033569,2023-10-21T15:58:26.408345Z,1697903906408
-0.3936302959918976,-0.16947786509990692,-0.677778422832489,2023-10-21T15:58:26.421863Z,1697903906421
-0.4505663514137268,-0.2145744115114212,-0.6940078735351562,2023-10-21T15:58:26.428566Z,1697903906428
-0.5132226347923279,-0.24410666525363922,-0.6849619746208191,2023-10-21T15:58:26.439489Z,1697903906439
-0.5721541047096252,-0.2547489106655121,-0.6483792066574097,2023-10-21T15:58:26.448776Z,1697903906448
-0.6199111938476562,-0.24769842624664307,-0.5859889984130859,2023-10-21T15:58:26.459873Z,1697903906459
-0.6517049074172974,-0.22707904875278473,-0.5029794573783875,2023-10-21T15:58:26.471425Z,1697903906471
-0.6662049889564514,-0.1970146894454956,-0.4062679708003998,2023-10-21T15:58:26.479899Z,1697903906479
-0.6662049889564514,-0.16109709441661835,-0.30157482624053955,2023-10-21T15:58:26.489351Z,1697903906489
-0.6567599773406982,-0.12305103987455368,-0.19342292845249176,2023-10-21T15:58:26.500193Z,1697903906500
-0.6427920460700989,-0.0862022414803505,-0.08553709834814072,2023-10-21T15:58:26.509713Z,1697903906509
-0.6270946860313416,-0.053211260586977005,0.017692744731903076,2023-10-21T15:58:26.521685Z,1697903906521
-0.6100671291351318,-0.025807460770010948,0.11200970411300659,2023-10-21T15:58:26.529890Z,1697903906529
-0.5918422341346741,-0.006252323277294636,0.1938220113515854,2023-10-21T15:58:26.540836Z,1697903906540
-0.5740164518356323,0.0031926757656037807,0.2600700259208679,2023-10-21T15:58:26.550036Z,1697903906550
-0.5577870607376099,0.0026605629827827215,0.30915743112564087,2023-10-21T15:58:26.561153Z,1697903906561
-0.5454154014587402,-0.0055871824733912945,0.34214839339256287,2023-10-21T15:58:26.571350Z,1697903906571
-0.5380988717079163,-0.018623940646648407,0.36250171065330505,2023-10-21T15:58:26.581208Z,1697903906581
-0.5367686152458191,-0.03445428982377052,0.3732770085334778,2023-10-21T15:58:26.590690Z,1697903906590
-0.5423557758331299,-0.05374337360262871,0.37686875462532043,2023-10-21T15:58:26.605307Z,1697903906605
-0.5544613599777222,-0.07662421464920044,0.3747403025627136,2023-10-21T15:58:26.610969Z,1697903906610
-0.5706907510757446,-0.10269773006439209,0.3678228259086609,2023-10-21T15:58:26.621866Z,1697903906621
-0.5889156460762024,-0.13236300647258759,0.3562493920326233,2023-10-21T15:58:26.631166Z,1697903906631
-0.6087368130683899,-0.16774849593639374,0.33882269263267517,2023-10-21T15:58:26.642242Z,1697903906642
-0.6297552585601807,-0.2085881382226944,0.3171391189098358,2023-10-21T15:58:26.654717Z,1697903906654
-0.6506406664848328,-0.25102412700653076,0.2957215905189514,2023-10-21T15:58:26.662291Z,1697903906662
-0.6708609461784363,-0.2909325659275055,0.27909305691719055,2023-10-21T15:58:26.671743Z,1697903906671
-0.6913473010063171,-0.3265841007232666,0.26871687173843384,2023-10-21T15:58:26.682508Z,1697903906682
-0.7134299874305725,-0.35930904746055603,0.2628636360168457,2023-10-21T15:58:26.692060Z,1697903906692
-0.7357786893844604,-0.38950642943382263,0.25873976945877075,2023-10-21T15:58:26.704957Z,1697903906704
-0.7557329535484314,-0.41797444224357605,0.2552810311317444,2023-10-21T15:58:26.712249Z,1697903906712
-0.7697008848190308,-0.44431403279304504,0.2523544132709503,2023-10-21T15:58:26.723212Z,1697903906723
-0.7752880454063416,-0.46905726194381714,0.24929475784301758,2023-10-21T15:58:26.732488Z,1697903906732
-0.7716963291168213,-0.492736279964447,0.24556997418403625,2023-10-21T15:58:26.743520Z,1697903906743
-0.7610540390014648,-0.5162822604179382,0.24064792692661285,2023-10-21T15:58:26.754567Z,1697903906754
-0.7464209794998169,-0.5400943160057068,0.23532679677009583,2023-10-21T15:58:26.763581Z,1697903906763
-0.7315217852592468,-0.5644384622573853,0.23000568151474,2023-10-21T15:58:26.773085Z,1697903906773
-0.7196822762489319,-0.5889156460762024,0.22401940822601318,2023-10-21T15:58:26.784003Z,1697903906783
-0.7130308747291565,-0.6120625138282776,0.21696890890598297,2023-10-21T15:58:26.793369Z,1697903906793
-0.7135630249977112,-0.6324158310890198,0.20885419845581055,2023-10-21T15:58:26.805449Z,1697903906805
-0.7234070897102356,-0.6507737040519714,0.20167067646980286,2023-10-21T15:58:26.813668Z,1697903906813
-0.7436273694038391,-0.6682004332542419,0.19847799837589264,2023-10-21T15:58:26.824698Z,1697903906824
-0.7720953822135925,-0.6841638088226318,0.20153765380382538,2023-10-21T15:58:26.833802Z,1697903906833
-0.804554283618927,-0.696801483631134,0.21178081631660461,2023-10-21T15:58:26.844930Z,1697903906844
-0.8359488844871521,-0.703718900680542,0.22907447814941406,2023-10-21T15:58:26.854501Z,1697903906854
-0.8618894219398499,-0.7046501040458679,0.2530195415019989,2023-10-21T15:58:26.864984Z,1697903906864
-0.8793160915374756,-0.7002602219581604,0.28241875767707825,2023-10-21T15:58:26.874410Z,1697903906874
-0.8872977495193481,-0.6922785043716431,0.31487762928009033,2023-10-21T15:58:26.888189Z,1697903906888
-0.8882289528846741,-0.6837646961212158,0.3474695384502411,2023-10-21T15:58:26.894608Z,1697903906894
-0.885036289691925,-0.6764481663703918,0.3759375512599945,2023-10-21T15:58:26.905630Z,1697903906905
-0.8795821666717529,-0.6692646145820618,0.3962908685207367,2023-10-21T15:58:26.914825Z,1697903906914
-0.874660074710846,-0.6614159941673279,0.40640100836753845,2023-10-21T15:58:26.925922Z,1697903906925
-0.8755912780761719,-0.6539663672447205,0.4061349630355835,2023-10-21T15:58:26.937844Z,1697903906937
-0.8882289528846741,-0.6490443348884583,0.396157830953598,2023-10-21T15:58:26.946015Z,1697903906945
-0.9136373400688171,-0.6462507843971252,0.37899720668792725,2023-10-21T15:58:26.955435Z,1697903906955
-0.9466283321380615,-0.6437232494354248,0.3585108816623688,2023-10-21T15:58:26.966222Z,1697903906966
-0.9790871739387512,-0.6394663453102112,0.340685099363327,2023-10-21T15:58:26.975776Z,1697903906975
-1.0042295455932617,-0.6326819062232971,0.3304419219493866,2023-10-21T15:58:26.988198Z,1697903906988
-1.015536904335022,-0.6229708194732666,0.3321712911128998,2023-10-21T15:58:26.995874Z,1697903906995
-1.005958914756775,-0.6091359257698059,0.3495979905128479,2023-10-21T15:58:27.007360Z,1697903907007
-0.9725688099861145,-0.5910440683364868,0.38338714838027954,2023-10-21T15:58:27.016220Z,1697903907016
-0.92002272605896,-0.5690944194793701,0.4307451546192169,2023-10-21T15:58:27.027251Z,1697903907027
-0.8601600527763367,-0.5451493859291077,0.4851536750793457,2023-10-21T15:58:27.037719Z,1697903907037
-0.8057515025138855,-0.5202730894088745,0.5403603315353394,2023-10-21T15:58:27.047263Z,1697903907047
-0.7681045532226562,-0.49646106362342834,0.593172550201416,2023-10-21T15:58:27.056756Z,1697903907056
-0.7538705468177795,-0.4753095805644989,0.6430580615997314,2023-10-21T15:58:27.071321Z,1697903907071
-0.763182520866394,-0.45788291096687317,0.6916133761405945,2023-10-21T15:58:27.077022Z,1697903907076
-0.7893890738487244,-0.44431403279304504,0.7416319251060486,2023-10-21T15:58:27.088095Z,1697903907088
-0.818655252456665,-0.43287360668182373,0.7959074378013611,2023-10-21T15:58:27.097223Z,1697903907097
-0.8344855904579163,-0.4194377660751343,0.8563022017478943,2023-10-21T15:58:27.108395Z,1697903907108
-0.8267699480056763,-0.40201106667518616,0.9229493141174316,2023-10-21T15:58:27.121084Z,1697903907121
-0.7972376942634583,-0.3815247416496277,0.993188202381134,2023-10-21T15:58:27.128405Z,1697903907128
-0.7582604885101318,-0.3615705072879791,1.0619637966156006,2023-10-21T15:58:27.137791Z,1697903907137
-0.7234070897102356,-0.3441438376903534,1.1242209672927856,2023-10-21T15:58:27.148590Z,1697903907148
-0.7043840885162354,-0.3292446732521057,1.175968885421753,2023-10-21T15:58:27.158109Z,1697903907158
-0.7083749175071716,-0.31527671217918396,1.2153451442718506,2023-10-21T15:58:27.171348Z,1697903907171
-0.736842930316925,-0.3009096682071686,1.2431480884552002,2023-10-21T15:58:27.178329Z,1697903907178
-0.7853981852531433,-0.28507933020591736,1.2629692554473877,2023-10-21T15:58:27.189381Z,1697903907189
-0.8447287678718567,-0.2673865854740143,1.2803959846496582,2023-10-21T15:58:27.198603Z,1697903907198
-0.9047244787216187,-0.24796447157859802,1.3014143705368042,2023-10-21T15:58:27.209662Z,1697903907209
-0.9576696753501892,-0.2272120863199234,1.3293503522872925,2023-10-21T15:58:27.220948Z,1697903907220
-0.9995735287666321,-0.20539546012878418,1.3643367290496826,2023-10-21T15:58:27.229677Z,1697903907229
-1.0316333770751953,-0.18264764547348022,1.4039790630340576,2023-10-21T15:58:27.239133Z,1697903907239
-1.0565096139907837,-0.1585695594549179,1.4440206289291382,2023-10-21T15:58:27.249938Z,1697903907249
-1.0756655931472778,-0.13183090090751648,1.4802042245864868,2023-10-21T15:58:27.259449Z,1697903907259
-1.0880372524261475,-0.1004362553358078,1.5089383125305176,2023-10-21T15:58:27.271277Z,1697903907271
-1.092427134513855,-0.06465168297290802,1.5271631479263306,2023-10-21T15:58:27.279670Z,1697903907279
-1.089633584022522,-0.02700471505522728,1.5339475870132446,2023-10-21T15:58:27.290713Z,1697903907290
-1.0787253379821777,0.009844083338975906,1.5307549238204956,2023-10-21T15:58:27.299870Z,1697903907299
-1.0565096139907837,0.043766263872385025,1.5205117464065552,2023-10-21T15:58:27.310990Z,1697903907310
-1.0193947553634644,0.07369759678840637,1.5061447620391846,2023-10-21T15:58:27.320700Z,1697903907320
-0.9671146869659424,0.09950505942106247,1.4885849952697754,2023-10-21T15:58:27.330983Z,1697903907330
-0.903261125087738,0.1218537837266922,1.4671674966812134,2023-10-21T15:58:27.340464Z,1697903907340
-0.8351507186889648,0.14140892028808594,1.4413599967956543,2023-10-21T15:58:27.351254Z,1697903907351
-0.7700999975204468,0.15883561968803406,1.4112956523895264,2023-10-21T15:58:27.360749Z,1697903907360
-0.7140951156616211,0.17533110082149506,1.3775064945220947,2023-10-21T15:58:27.371718Z,1697903907371
-0.6727233529090881,0.1926247626543045,1.3414559364318848,2023-10-21T15:58:27.380938Z,1697903907380
-0.652370035648346,0.2124459594488144,1.305139183998108,2023-10-21T15:58:27.392119Z,1697903907392
-0.6562278866767883,0.23585891723632812,1.269620656967163,2023-10-21T15:58:27.404219Z,1697903907404
-0.6815032362937927,0.2633957266807556,1.2343682050704956,2023-10-21T15:58:27.413452Z,1697903907413
-0.7200813889503479,0.2954555153846741,1.1961891651153564,2023-10-21T15:58:27.421517Z,1697903907421
-0.7630494832992554,0.3320382535457611,1.1506935358047485,2023-10-21T15:58:27.432412Z,1697903907432
-0.8020267486572266,0.3719467222690582,1.092826247215271,2023-10-21T15:58:27.441825Z,1697903907441
-0.8306277990341187,0.41305240988731384,1.0181974172592163,2023-10-21T15:58:27.454500Z,1697903907454
-0.8439306020736694,0.45256176590919495,0.9256098866462708,2023-10-21T15:58:27.462118Z,1697903907462
-0.8392745852470398,0.48714908957481384,0.8167928457260132,2023-10-21T15:58:27.473040Z,1697903907473
-0.8163937926292419,0.5142868161201477,0.6978656649589539,2023-10-21T15:58:27.482197Z,1697903907482
-0.7762192487716675,0.5325117111206055,0.577741265296936,2023-10-21T15:58:27.493346Z,1697903907493
-0.7224758863449097,0.5423557758331299,0.4649333953857422,2023-10-21T15:58:27.504135Z,1697903907504
-0.6612829566001892,0.5456814765930176,0.36529529094696045,2023-10-21T15:58:27.513445Z,1697903907513
-0.6003560423851013,0.5443512201309204,0.2826848328113556,2023-10-21T15:58:27.522910Z,1697903907522
-0.5455484390258789,0.5390300750732422,0.22135885059833527,2023-10-21T15:58:27.534079Z,1697903907534
-0.4988555610179901,0.5285208225250244,0.18584032356739044,2023-10-21T15:58:27.543161Z,1697903907543
-0.45961228013038635,0.5106950998306274,0.17958800494670868,2023-10-21T15:58:27.554557Z,1697903907554
-0.4263552129268646,0.48435550928115845,0.2031339854001999,2023-10-21T15:58:27.563477Z,1697903907563
-0.3984193205833435,0.44976818561553955,0.2531525790691376,2023-10-21T15:58:27.574374Z,1697903907574
-0.3771347999572754,0.4094606637954712,0.32352447509765625,2023-10-21T15:58:27.583526Z,1697903907583
-0.36635953187942505,0.3671576976776123,0.4066670536994934,2023-10-21T15:58:27.594674Z,1697903907594
-0.3719467222690582,0.3283134698867798,0.4961950182914734,2023-10-21T15:58:27.604015Z,1697903907603
-0.3996165692806244,0.2995794117450714,0.5873193144798279,2023-10-21T15:58:27.614777Z,1697903907614
-0.4545572102069855,0.28720778226852417,0.6793747544288635,2023-10-21T15:58:27.624157Z,1697903907624
-0.5403603315353394,0.29612067341804504,0.7744898796081543,2023-10-21T15:58:27.637698Z,1697903907637
-0.655961811542511,0.32578593492507935,0.8770546317100525,2023-10-21T15:58:27.644480Z,1697903907644
-0.7944441437721252,0.37021735310554504,0.9903945922851562,2023-10-21T15:58:27.655386Z,1697903907655
-0.9442338347434998,0.4194377660751343,1.1157071590423584,2023-10-21T15:58:27.664759Z,1697903907664
-1.0946886539459229,0.46453431248664856,1.2516618967056274,2023-10-21T15:58:27.675765Z,1697903907675
-1.2379599809646606,0.49872255325317383,1.393203854560852,2023-10-21T15:58:27.687135Z,1697903907687
-1.366997241973877,0.5170804262161255,1.5331494808197021,2023-10-21T15:58:27.695839Z,1697903907695
-1.4771445989608765,0.5178785920143127,1.6649802923202515,2023-10-21T15:58:27.705223Z,1697903907705
-1.5673376321792603,0.5024473071098328,1.785902976989746,2023-10-21T15:58:27.716065Z,1697903907716
-1.642365574836731,0.4749104976654053,1.8961832523345947,2023-10-21T15:58:27.725528Z,1697903907725
-1.7099438905715942,0.4408552944660187,1.9975507259368896,2023-10-21T15:58:27.737637Z,1697903907737
-1.7767239809036255,0.4044055938720703,2.0917346477508545,2023-10-21T15:58:27.745815Z,1697903907745
-1.8476279973983765,0.3688870668411255,2.1809966564178467,2023-10-21T15:58:27.757920Z,1697903907757
-1.9258486032485962,0.3353639841079712,2.2671988010406494,2023-10-21T15:58:27.765933Z,1697903907765
-2.0144453048706055,0.30436840653419495,2.3516716957092285,2023-10-21T15:58:27.777495Z,1697903907777
-2.118739366531372,0.27896004915237427,2.4346811771392822,2023-10-21T15:58:27.787574Z,1697903907787
-2.245249032974243,0.26579025387763977,2.515695333480835,2023-10-21T15:58:27.797540Z,1697903907797
-2.4038186073303223,0.2760334014892578,2.5928516387939453,2023-10-21T15:58:27.806552Z,1697903907806
-2.606952667236328,0.3233914375305176,2.663090467453003,2023-10-21T15:58:27.817698Z,1697903907817
-2.869683265686035,0.42569008469581604,2.720026731491089,2023-10-21T15:58:27.826833Z,1697903907826
-3.207042694091797,0.6047459840774536,2.755146026611328,2023-10-21T15:58:27.838002Z,1697903907837
-3.627145528793335,0.8813115358352661,2.758737802505493,2023-10-21T15:58:27.847052Z,1697903907847
-4.123074531555176,1.265097737312317,2.722687244415283,2023-10-21T15:58:27.858434Z,1697903907858
-4.662104606628418,1.7447972297668457,2.643934488296509,2023-10-21T15:58:27.870785Z,1697903907870
-5.189295291900635,2.290212631225586,2.5266036987304688,2023-10-21T15:58:27.878440Z,1697903907878
-5.335493087768555,2.8098206520080566,2.3548643589019775,2023-10-21T15:58:27.887566Z,1697903907887
-5.6011505126953125,3.310272455215454,2.200950860977173,2023-10-21T15:58:27.898703Z,1697903907898
-5.71462345123291,3.718136787414551,2.045440912246704,2023-10-21T15:58:27.907916Z,1697903907907
-5.6724534034729,4.002551078796387,1.896848440170288,2023-10-21T15:58:27.921817Z,1697903907921
-5.491934299468994,4.1580610275268555,1.759297251701355,2023-10-21T15:58:27.928145Z,1697903907928
-5.198340892791748,4.195973873138428,1.6334526538848877,2023-10-21T15:58:27.940587Z,1697903907940
-5.042166233062744,4.275258541107178,1.5260989665985107,2023-10-21T15:58:27.948384Z,1697903907948
-4.543044567108154,4.111368179321289,1.4207406044006348,2023-10-21T15:58:27.959711Z,1697903907959
-4.01558780670166,3.8752431869506836,1.3262907266616821,2023-10-21T15:58:27.970778Z,1697903907970
-3.48972749710083,3.590695858001709,1.2426159381866455,2023-10-21T15:58:27.979802Z,1697903907979
-2.9924683570861816,3.2822036743164062,1.1698495149612427,2023-10-21T15:58:27.989273Z,1697903907989
-2.5466909408569336,2.9717159271240234,1.107858419418335,2023-10-21T15:58:27.999788Z,1697903907999
-2.1718175411224365,2.6777236461639404,1.0577068328857422,2023-10-21T15:58:28.009153Z,1697903908009
-1.8808850049972534,2.4124655723571777,1.0208580493927002,2023-10-21T15:58:28.020045Z,1697903908020
-1.6797465085983276,2.182060718536377,1.0010368824005127,2023-10-21T15:58:28.029326Z,1697903908029
-1.574255108833313,1.995156168937683,1.0014358758926392,2023-10-21T15:58:28.040513Z,1697903908040
-1.565608263015747,1.8615959882736206,1.0236515998840332,2023-10-21T15:58:28.049547Z,1697903908049
-1.6462234258651733,1.7833753824234009,1.0696793794631958,2023-10-21T15:58:28.060788Z,1697903908060
-1.8021323680877686,1.7588982582092285,1.140450358390808,2023-10-21T15:58:28.070666Z,1697903908070
-2.0225601196289062,1.7908250093460083,1.2341021299362183,2023-10-21T15:58:28.080855Z,1697903908080
-2.2919421195983887,1.8812841176986694,1.3473091125488281,2023-10-21T15:58:28.090255Z,1697903908090
-2.5839388370513916,2.0188353061676025,1.4778097867965698,2023-10-21T15:58:28.104056Z,1697903908104
-2.8715457916259766,2.182060718536377,1.6221452951431274,2023-10-21T15:58:28.110462Z,1697903908110
-3.1398634910583496,2.3516716957092285,1.7744624614715576,2023-10-21T15:58:28.121403Z,1697903908121
-3.3846352100372314,2.5091769695281982,1.9287751913070679,2023-10-21T15:58:28.130651Z,1697903908130
-3.6085216999053955,2.643402338027954,2.0804271697998047,2023-10-21T15:58:28.141777Z,1697903908141
-3.8183071613311768,2.7572743892669678,2.226093053817749,2023-10-21T15:58:28.153659Z,1697903908153
-4.020110607147217,2.8587749004364014,2.3637771606445312,2023-10-21T15:58:28.161819Z,1697903908161
-4.214597702026367,2.9513626098632812,2.4922823905944824,2023-10-21T15:58:28.171242Z,1697903908171
-4.399906158447266,3.0398263931274414,2.610145330429077,2023-10-21T15:58:28.182019Z,1697903908182
-4.565659046173096,3.119643211364746,2.7165679931640625,2023-10-21T15:58:28.191560Z,1697903908191
-4.689375400543213,3.1526341438293457,2.8050315380096436,2023-10-21T15:58:28.204295Z,1697903908204
-4.74418306350708,3.068427324295044,2.855316162109375,2023-10-21T15:58:28.211813Z,1697903908211
-4.709063529968262,2.776829719543457,2.8283114433288574,2023-10-21T15:58:28.222769Z,1697903908222
-4.571645259857178,2.1645009517669678,2.6665492057800293,2023-10-21T15:58:28.231963Z,1697903908231
-4.327938079833984,1.0769959688186646,2.2895474433898926,2023-10-21T15:58:28.243107Z,1697903908243
-3.9837939739227295,-0.7043840885162354,1.5880900621414185,2023-10-21T15:58:28.253564Z,1697903908253
-3.5559754371643066,-3.551851749420166,0.4214331805706024,2023-10-21T15:58:28.263111Z,1697903908263
-3.039161205291748,-7.2593464851379395,-1.2839877605438232,2023-10-21T15:58:28.272631Z,1697903908272
-2.6700079441070557,-11.286640167236328,-3.2228729724884033,2023-10-21T15:58:28.287058Z,1697903908287
-2.450777530670166,-14.295604705810547,-4.802981376647949,2023-10-21T15:58:28.292901Z,1697903908292
-2.385593891143799,-15.818377494812012,-5.745884895324707,2023-10-21T15:58:28.303947Z,1697903908303
-2.437208890914917,-16.233957290649414,-6.19738245010376,2023-10-21T15:58:28.313077Z,1697903908313
-2.5815443992614746,-15.997699737548828,-6.37750244140625,2023-10-21T15:58:28.324159Z,1697903908324
-2.8098206520080566,-15.39774227142334,-6.448938846588135,2023-10-21T15:58:28.336957Z,1697903908336
-3.117647886276245,-14.584807395935059,-6.509200572967529,2023-10-21T15:58:28.344174Z,1697903908344
-3.4911909103393555,-13.588826179504395,-6.567732810974121,2023-10-21T15:58:28.353664Z,1697903908353
-3.901582717895508,-12.420306205749512,-6.596333980560303,2023-10-21T15:58:28.364400Z,1697903908364
-4.296010971069336,-11.121153831481934,-6.573186874389648,2023-10-21T15:58:28.373933Z,1697903908373
-4.611021995544434,-9.748968124389648,-6.49895715713501,2023-10-21T15:58:28.387219Z,1697903908387
-4.795398712158203,-8.349644660949707,-6.394796371459961,2023-10-21T15:58:28.394242Z,1697903908394
-4.833445072174072,-6.957505226135254,-6.303139686584473,2023-10-21T15:58:28.405072Z,1697903908405
-4.75855016708374,-5.604209899902344,-6.286245346069336,2023-10-21T15:58:28.414324Z,1697903908414
-4.579493999481201,-4.788082122802734,-6.38149356842041,2023-10-21T15:58:28.425469Z,1697903908425
-4.3634562492370605,-4.596255779266357,-6.575315475463867,2023-10-21T15:58:28.436762Z,1697903908436
-4.131189346313477,-4.5528883934021,-6.815431118011475,2023-10-21T15:58:28.445477Z,1697903908445
-3.802476644515991,-3.9272570610046387,-7.020294666290283,2023-10-21T15:58:28.454954Z,1697903908454
-3.382905960083008,-2.887376070022583,-7.1050333976745605,2023-10-21T15:58:28.465689Z,1697903908465
-2.925422191619873,-2.256157398223877,-7.010317325592041,2023-10-21T15:58:28.475250Z,1697903908475
-2.4890897274017334,-2.0064635276794434,-6.717655658721924,2023-10-21T15:58:28.487085Z,1697903908487
-2.150001049041748,-2.0821566581726074,-6.264960765838623,2023-10-21T15:58:28.495411Z,1697903908495
-2.005000352859497,-2.411933422088623,-5.737104892730713,2023-10-21T15:58:28.506489Z,1697903908506
-2.1309778690338135,-2.8743393421173096,-5.224015712738037,2023-10-21T15:58:28.515623Z,1697903908515
-2.5723652839660645,-3.0370326042175293,-4.818146705627441,2023-10-21T15:58:28.526824Z,1697903908526
-3.219414234161377,-2.916642189025879,-4.079042434692383,2023-10-21T15:58:28.536715Z,1697903908536
-3.9881839752197266,-2.983023166656494,-3.468442916870117,2023-10-21T15:58:28.546780Z,1697903908546
-4.760013103485107,-3.0329089164733887,-2.9484360218048096,2023-10-21T15:58:28.556390Z,1697903908556
-5.1501851081848145,-2.9621379375457764,-2.5147640705108643,2023-10-21T15:58:28.570509Z,1697903908570
-5.579998970031738,-2.90107798576355,-2.263740062713623,2023-10-21T15:58:28.576552Z,1697903908576
-5.891684055328369,-2.814077615737915,-2.111555814743042,2023-10-21T15:58:28.587524Z,1697903908587
-6.180355072021484,-2.7060587406158447,-2.0439774990081787,2023-10-21T15:58:28.596762Z,1697903908596
-6.556159496307373,-2.7060587406158447,-1.1126474142074585,2023-10-21T15:58:28.607891Z,1697903908607
-7.226089000701904,-3.3382084369659424,1.2673592567443848,2023-10-21T15:58:28.619828Z,1697903908619
-8.696449279785156,-5.90498685836792,5.462401866912842,2023-10-21T15:58:28.627896Z,1697903908627
-11.039873123168945,-10.655022621154785,11.102130889892578,2023-10-21T15:58:28.637315Z,1697903908637
-12.803959846496582,-14.2880220413208,14.754817008972168,2023-10-21T15:58:28.648088Z,1697903908648
-13.091300010681152,-14.856451034545898,15.117984771728516,2023-10-21T15:58:28.657620Z,1697903908657
-12.546283721923828,-13.858607292175293,14.030479431152344,2023-10-21T15:58:28.670340Z,1697903908670
-11.687853813171387,-12.39356803894043,12.575949668884277,2023-10-21T15:58:28.677830Z,1697903908677
-10.731647491455078,-10.860950469970703,11.125011444091797,2023-10-21T15:58:28.688917Z,1697903908688
-9.772514343261719,-9.399502754211426,9.808963775634766,2023-10-21T15:58:28.698037Z,1697903908698
-8.84850025177002,-8.047271728515625,8.66305923461914,2023-10-21T15:58:28.709142Z,1697903908709
-7.97051477432251,-6.806252479553223,7.670802116394043,2023-10-21T15:58:28.720013Z,1697903908719
-7.139886856079102,-5.673118591308594,6.798536777496338,2023-10-21T15:58:28.729164Z,1697903908729
-6.358213424682617,-4.649600028991699,6.015932083129883,2023-10-21T15:58:28.738669Z,1697903908738
-5.626558780670166,-3.7379579544067383,5.3051629066467285,2023-10-21T15:58:28.753246Z,1697903908753
-5.187033653259277,-2.9884774684906006,4.8609819412231445,2023-10-21T15:58:28.758940Z,1697903908758
-4.472938537597656,-2.2644052505493164,4.2044878005981445,2023-10-21T15:58:28.770217Z,1697903908770
-3.8320088386535645,-1.6500811576843262,3.623154640197754,2023-10-21T15:58:28.779129Z,1697903908779
-3.2563960552215576,-1.1216933727264404,3.1090009212493896,2023-10-21T15:58:28.790177Z,1697903908790
-2.7386505603790283,-0.6571590900421143,2.6585676670074463,2023-10-21T15:58:28.799319Z,1697903908799
-2.2711896896362305,-0.2387855350971222,2.2690610885620117,2023-10-21T15:58:28.810519Z,1697903908810
-1.8489582538604736,0.14406949281692505,1.9342293739318848,2023-10-21T15:58:28.819749Z,1697903908819
-1.4679656028747559,0.4961950182914734,1.6439619064331055,2023-10-21T15:58:28.830473Z,1697903908830
-1.1247529983520508,0.8177240490913391,1.3872175216674805,2023-10-21T15:58:28.840032Z,1697903908839
-0.8174579739570618,1.1070603132247925,1.1568127870559692,2023-10-21T15:58:28.853526Z,1697903908853
-0.5434200167655945,1.3651349544525146,0.9475595355033875,2023-10-21T15:58:28.860239Z,1697903908860
-0.2975839674472809,1.5979341268539429,0.7549347877502441,2023-10-21T15:58:28.871149Z,1697903908871
-0.07276640087366104,1.8143709897994995,0.5757458209991455,2023-10-21T15:58:28.880408Z,1697903908880
0.14034469425678253,2.023358106613159,0.40972670912742615,2023-10-21T15:58:28.891519Z,1697903908891
0.3513273596763611,2.232079267501831,0.2602030634880066,2023-10-21T15:58:28.903136Z,1697903908903
0.5686953663825989,2.446786880493164,0.1306336522102356,2023-10-21T15:58:28.911537Z,1697903908911
0.796439528465271,2.6665492057800293,0.022348729893565178,2023-10-21T15:58:28.921004Z,1697903908920
1.0295048952102661,2.875802516937256,-0.0647847130894661,2023-10-21T15:58:28.931796Z,1697903908931
1.256450891494751,3.0506014823913574,-0.13183090090751648,2023-10-21T15:58:28.941323Z,1697903908941
1.4653050899505615,3.17179012298584,-0.18025314807891846,2023-10-21T15:58:28.953290Z,1697903908953
1.6452921628952026,3.226597785949707,-0.21151475608348846,2023-10-21T15:58:28.961476Z,1697903908961
1.784705638885498,3.202120542526245,-0.2266799658536911,2023-10-21T15:58:28.972536Z,1697903908972
1.8722381591796875,3.0846567153930664,-0.22401940822601318,2023-10-21T15:58:28.981666Z,1697903908981
1.9034998416900635,2.8691511154174805,-0.20047342777252197,2023-10-21T15:58:28.992877Z,1697903908992
1.8847428560256958,2.5662460327148438,-0.15165209770202637,2023-10-21T15:58:29.002968Z,1697903909002
1.825146198272705,2.19203782081604,-0.0735645666718483,2023-10-21T15:58:29.012866Z,1697903909012
1.7333568334579468,1.7647514343261719,0.03644971549510956,2023-10-21T15:58:29.022342Z,1697903909022
1.6196177005767822,1.3076667785644531,0.1767944097518921,2023-10-21T15:58:29.036746Z,1697903909036
1.494172215461731,0.8451278209686279,0.34055206179618835,2023-10-21T15:58:29.042598Z,1697903909042
1.364203691482544,0.39828628301620483,0.5180116295814514,2023-10-21T15:58:29.053499Z,1697903909053
1.2325057983398438,-0.01888999715447426,0.6969344615936279,2023-10-21T15:58:29.062809Z,1697903909062
1.100009799003601,-0.39762115478515625,0.8652151226997375,2023-10-21T15:58:29.073960Z,1697903909073
0.966449499130249,-0.736842930316925,1.0139405727386475,2023-10-21T15:58:29.086249Z,1697903909086
0.8307608366012573,-1.040147066116333,1.140450358390808,2023-10-21T15:58:29.093931Z,1697903909093
0.6974666118621826,-1.308730959892273,1.2458086013793945,2023-10-21T15:58:29.103386Z,1697903909103
0.5736173987388611,-1.541796326637268,1.3334741592407227,2023-10-21T15:58:29.114200Z,1697903909114
0.4677269756793976,-1.7370816469192505,1.4077038764953613,2023-10-21T15:58:29.123699Z,1697903909123
0.38604769110679626,-1.8931236267089844,1.4711583852767944,2023-10-21T15:58:29.136525Z,1697903909136
0.3308410048484802,-2.0104544162750244,1.525566816329956,2023-10-21T15:58:29.143920Z,1697903909143
0.29838213324546814,-2.0937299728393555,1.5719937086105347,2023-10-21T15:58:29.155248Z,1697903909155
0.27896004915237427,-2.1506662368774414,1.611103892326355,2023-10-21T15:58:29.164152Z,1697903909164
0.25980398058891296,-2.1899094581604004,1.6413013935089111,2023-10-21T15:58:29.176021Z,1697903909175
0.23013870418071747,-2.2178454399108887,1.6597923040390015,2023-10-21T15:58:29.186202Z,1697903909186
0.1849091351032257,-2.2371344566345215,1.6632510423660278,2023-10-21T15:58:29.195330Z,1697903909195
0.12424829602241516,-2.2483088970184326,1.649549126625061,2023-10-21T15:58:29.204740Z,1697903909204
0.050417669117450714,-2.2508363723754883,1.6184204816818237,2023-10-21T15:58:29.215448Z,1697903909215
-0.03352309390902519,-2.2451162338256836,1.5715945959091187,2023-10-21T15:58:29.225004Z,1697903909224
-0.12358315289020538,-2.231680393218994,1.5129292011260986,2023-10-21T15:58:29.236749Z,1697903909236
-0.2157716602087021,-2.2114601135253906,1.4480113983154297,2023-10-21T15:58:29.245233Z,1697903909245
-0.30556565523147583,-2.185652494430542,1.3821624517440796,2023-10-21T15:58:29.256442Z,1697903909256
-0.3884422183036804,-2.1534597873687744,1.3189741373062134,2023-10-21T15:58:29.265572Z,1697903909265
-0.45921316742897034,-2.1128861904144287,1.2601757049560547,2023-10-21T15:58:29.276870Z,1697903909276
-0.5153510570526123,-2.06233549118042,1.207363486289978,2023-10-21T15:58:29.286590Z,1697903909286
-0.5575209856033325,-2.00260591506958,1.1627991199493408,2023-10-21T15:58:29.296607Z,1697903909296
-0.5874522924423218,-1.9360917806625366,1.1274136304855347,2023-10-21T15:58:29.306041Z,1697903909306
-0.606874406337738,-1.865054726600647,1.101473093032837,2023-10-21T15:58:29.319010Z,1697903909318
-0.6169845461845398,-1.7908250093460083,1.0835143327713013,2023-10-21T15:58:29.326277Z,1697903909326
-0.619113028049469,-1.7144668102264404,1.0715417861938477,2023-10-21T15:58:29.337133Z,1697903909337
-0.614989161491394,-1.6371774673461914,1.0639591217041016,2023-10-21T15:58:29.346459Z,1697903909346
-0.6063423156738281,-1.5606862306594849,1.0593031644821167,2023-10-21T15:58:29.357375Z,1697903909357
-0.5962321758270264,-1.487387776374817,1.0570416450500488,2023-10-21T15:58:29.369636Z,1697903909369
-0.5883834958076477,-1.419277310371399,1.0570416450500488,2023-10-21T15:58:29.377644Z,1697903909377
-0.5862550735473633,-1.35635507106781,1.0585050582885742,2023-10-21T15:58:29.387065Z,1697903909387
-0.5921083092689514,-1.2967584133148193,1.0590370893478394,2023-10-21T15:58:29.397897Z,1697903909397
-0.6071404814720154,-1.2391571998596191,1.055977463722229,2023-10-21T15:58:29.407344Z,1697903909407
-0.6330809593200684,-1.1840835809707642,1.0478627681732178,2023-10-21T15:58:29.419699Z,1697903909419
-0.6711270213127136,-1.1345970630645752,1.034959077835083,2023-10-21T15:58:29.427577Z,1697903909427
-0.7211456298828125,-1.092826247215271,1.0184634923934937,2023-10-21T15:58:29.440391Z,1697903909440
-0.7799440622329712,-1.0593031644821167,0.9990414381027222,2023-10-21T15:58:29.447953Z,1697903909447
-0.8431324362754822,-1.033362627029419,0.9774908423423767,2023-10-21T15:58:29.458907Z,1697903909458
-0.9059216976165771,-1.0139405727386475,0.9554082155227661,2023-10-21T15:58:29.469365Z,1697903909469
-0.9644541144371033,-0.9995735287666321,0.9357200264930725,2023-10-21T15:58:29.478968Z,1697903909478
-1.0158029794692993,-0.9882661700248718,0.9213529825210571,2023-10-21T15:58:29.488414Z,1697903909488
-1.0583720207214355,-0.9764266610145569,0.9144355058670044,2023-10-21T15:58:29.502762Z,1697903909502
-1.0906977653503418,-0.9572705626487732,0.9148346185684204,2023-10-21T15:58:29.508789Z,1697903909508
-1.1111841201782227,-0.9217520952224731,0.9221511483192444,2023-10-21T15:58:29.519743Z,1697903909519
-1.1211612224578857,-0.8613572716712952,0.9370502829551697,2023-10-21T15:58:29.528948Z,1697903909528
-1.126083254814148,-0.77182936668396,0.9627247452735901,2023-10-21T15:58:29.539995Z,1697903909539
-1.130074143409729,-0.6489112973213196,1.0010368824005127,2023-10-21T15:58:29.552681Z,1697903909552
-1.1316704750061035,-0.4867500066757202,1.0510554313659668,2023-10-21T15:58:29.560033Z,1697903909560
-1.1267484426498413,-0.2832169234752655,1.1115832328796387,2023-10-21T15:58:29.569392Z,1697903909569
-1.1111841201782227,-0.04150478169322014,1.1803587675094604,2023-10-21T15:58:29.580234Z,1697903909580
-1.0833812952041626,0.2272120863199234,1.2525930404663086,2023-10-21T15:58:29.589752Z,1697903909589
-1.043206810951233,0.5068372488021851,1.3213685750961304,2023-10-21T15:58:29.603029Z,1697903909603
-0.9947845339775085,0.7775495648384094,1.3787037134170532,2023-10-21T15:58:29.609979Z,1697903909609
-0.9456971287727356,1.0193947553634644,1.4180800914764404,2023-10-21T15:58:29.620897Z,1697903909620
-0.9059216976165771,1.2154781818389893,1.433644413948059,2023-10-21T15:58:29.630265Z,1697903909630
-0.8845041990280151,1.3556898832321167,1.4203416109085083,2023-10-21T15:58:29.641226Z,1697903909641
-0.8884950280189514,1.4376351833343506,1.3753780126571655,2023-10-21T15:58:29.652610Z,1697903909652
-0.921885073184967,1.4627776145935059,1.2998180389404297,2023-10-21T15:58:29.661314Z,1697903909661
-0.9862707257270813,1.4353737831115723,1.1988496780395508,2023-10-21T15:58:29.670767Z,1697903909670
-1.0789912939071655,1.3611440658569336,1.0795234441757202,2023-10-21T15:58:29.681577Z,1697903909681
-1.1921982765197754,1.2483361959457397,0.9496879577636719,2023-10-21T15:58:29.691042Z,1697903909691
-1.315116286277771,1.1058629751205444,0.8161277174949646,2023-10-21T15:58:29.702782Z,1697903909702
-1.4371031522750854,0.9422383904457092,0.6849619746208191,2023-10-21T15:58:29.711267Z,1697903909711
-1.5491127967834473,0.7655770182609558,0.5617778897285461,2023-10-21T15:58:29.722324Z,1697903909722
-1.6443610191345215,0.5841265916824341,0.45083239674568176,2023-10-21T15:58:29.731471Z,1697903909731
-1.7199209928512573,0.40586888790130615,0.35478606820106506,2023-10-21T15:58:29.742557Z,1697903909742
-1.7772561311721802,0.23732222616672516,0.2740379869937897,2023-10-21T15:58:29.752454Z,1697903909752
-1.818361759185791,0.08433984965085983,0.20818905532360077,2023-10-21T15:58:29.762659Z,1697903909762
-1.8462977409362793,-0.04961949959397316,0.15630808472633362,2023-10-21T15:58:29.772101Z,1697903909772
-1.8649216890335083,-0.16375765204429626,0.11772991716861725,2023-10-21T15:58:29.783576Z,1697903909783
-1.877825379371643,-0.2591388523578644,0.09152337163686752,2023-10-21T15:58:29.792435Z,1697903909792
-1.886871337890625,-0.33722636103630066,0.07689027488231659,2023-10-21T15:58:29.803309Z,1697903909803
-1.8925914764404297,-0.4012129008769989,0.0730324536561966,2023-10-21T15:58:29.812579Z,1697903909812
-1.8929905891418457,-0.45415809750556946,0.0784866064786911,2023-10-21T15:58:29.823586Z,1697903909823
-1.8846098184585571,-0.49819043278694153,0.091656394302845,2023-10-21T15:58:29.835845Z,1697903909835
-1.863857388496399,-0.5345070958137512,0.11121153831481934,2023-10-21T15:58:29.843721Z,1697903909843
-1.830201268196106,-0.5652366280555725,0.13622082769870758,2023-10-21T15:58:29.853122Z,1697903909853
-1.7840405702590942,-0.5921083092689514,0.1657530814409256,2023-10-21T15:58:29.864009Z,1697903909863
-1.725641131401062,-0.6148561239242554,0.19887708127498627,2023-10-21T15:58:29.873460Z,1697903909873
-1.657796859741211,-0.634145200252533,0.23479469120502472,2023-10-21T15:58:29.886169Z,1697903909886
-1.5863606929779053,-0.6517049074172974,0.2721756100654602,2023-10-21T15:58:29.893648Z,1697903909893
-1.5177181959152222,-0.6692646145820618,0.30875834822654724,2023-10-21T15:58:29.904592Z,1697903909904
-1.4557271003723145,-0.6868243217468262,0.34174931049346924,2023-10-21T15:58:29.913800Z,1697903909913
-1.4030479192733765,-0.7046501040458679,0.36968523263931274,2023-10-21T15:58:29.924899Z,1697903909924
-1.3639376163482666,-0.7252694964408875,0.3913688361644745,2023-10-21T15:58:29.935555Z,1697903909935
-1.343185305595398,-0.7533383965492249,0.40533676743507385,2023-10-21T15:58:29.945011Z,1697903909944
-1.342786192893982,-0.7913844585418701,0.41039183735847473,2023-10-21T15:58:29.954427Z,1697903909954
-1.3616762161254883,-0.8392745852470398,0.4061349630355835,2023-10-21T15:58:29.968959Z,1697903909968
-1.3981258869171143,-0.8960776329040527,0.39376333355903625,2023-10-21T15:58:29.974719Z,1697903909974
-1.449075698852539,-0.960064172744751,0.37394213676452637,2023-10-21T15:58:29.985919Z,1697903909985
-1.509204387664795,-1.0280416011810303,0.34760257601737976,2023-10-21T15:58:29.994922Z,1697903909994
-1.5717276334762573,-1.0961519479751587,0.31647396087646484,2023-10-21T15:58:30.005936Z,1697903910005
-1.6306591033935547,-1.160138487815857,0.28348299860954285,2023-10-21T15:58:30.015081Z,1697903910015
-1.6825400590896606,-1.21640944480896,0.252088338136673,2023-10-21T15:58:30.026176Z,1697903910026
-1.7261732816696167,-1.2623041868209839,0.22548271715641022,2023-10-21T15:58:30.035583Z,1697903910035
-1.7607606649398804,-1.2962262630462646,0.20539546012878418,2023-10-21T15:58:30.046335Z,1697903910046
-1.7867010831832886,-1.3175108432769775,0.19222567975521088,2023-10-21T15:58:30.055822Z,1697903910055
-1.804526925086975,-1.3252264261245728,0.18623940646648407,2023-10-21T15:58:30.069307Z,1697903910069
-1.8153021335601807,-1.3193732500076294,0.18783575296401978,2023-10-21T15:58:30.076069Z,1697903910076
-1.818361759185791,-1.2999510765075684,0.1964825838804245,2023-10-21T15:58:30.086949Z,1697903910086
-1.8107792139053345,-1.2681573629379272,0.2107165902853012,2023-10-21T15:58:30.096279Z,1697903910096
-1.7892286777496338,-1.2271846532821655,0.2293405383825302,2023-10-21T15:58:30.107261Z,1697903910107
-1.7506505250930786,-1.1798267364501953,0.25115716457366943,2023-10-21T15:58:30.118873Z,1697903910118
-1.6929162740707397,-1.1284778118133545,0.27417102456092834,2023-10-21T15:58:30.127401Z,1697903910127
-1.619750738143921,-1.0772619247436523,0.29492342472076416,2023-10-21T15:58:30.136821Z,1697903910136
-1.5420622825622559,-1.0336287021636963,0.3084922730922699,2023-10-21T15:58:30.147691Z,1697903910147
-1.472754716873169,-1.0028992891311646,0.31101980805397034,2023-10-21T15:58:30.157135Z,1697903910157
-1.421006679534912,-0.985472559928894,0.3018408715724945,2023-10-21T15:58:30.169558Z,1697903910169
-1.3929377794265747,-0.9774908423423767,0.28401511907577515,2023-10-21T15:58:30.177390Z,1697903910177
-1.3894790410995483,-0.9749633073806763,0.26259756088256836,2023-10-21T15:58:30.188335Z,1697903910188
-1.4005204439163208,-0.9729679226875305,0.24251031875610352,2023-10-21T15:58:30.197524Z,1697903910197
-1.405442476272583,-0.9659174084663391,0.22867539525032043,2023-10-21T15:58:30.208609Z,1697903910208
-1.3759101629257202,-0.9475595355033875,0.22415243089199066,2023-10-21T15:58:30.218919Z,1697903910218
-1.2874464988708496,-0.9127061367034912,0.2288084179162979,2023-10-21T15:58:30.228675Z,1697903910228
-1.1322026252746582,-0.8626875877380371,0.2382534146308899,2023-10-21T15:58:30.238150Z,1697903910238
-0.9257429242134094,-0.8065496683120728,0.24450574815273285,2023-10-21T15:58:30.252613Z,1697903910252
-0.7043840885162354,-0.755998969078064,0.24024884402751923,2023-10-21T15:58:30.258445Z,1697903910258
-0.5071033239364624,-0.718218982219696,0.22415243089199066,2023-10-21T15:58:30.269322Z,1697903910269
-0.36662557721138,-0.6950721144676208,0.20127159357070923,2023-10-21T15:58:30.278632Z,1697903910278
-0.30410236120224,-0.6865583062171936,0.17985406517982483,2023-10-21T15:58:30.289696Z,1697903910289
-0.3209969401359558,-0.6885536909103394,0.16695033013820648,2023-10-21T15:58:30.302135Z,1697903910302
-0.4024101495742798,-0.6949390769004822,0.16655124723911285,2023-10-21T15:58:30.309750Z,1697903910309
-0.5217363834381104,-0.6991959810256958,0.18078525364398956,2023-10-21T15:58:30.319193Z,1697903910319
-0.6510397791862488,-0.696402370929718,0.21111567318439484,2023-10-21T15:58:30.330043Z,1697903910330
-0.7667742967605591,-0.6830995678901672,0.2563452422618866,2023-10-21T15:58:30.339504Z,1697903910339
-0.8544397950172424,-0.659553587436676,0.3127491772174835,2023-10-21T15:58:30.352395Z,1697903910352
-0.9089813828468323,-0.6285580396652222,0.3754054307937622,2023-10-21T15:58:30.359715Z,1697903910359
-0.9266741275787354,-0.5926403999328613,0.43885987997055054,2023-10-21T15:58:30.370619Z,1697903910370
-0.9053896069526672,-0.5520668029785156,0.4972592294216156,2023-10-21T15:58:30.379952Z,1697903910379
-0.8488526344299316,-0.5094978213310242,0.5460805892944336,2023-10-21T15:58:30.390958Z,1697903910390
-0.7690357565879822,-0.4714517593383789,0.5829293727874756,2023-10-21T15:58:30.402189Z,1697903910402
-0.6792417168617249,-0.4433828294277191,0.6066083908081055,2023-10-21T15:58:30.411104Z,1697903910411
-0.5909110307693481,-0.42622220516204834,0.6181818246841431,2023-10-21T15:58:30.420558Z,1697903910420
-0.5124244689941406,-0.41850656270980835,0.6203102469444275,2023-10-21T15:58:30.431354Z,1697903910431
-0.4517636001110077,-0.4182405173778534,0.6192460656166077,2023-10-21T15:58:30.440841Z,1697903910440
-0.4159790277481079,-0.42236438393592834,0.6233699321746826,2023-10-21T15:58:30.452320Z,1697903910452
-0.41092395782470703,-0.4275524914264679,0.6402645111083984,2023-10-21T15:58:30.461056Z,1697903910461
-0.4403231739997864,-0.43047910928726196,0.6740536689758301,2023-10-21T15:58:30.472037Z,1697903910472
-0.5043097138404846,-0.42954790592193604,0.7246043682098389,2023-10-21T15:58:30.481166Z,1697903910481
-0.6023514866828918,-0.4264882504940033,0.7911184430122375,2023-10-21T15:58:30.492337Z,1697903910492
-0.7341823577880859,-0.42449283599853516,0.8723986148834229,2023-10-21T15:58:30.501893Z,1697903910501
-0.8987382054328918,-0.4252910017967224,0.9679128527641296,2023-10-21T15:58:30.512368Z,1697903910512
-1.0918951034545898,-0.4279515743255615,1.0751335620880127,2023-10-21T15:58:30.521999Z,1697903910521
-1.3056713342666626,-0.4302130341529846,1.1900697946548462,2023-10-21T15:58:30.535620Z,1697903910535
-1.5296907424926758,-0.4326075613498688,1.3048731088638306,2023-10-21T15:58:30.542076Z,1697903910542
-1.7539762258529663,-0.4364653527736664,1.4089012145996094,2023-10-21T15:58:30.552962Z,1697903910552
-1.9775965213775635,-0.44591036438941956,1.487786889076233,2023-10-21T15:58:30.562321Z,1697903910562
-2.2123911380767822,-0.4669288098812103,1.5279613733291626,2023-10-21T15:58:30.573324Z,1697903910573
-2.474057674407959,-0.5037776231765747,1.5175851583480835,2023-10-21T15:58:30.585221Z,1697903910585
-2.7667195796966553,-0.5539292097091675,1.4506720304489136,2023-10-21T15:58:30.593404Z,1697903910593
-3.0774731636047363,-0.6070074439048767,1.3329421281814575,2023-10-21T15:58:30.602890Z,1697903910602
-3.3858325481414795,-0.6497095227241516,1.1830193996429443,2023-10-21T15:58:30.613657Z,1697903910613
-3.671177864074707,-0.6733884811401367,1.0265783071517944,2023-10-21T15:58:30.623200Z,1697903910623
-3.9174129962921143,-0.6771132946014404,0.8875638246536255,2023-10-21T15:58:30.635633Z,1697903910635
-4.108973503112793,-0.6640765070915222,0.7810083031654358,2023-10-21T15:58:30.643399Z,1697903910643
-4.231492519378662,-0.6370718479156494,0.7155584096908569,2023-10-21T15:58:30.654323Z,1697903910654
-4.275258541107178,-0.5982276201248169,0.6902830600738525,2023-10-21T15:58:30.663713Z,1697903910663
-4.240405559539795,-0.5500714182853699,0.696801483631134,2023-10-21T15:58:30.674693Z,1697903910674
-4.140634059906006,-0.4963280260562897,0.7196822762489319,2023-10-21T15:58:30.685222Z,1697903910685
-3.999624490737915,-0.4400571286678314,0.7426961660385132,2023-10-21T15:58:30.694696Z,1697903910694
-3.8409218788146973,-0.3829880356788635,0.7558659315109253,2023-10-21T15:58:30.704215Z,1697903910704
-3.678893566131592,-0.32512080669403076,0.7578613758087158,2023-10-21T15:58:30.714967Z,1697903910714
-3.517796516418457,-0.26632237434387207,0.7534714341163635,2023-10-21T15:58:30.724512Z,1697903910724
-3.35802960395813,-0.2068587690591812,0.7478842735290527,2023-10-21T15:58:30.735451Z,1697903910735
-3.200125217437744,-0.14859244227409363,0.744159460067749,2023-10-21T15:58:30.744690Z,1697903910744
-3.0462117195129395,-0.09325273334980011,0.7432282567024231,2023-10-21T15:58:30.755718Z,1697903910755
-2.899747610092163,-0.042169924825429916,0.7458888292312622,2023-10-21T15:58:30.768471Z,1697903910768
-2.762063503265381,0.004655985161662102,0.753205418586731,2023-10-21T15:58:30.775817Z,1697903910775
-2.6311638355255127,0.04855527728796005,0.7662421464920044,2023-10-21T15:58:30.785223Z,1697903910785
-2.5067825317382812,0.08992703258991241,0.7863293886184692,2023-10-21T15:58:30.796080Z,1697903910796
-2.390781879425049,0.12797307968139648,0.8137332201004028,2023-10-21T15:58:30.805566Z,1697903910805
-2.2863547801971436,0.16216132044792175,0.8488526344299316,2023-10-21T15:58:30.818749Z,1697903910818
-2.1949644088745117,0.1926247626543045,0.8916876912117004,2023-10-21T15:58:30.825820Z,1697903910825
-2.116744041442871,0.21923039853572845,0.9426375031471252,2023-10-21T15:58:30.836750Z,1697903910836
-2.0503628253936768,0.24184517562389374,1.0007708072662354,2023-10-21T15:58:30.845984Z,1697903910845
-1.9930278062820435,0.26033610105514526,1.0647573471069336,2023-10-21T15:58:30.857047Z,1697903910857
-1.9430091381072998,0.2751022279262543,1.1322026252746582,2023-10-21T15:58:30.868294Z,1697903910868
-1.8991098403930664,0.28627657890319824,1.2012442350387573,2023-10-21T15:58:30.877292Z,1697903910877
-1.8598666191101074,0.29279497265815735,1.2705519199371338,2023-10-21T15:58:30.886578Z,1697903910886
-1.82461416721344,0.2935931384563446,1.3383961915969849,2023-10-21T15:58:30.897503Z,1697903910897
-1.7930864095687866,0.28867107629776,1.4034470319747925,2023-10-21T15:58:30.906894Z,1697903910906
-1.7663477659225464,0.2804233431816101,1.4643739461898804,2023-10-21T15:58:30.918733Z,1697903910918
-1.7477238178253174,0.2739049792289734,1.51997971534729,2023-10-21T15:58:30.927092Z,1697903910927
-1.7438660860061646,0.2751022279262543,1.5690670013427734,2023-10-21T15:58:30.938064Z,1697903910938
-1.7642194032669067,0.28867107629776,1.6101727485656738,2023-10-21T15:58:30.947409Z,1697903910947
-1.815967321395874,0.3178042471408844,1.6420994997024536,2023-10-21T15:58:30.958425Z,1697903910958
-1.899641990661621,0.363166868686676,1.6665767431259155,2023-10-21T15:58:30.967641Z,1697903910967
-2.008592128753662,0.4232955873012543,1.6869299411773682,2023-10-21T15:58:30.978391Z,1697903910978
-2.131643056869507,0.4928693175315857,1.7062190771102905,2023-10-21T15:58:30.987937Z,1697903910987
-2.2582859992980957,0.5651035904884338,1.725508213043213,2023-10-21T15:58:31.002408Z,1697903911002
-2.3804056644439697,0.6337460875511169,1.7443981170654297,2023-10-21T15:58:31.008189Z,1697903911008
-2.494144916534424,0.6953381299972534,1.7626230716705322,2023-10-21T15:58:31.019317Z,1697903911019
-2.6007003784179688,0.7504118084907532,1.7795175313949585,2023-10-21T15:58:31.028420Z,1697903911028
-2.7044622898101807,0.8017606735229492,1.794150710105896,2023-10-21T15:58:31.039666Z,1697903911039
-2.8082242012023926,0.8539077043533325,1.8050589561462402,2023-10-21T15:58:31.051587Z,1697903911051
-2.912252187728882,0.9103116393089294,1.8114444017410278,2023-10-21T15:58:31.059531Z,1697903911059
-3.011624336242676,0.9720367193222046,1.8117103576660156,2023-10-21T15:58:31.068959Z,1697903911068
-3.098757743835449,1.0360232591629028,1.804127812385559,2023-10-21T15:58:31.079784Z,1697903911079
-3.162877321243286,1.0969501733779907,1.787366271018982,2023-10-21T15:58:31.089297Z,1697903911089
-3.1932077407836914,1.1492302417755127,1.7610266208648682,2023-10-21T15:58:31.101969Z,1697903911101
-3.1830976009368896,1.1894047260284424,1.725508213043213,2023-10-21T15:58:31.109433Z,1697903911109
-3.131748676300049,1.215611219406128,1.6825400590896606,2023-10-21T15:58:31.120479Z,1697903911120
-3.045945644378662,1.2281159162521362,1.6338517665863037,2023-10-21T15:58:31.129630Z,1697903911129
-2.936596393585205,1.229180097579956,1.5803744792938232,2023-10-21T15:58:31.140811Z,1697903911140
-2.8155407905578613,1.222794771194458,1.523172378540039,2023-10-21T15:58:31.151584Z,1697903911151
-2.6892971992492676,1.210955262184143,1.4630435705184937,2023-10-21T15:58:31.160828Z,1697903911160
-2.5578653812408447,1.1932625770568848,1.4022496938705444,2023-10-21T15:58:31.170287Z,1697903911170
-2.4177865982055664,1.1674550771713257,1.3434512615203857,2023-10-21T15:58:31.181051Z,1697903911181
-2.268662214279175,1.1326017379760742,1.2885106801986694,2023-10-21T15:58:31.190586Z,1697903911190
-2.115945816040039,1.0922940969467163,1.2380930185317993,2023-10-21T15:58:31.201809Z,1697903911201
-1.970146894454956,1.051986575126648,1.1924643516540527,2023-10-21T15:58:31.210768Z,1697903911210
-1.8403114080429077,1.0156699419021606,1.151890754699707,2023-10-21T15:58:31.221992Z,1697903911221
-1.7313613891601562,0.9817477464675903,1.1183676719665527,2023-10-21T15:58:31.230950Z,1697903911230
-1.6460903882980347,0.9462292194366455,1.0938905477523804,2023-10-21T15:58:31.242319Z,1697903911242
-1.5902185440063477,0.9092473983764648,1.0807206630706787,2023-10-21T15:58:31.252034Z,1697903911251
-1.5693330764770508,0.8766555190086365,1.080986738204956,2023-10-21T15:58:31.262349Z,1697903911262
-1.5920809507369995,0.859627902507782,1.0976152420043945,2023-10-21T15:58:31.271730Z,1697903911271
-1.670168399810791,0.8726646900177002,1.1339319944381714,2023-10-21T15:58:31.285403Z,1697903911285
-1.818228840827942,0.9310640096664429,1.194193720817566,2023-10-21T15:58:31.291915Z,1697903911291
-2.0503628253936768,1.0503902435302734,1.2834556102752686,2023-10-21T15:58:31.302977Z,1697903911302
-2.375882863998413,1.245409607887268,1.4063736200332642,2023-10-21T15:58:31.312112Z,1697903911312
-2.794921398162842,1.5268970727920532,1.5668056011199951,2023-10-21T15:58:31.323320Z,1697903911323
-3.2920477390289307,1.8980456590652466,1.7674120664596558,2023-10-21T15:58:31.334763Z,1697903911334
-3.8371970653533936,2.353933095932007,2.008725166320801,2023-10-21T15:58:31.343390Z,1697903911343
-4.381016254425049,2.871013641357422,2.2876851558685303,2023-10-21T15:58:31.352636Z,1697903911352
-4.858720302581787,3.3955435752868652,2.598572015762329,2023-10-21T15:58:31.363546Z,1697903911363
-5.218827247619629,3.8571512699127197,2.9259541034698486,2023-10-21T15:58:31.372985Z,1697903911372
-5.174263000488281,4.068799018859863,3.179372787475586,2023-10-21T15:58:31.385047Z,1697903911385
-5.289199352264404,4.2674102783203125,3.4442319869995117,2023-10-21T15:58:31.393222Z,1697903911393
-5.3507914543151855,4.355607986450195,3.653219223022461,2023-10-21T15:58:31.404241Z,1697903911404
-5.3896355628967285,4.363988399505615,3.798618793487549,2023-10-21T15:58:31.413324Z,1697903911413
-5.424622058868408,4.32953405380249,3.8828256130218506,2023-10-21T15:58:31.424496Z,1697903911424
-5.4589433670043945,4.274061679840088,3.9150185585021973,2023-10-21T15:58:31.434599Z,1697903911434
-5.487943172454834,4.204354763031006,3.9049084186553955,2023-10-21T15:58:31.444541Z,1697903911444
-5.5057692527771,4.120413780212402,3.8604769706726074,2023-10-21T15:58:31.453984Z,1697903911453
-5.509493827819824,4.022372245788574,3.7875776290893555,2023-10-21T15:58:31.468616Z,1697903911468
-5.4965901374816895,3.90344500541687,3.6883385181427,2023-10-21T15:58:31.474266Z,1697903911474
-5.463865280151367,3.759774684906006,3.562626838684082,2023-10-21T15:58:31.485198Z,1697903911485
-5.409323692321777,3.5976133346557617,3.4103097915649414,2023-10-21T15:58:31.494476Z,1697903911494
-5.332566738128662,3.4186904430389404,3.2259325981140137,2023-10-21T15:58:31.505709Z,1697903911505
-5.232928276062012,3.197863817214966,2.981959104537964,2023-10-21T15:58:31.518058Z,1697903911518
-5.11067533493042,2.861036539077759,2.6128058433532715,2023-10-21T15:58:31.525740Z,1697903911525
-5.22374963760376,1.9912984371185303,1.8014671802520752,2023-10-21T15:58:31.535023Z,1697903911534
-4.811229228973389,-13.594944953918457,-10.106680870056152,2023-10-21T15:58:31.545974Z,1697903911545
-4.59918212890625,-27.72226905822754,-21.151609420776367,2023-10-21T15:58:31.555351Z,1697903911555
-4.403896808624268,-25.039091110229492,-19.756277084350586,2023-10-21T15:58:31.568531Z,1697903911568
-4.268075466156006,-21.356605529785156,-17.600954055786133,2023-10-21T15:58:31.575531Z,1697903911575
-4.177083969116211,-18.040746688842773,-15.721266746520996,2023-10-21T15:58:31.586549Z,1697903911586
-4.107643127441406,-15.163745880126953,-14.122933387756348,2023-10-21T15:58:31.595796Z,1697903911595
-4.027693271636963,-12.707513809204102,-12.781477928161621,2023-10-21T15:58:31.606885Z,1697903911606
-3.9186103343963623,-10.618971824645996,-11.686789512634277,2023-10-21T15:58:31.617925Z,1697903911617
-3.7855820655822754,-8.843844413757324,-10.838868141174316,2023-10-21T15:58:31.626907Z,1697903911626
-3.6409804821014404,-7.324530124664307,-10.2276029586792,2023-10-21T15:58:31.636397Z,1697903911636
-3.4816126823425293,-5.995312690734863,-9.811224937438965,2023-10-21T15:58:31.647347Z,1697903911647
-3.2804741859436035,-5.113735198974609,-9.513375282287598,2023-10-21T15:58:31.656682Z,1697903911656
-3.0056381225585938,-4.401768684387207,-9.244392395019531,2023-10-21T15:58:31.668245Z,1697903911668
-2.6281042098999023,-3.6541502475738525,-8.922064781188965,2023-10-21T15:58:31.676858Z,1697903911676
-2.126455068588257,-3.2220749855041504,-8.476021766662598,2023-10-21T15:58:31.687926Z,1697903911687
-1.50454843044281,-3.070023775100708,-7.8644914627075195,2023-10-21T15:58:31.697028Z,1697903911697
-0.8016276359558105,-3.147313117980957,-7.100244522094727,2023-10-21T15:58:31.708262Z,1697903911708
-0.12438131868839264,-3.385167360305786,-6.277066230773926,2023-10-21T15:58:31.717906Z,1697903911717
0.3863137662410736,-3.6997790336608887,-5.530113220214844,2023-10-21T15:58:31.728217Z,1697903911728
0.6353424787521362,-4.120147705078125,-5.213772296905518,2023-10-21T15:58:31.737670Z,1697903911737
0.6066083908081055,-4.29960298538208,-4.670485496520996,2023-10-21T15:58:31.751629Z,1697903911751
0.36356595158576965,-4.215928077697754,-4.36651611328125,2023-10-21T15:58:31.757946Z,1697903911757
-0.0015963378828018904,-3.89107346534729,-4.378355503082275,2023-10-21T15:58:31.768874Z,1697903911768
-0.3780660033226013,-3.4190895557403564,-4.4548468589782715,2023-10-21T15:58:31.778201Z,1697903911778
-0.6471819877624512,-2.945908308029175,-4.539186477661133,2023-10-21T15:58:31.789210Z,1697903911789
-0.7428292036056519,-2.496539354324341,-4.613150119781494,2023-10-21T15:58:31.801110Z,1697903911801
-0.6869573593139648,-2.018702268600464,-4.700948715209961,2023-10-21T15:58:31.809258Z,1697903911809
-0.6032826900482178,-1.6120351552963257,-4.872555255889893,2023-10-21T15:58:31.818729Z,1697903911818
-0.6399984359741211,-1.3157814741134644,-5.213107109069824,2023-10-21T15:58:31.829625Z,1697903911829
-0.8580315709114075,-0.8497838377952576,-5.476902008056641,2023-10-21T15:58:31.839017Z,1697903911838
-1.1691844463348389,-0.18065223097801208,-6.260304927825928,2023-10-21T15:58:31.851445Z,1697903911851
-1.3156484365463257,0.5286538600921631,-7.403415679931641,2023-10-21T15:58:31.859263Z,1697903911859
-0.9284034967422485,1.479539155960083,-9.080501556396484,2023-10-21T15:58:31.870176Z,1697903911870
0.3933642506599426,2.9940645694732666,-11.516380310058594,2023-10-21T15:58:31.879429Z,1697903911879
2.6641547679901123,5.264190196990967,-14.50632095336914,2023-10-21T15:58:31.890498Z,1697903911890
4.938004970550537,7.726940155029297,-16.9104061126709,2023-10-21T15:58:31.901044Z,1697903911900
6.156409740447998,9.442604064941406,-17.728130340576172,2023-10-21T15:58:31.910590Z,1697903911910
6.284648895263672,10.15018081665039,-17.164091110229492,2023-10-21T15:58:31.920009Z,1697903911919
5.822775363922119,10.154836654663086,-15.891011238098145,2023-10-21T15:58:31.930796Z,1697903911930
5.136483192443848,9.76745891571045,-14.35693073272705,2023-10-21T15:58:31.940388Z,1697903911940
4.410681247711182,9.181337356567383,-12.786399841308594,2023-10-21T15:58:31.951334Z,1697903911951
3.7290451526641846,8.5107421875,-11.286640167236328,2023-10-21T15:58:31.960592Z,1697903911960
3.1246981620788574,7.82431697845459,-9.903547286987305,2023-10-21T15:58:31.971580Z,1697903911971
2.6060214042663574,7.164231300354004,-8.651751518249512,2023-10-21T15:58:31.984481Z,1697903911984
2.169556140899658,6.553897857666016,-7.5288615226745605,2023-10-21T15:58:31.991836Z,1697903911991
1.8077195882797241,6.0048909187316895,-6.527292251586914,2023-10-21T15:58:32.001375Z,1697903912001
1.511997938156128,5.519604206085205,-5.639196395874023,2023-10-21T15:58:32.012069Z,1697903912012
1.2760059833526611,5.094313144683838,-4.859518527984619,2023-10-21T15:58:32.021396Z,1697903912021
1.0956199169158936,4.931885719299316,-4.331662654876709,2023-10-21T15:58:32.034977Z,1697903912034
0.9562063813209534,4.555682182312012,-3.7021734714508057,2023-10-21T15:58:32.041715Z,1697903912041
0.8527104258537292,4.216194152832031,-3.185359001159668,2023-10-21T15:58:32.052754Z,1697903912052
0.7751550674438477,3.9029128551483154,-2.764857053756714,2023-10-21T15:58:32.061888Z,1697903912061
0.7154253721237183,3.609851837158203,-2.424304962158203,2023-10-21T15:58:32.073018Z,1697903912072
0.6675352454185486,3.3352818489074707,-2.1461431980133057,2023-10-21T15:58:32.084812Z,1697903912084
0.6260305047035217,3.078404426574707,-1.914275050163269,2023-10-21T15:58:32.093061Z,1697903912093
0.5883834958076477,2.8404171466827393,-1.7138017416000366,2023-10-21T15:58:32.102403Z,1697903912102
0.5543283224105835,2.6227829456329346,-1.5334155559539795,2023-10-21T15:58:32.113283Z,1697903912113
0.5253281593322754,2.426300525665283,-1.3668642044067383,2023-10-21T15:58:32.122714Z,1697903912122
0.5012500882148743,2.248175859451294,-1.2126846313476562,2023-10-21T15:58:32.134915Z,1697903912134
0.4786352813243866,2.0805602073669434,-1.071408748626709,2023-10-21T15:58:32.142977Z,1697903912142
0.4532269239425659,1.9140090942382812,-0.9434356689453125,2023-10-21T15:58:32.154086Z,1697903912154
0.4231625497341156,1.741471529006958,-0.8290314674377441,2023-10-21T15:58:32.163068Z,1697903912163
0.38937339186668396,1.5578926801681519,-0.7292603254318237,2023-10-21T15:58:32.174370Z,1697903912174
0.3446759283542633,1.3554238080978394,-0.633213996887207,2023-10-21T15:58:32.184543Z,1697903912184
0.2975839674472809,1.1287438869476318,-0.5612457990646362,2023-10-21T15:58:32.194350Z,1697903912194
0.24556997418403625,0.8749261498451233,-0.5072363615036011,2023-10-21T15:58:32.203760Z,1697903912203
0.1789228618144989,0.5978285074234009,-0.444580078125,2023-10-21T15:58:32.214655Z,1697903912214
0.11227575689554214,0.31487762928009033,-0.38285502791404724,2023-10-21T15:58:32.224120Z,1697903912224
0.05361034348607063,0.04203689470887184,-0.3194005787372589,2023-10-21T15:58:32.234970Z,1697903912234
0.005853238515555859,-0.21098265051841736,-0.2526204586029053,2023-10-21T15:58:32.244254Z,1697903912244
-0.030197391286492348,-0.43872684240341187,-0.18211553990840912,2023-10-21T15:58:32.255310Z,1697903912255
-0.05334429070353508,-0.637736976146698,-0.10855097323656082,2023-10-21T15:58:32.267563Z,1697903912267
-0.06212414801120758,-0.8064166307449341,-0.03352309390902519,2023-10-21T15:58:32.275348Z,1697903912275
-0.05773421749472618,-0.9475595355033875,0.040972672402858734,2023-10-21T15:58:32.284817Z,1697903912284
-0.04270203784108162,-1.0658215284347534,0.11107850819826126,2023-10-21T15:58:32.295569Z,1697903912295
-0.019688166677951813,-1.166523814201355,0.17426687479019165,2023-10-21T15:58:32.305133Z,1697903912305
0.008513801731169224,-1.2544554471969604,0.22973962128162384,2023-10-21T15:58:32.317907Z,1697903912317
0.041903868317604065,-1.3312127590179443,0.27856093645095825,2023-10-21T15:58:32.325277Z,1697903912325
0.08327562361955643,-1.3948001861572266,0.32126298546791077,2023-10-21T15:58:32.336311Z,1697903912336
0.13741807639598846,-1.4426902532577515,0.3590429723262787,2023-10-21T15:58:32.345482Z,1697903912345
0.20832209289073944,-1.4735528230667114,0.3945614993572235,2023-10-21T15:58:32.356615Z,1697903912356
0.29838213324546814,-1.4865895509719849,0.4308781921863556,2023-10-21T15:58:32.367389Z,1697903912367
0.4078643023967743,-1.4799381494522095,0.47052058577537537,2023-10-21T15:58:32.376754Z,1697903912376
0.5339750051498413,-1.4528003931045532,0.514153778553009,2023-10-21T15:58:32.386188Z,1697903912386
0.6701958179473877,-1.4075708389282227,0.5621769428253174,2023-10-21T15:58:32.396873Z,1697903912396
0.8061506152153015,-1.3490384817123413,0.614590048789978,2023-10-21T15:58:32.406415Z,1697903912406
0.9319952130317688,-1.2803959846496582,0.6708609461784363,2023-10-21T15:58:32.417716Z,1697903912417
1.041344404220581,-1.2025744915008545,0.7288612723350525,2023-10-21T15:58:32.426589Z,1697903912426
1.1298080682754517,-1.117303490638733,0.7876597046852112,2023-10-21T15:58:32.437656Z,1697903912437
1.1933954954147339,-1.0279085636138916,0.8471232652664185,2023-10-21T15:58:32.446787Z,1697903912446
1.2307764291763306,-0.936917245388031,0.9075180292129517,2023-10-21T15:58:32.457958Z,1697903912457
1.244611382484436,-0.8453938961029053,0.967779815196991,2023-10-21T15:58:32.467277Z,1697903912467
1.2396893501281738,-0.7544026374816895,1.0268442630767822,2023-10-21T15:58:32.477933Z,1697903912477
1.2205332517623901,-0.6663380265235901,1.0851106643676758,2023-10-21T15:58:32.487460Z,1697903912487
1.1902028322219849,-0.5833284258842468,1.1432439088821411,2023-10-21T15:58:32.501134Z,1697903912501
1.1528220176696777,-0.5055069923400879,1.1999139785766602,2023-10-21T15:58:32.507743Z,1697903912507
1.1114501953125,-0.43327268958091736,1.2529921531677246,2023-10-21T15:58:32.518653Z,1697903912518
1.0652894973754883,-0.3692861497402191,1.3018134832382202,2023-10-21T15:58:32.527906Z,1697903912527
1.0118120908737183,-0.31647396087646484,1.3467769622802734,2023-10-21T15:58:32.538970Z,1697903912538
0.9506191611289978,-0.274304062128067,1.3878827095031738,2023-10-21T15:58:32.550637Z,1697903912550
0.8845041990280151,-0.23971672356128693,1.4230021238327026,2023-10-21T15:58:32.559083Z,1697903912559
0.8150634765625,-0.21084962785243988,1.451869249343872,2023-10-21T15:58:32.568490Z,1697903912568
0.7429622411727905,-0.18730363249778748,1.4756813049316406,2023-10-21T15:58:32.579261Z,1697903912579
0.6688655614852905,-0.16828061640262604,1.4957685470581055,2023-10-21T15:58:32.588776Z,1697903912588
0.5947688817977905,-0.1531154066324234,1.5133283138275146,2023-10-21T15:58:32.600977Z,1697903912600
0.5226675868034363,-0.14061075448989868,1.528759479522705,2023-10-21T15:58:32.608975Z,1697903912608
0.4538920521736145,-0.1306336522102356,1.5412641763687134,2023-10-21T15:58:32.620050Z,1697903912620
0.3881761431694031,-0.12305103987455368,1.5499110221862793,2023-10-21T15:58:32.629171Z,1697903912629
0.3205978572368622,-0.11945927888154984,1.5553652048110962,2023-10-21T15:58:32.640351Z,1697903912640
0.24517089128494263,-0.12211984395980835,1.5598881244659424,2023-10-21T15:58:32.650516Z,1697903912650
0.1597668081521988,-0.13183090090751648,1.5633468627929688,2023-10-21T15:58:32.661676Z,1697903912661
0.06717921793460846,-0.14739519357681274,1.563612937927246,2023-10-21T15:58:32.669842Z,1697903912669
-0.027669856324791908,-0.16615216434001923,1.5577596426010132,2023-10-21T15:58:32.684366Z,1697903912684
-0.12092258781194687,-0.18557427823543549,1.544190764427185,2023-10-21T15:58:32.690141Z,1697903912690
-0.20978540182113647,-0.2041982114315033,1.5233054161071777,2023-10-21T15:58:32.701045Z,1697903912701
-0.2923958897590637,-0.2217579334974289,1.4959015846252441,2023-10-21T15:58:32.710367Z,1697903912710
-0.3678228259086609,-0.23679010570049286,1.4630435705184937,2023-10-21T15:58:32.721380Z,1697903912721
-0.4361993074417114,-0.2475653886795044,1.4259287118911743,2023-10-21T15:58:32.733720Z,1697903912733
-0.49912163615226746,-0.2524874210357666,1.386020302772522,2023-10-21T15:58:32.741475Z,1697903912741
-0.5579200983047485,-0.25049200654029846,1.3446485996246338,2023-10-21T15:58:32.750858Z,1697903912750
-0.6137918829917908,-0.2414460927248001,1.3018134832382202,2023-10-21T15:58:32.761757Z,1697903912761
-0.6687325239181519,-0.22641392052173615,1.2569830417633057,2023-10-21T15:58:32.771218Z,1697903912771
-0.7254025340080261,-0.2068587690591812,1.210024118423462,2023-10-21T15:58:32.784405Z,1697903912784
-0.7849991321563721,-0.18357884883880615,1.1600054502487183,2023-10-21T15:58:32.791416Z,1697903912791
-0.8472563028335571,-0.1569732129573822,1.105996012687683,2023-10-21T15:58:32.802411Z,1697903912802
-0.9112428426742554,-0.12717491388320923,1.0483949184417725,2023-10-21T15:58:32.811705Z,1697903912811
-0.9770917892456055,-0.09484907239675522,0.9886652231216431,2023-10-21T15:58:32.822682Z,1697903912822
-1.0452021360397339,-0.05906450003385544,0.9284034967422485,2023-10-21T15:58:32.833801Z,1697903912833
-1.1167713403701782,-0.017958801239728928,0.8685408234596252,2023-10-21T15:58:32.842793Z,1697903912842
-1.1961891651153564,0.028734080493450165,0.8082790374755859,2023-10-21T15:58:32.852290Z,1697903912852
-1.2898409366607666,0.07981689274311066,0.7446916103363037,2023-10-21T15:58:32.863048Z,1697903912863
-1.4025157690048218,0.1316978633403778,0.6752508878707886,2023-10-21T15:58:32.872521Z,1697903912872
-1.5334155559539795,0.18145039677619934,0.5995578765869141,2023-10-21T15:58:32.884071Z,1697903912884
-1.6738932132720947,0.22601483762264252,0.5208052396774292,2023-10-21T15:58:32.892726Z,1697903912892
-1.812375545501709,0.2624645531177521,0.4440479576587677,2023-10-21T15:58:32.903772Z,1697903912903
-1.938353180885315,0.2880059480667114,0.3742081820964813,2023-10-21T15:58:32.912876Z,1697903912912
-2.0457069873809814,0.30170783400535583,0.31487762928009033,2023-10-21T15:58:32.924082Z,1697903912924
-2.136033058166504,0.3047674894332886,0.2660562992095947,2023-10-21T15:58:32.933591Z,1697903912933
-2.214120626449585,0.3007766604423523,0.22707904875278473,2023-10-21T15:58:32.944119Z,1697903912944
-2.2868869304656982,0.2937261462211609,0.1970146894454956,2023-10-21T15:58:32.953559Z,1697903912953
-2.3616487979888916,0.28680869936943054,0.17599624395370483,2023-10-21T15:58:32.967447Z,1697903912967
-2.4462547302246094,0.28068938851356506,0.16229434311389923,2023-10-21T15:58:32.973806Z,1697903912973
-2.5478882789611816,0.2744370698928833,0.15205118060112,2023-10-21T15:58:32.984766Z,1697903912984
-2.6685447692871094,0.26485905051231384,0.1416749805212021,2023-10-21T15:58:32.994029Z,1697903912993
-2.8043665885925293,0.24849659204483032,0.1301015317440033,2023-10-21T15:58:33.005134Z,1697903913005
-2.949367046356201,0.22215701639652252,0.11812900006771088,2023-10-21T15:58:33.016996Z,1697903913016
-3.098491668701172,0.1827806830406189,0.10589040815830231,2023-10-21T15:58:33.025148Z,1697903913025
-3.244290590286255,0.12757399678230286,0.09272062033414841,2023-10-21T15:58:33.034546Z,1697903913034
-3.375190258026123,0.05613787844777107,0.07755541056394577,2023-10-21T15:58:33.045390Z,1697903913045
-3.476956844329834,-0.028201967477798462,0.06079386547207832,2023-10-21T15:58:33.054883Z,1697903913054
-3.5401451587677,-0.12065653502941132,0.04323415085673332,2023-10-21T15:58:33.067218Z,1697903913067
-3.563425064086914,-0.2163037806749344,0.025541406124830246,2023-10-21T15:58:33.075133Z,1697903913075
-3.5513195991516113,-0.31208404898643494,0.00784866139292717,2023-10-21T15:58:33.086138Z,1697903913086
-3.5111451148986816,-0.40427255630493164,-0.009977111592888832,2023-10-21T15:58:33.095359Z,1697903913095
