GYR_X,GYR_Y,GYR_Z,DATE,UNIX_TIMESTAMP
-0.004389929119497538,0.0018623941577970982,-5.321126081980765E-4,2023-10-21T15:56:19.508588Z,1697903779508
0.0022614786867052317,-0.0013302814913913608,-0.004922041669487953,2023-10-21T15:56:19.518150Z,1697903779518
0.0035917600616812706,0.0011972533538937569,-1.3302815204951912E-4,2023-10-21T15:56:19.528871Z,1697903779528
0.004922041669487953,-0.0047890134155750275,-0.0023945067077875137,2023-10-21T15:56:19.538249Z,1697903779538
0.0035917600616812706,-0.0013302814913913608,-0.003325703786686063,2023-10-21T15:56:19.549117Z,1697903779549
-0.003325703786686063,-0.003325703786686063,-0.0035917600616812706,2023-10-21T15:56:19.559245Z,1697903779559
-0.0022614786867052317,0.0019954221788793802,-6.651407456956804E-4,2023-10-21T15:56:19.569372Z,1697903779569
-0.0018623941577970982,-0.0027935912366956472,0.0029266192577779293,2023-10-21T15:56:19.578925Z,1697903779578
-0.0047890134155750275,0.0031926757656037807,-0.0017293660202994943,2023-10-21T15:56:19.589620Z,1697903779589
0.0023945067077875137,0.0047890134155750275,0.003059647511690855,2023-10-21T15:56:19.599154Z,1697903779599
0.0,0.0019954221788793802,0.0037247883155941963,2023-10-21T15:56:19.610020Z,1697903779609
-0.0029266192577779293,0.0011972533538937569,0.004389929119497538,2023-10-21T15:56:19.619431Z,1697903779619
-0.003325703786686063,-0.0015963378828018904,0.0017293660202994943,2023-10-21T15:56:19.630231Z,1697903779630
0.004123872611671686,-9.311970788985491E-4,-9.311970788985491E-4,2023-10-21T15:56:19.639534Z,1697903779639
-0.001064225216396153,-0.004123872611671686,0.0019954221788793802,2023-10-21T15:56:19.650466Z,1697903779650
0.0031926757656037807,-0.0035917600616812706,0.0015963378828018904,2023-10-21T15:56:19.660086Z,1697903779660
-0.0015963378828018904,-5.321126081980765E-4,-6.651407456956804E-4,2023-10-21T15:56:19.670814Z,1697903779670
0.0047890134155750275,0.004256900865584612,0.003059647511690855,2023-10-21T15:56:19.680285Z,1697903779680
0.003059647511690855,-0.0013302814913913608,0.0031926757656037807,2023-10-21T15:56:19.693961Z,1697903779693
-5.321126081980765E-4,0.0037247883155941963,-0.0027935912366956472,2023-10-21T15:56:19.700643Z,1697903779700
0.0014633096288889647,0.0029266192577779293,-0.0037247883155941963,2023-10-21T15:56:19.711331Z,1697903779711
-0.004389929119497538,1.3302815204951912E-4,-0.0018623941577970982,2023-10-21T15:56:19.720791Z,1697903779720
1.3302815204951912E-4,0.004389929119497538,-5.321126081980765E-4,2023-10-21T15:56:19.731991Z,1697903779731
0.0039908443577587605,-0.0014633096288889647,-0.004522957373410463,2023-10-21T15:56:19.743541Z,1697903779743
-0.0023945067077875137,0.004256900865584612,-0.0015963378828018904,2023-10-21T15:56:19.752053Z,1697903779751
0.0034587320405989885,-0.0017293660202994943,-1.3302815204951912E-4,2023-10-21T15:56:19.761380Z,1697903779761
-0.0035917600616812706,-6.651407456956804E-4,5.321126081980765E-4,2023-10-21T15:56:19.772286Z,1697903779772
5.321126081980765E-4,-0.0029266192577779293,0.0018623941577970982,2023-10-21T15:56:19.781735Z,1697903779781
0.002128450432792306,-6.651407456956804E-4,0.003325703786686063,2023-10-21T15:56:19.793888Z,1697903779793
-0.004256900865584612,-0.0014633096288889647,-0.004522957373410463,2023-10-21T15:56:19.801909Z,1697903779801
-3.990844707004726E-4,-0.0015963378828018904,-0.0,2023-10-21T15:56:19.812966Z,1697903779812
-7.981689414009452E-4,0.0027935912366956472,-6.651407456956804E-4,2023-10-21T15:56:19.822124Z,1697903779822
-0.0039908443577587605,0.0,-0.0039908443577587605,2023-10-21T15:56:19.833197Z,1697903779833
-0.0014633096288889647,0.0027935912366956472,0.0039908443577587605,2023-10-21T15:56:19.843420Z,1697903779843
-0.0038578163366764784,0.19621652364730835,-0.019555138424038887,2023-10-21T15:56:19.853206Z,1697903779853
-0.01223859004676342,0.22574877738952637,-0.022215701639652252,2023-10-21T15:56:19.862789Z,1697903779862
-0.01915605366230011,0.2536846995353699,-0.025541406124830246,2023-10-21T15:56:19.877159Z,1697903779877
-0.023945067077875137,0.27856093645095825,-0.030064363032579422,2023-10-21T15:56:19.882946Z,1697903779882
-0.02633957378566265,0.29931333661079407,-0.03711485490202904,2023-10-21T15:56:19.894093Z,1697903779894
-0.026605630293488503,0.31647396087646484,-0.046958938241004944,2023-10-21T15:56:19.903094Z,1697903779903
-0.024876264855265617,0.3299098312854767,-0.061059921979904175,2023-10-21T15:56:19.914213Z,1697903779914
-0.02168358862400055,0.33948785066604614,-0.08101414144039154,2023-10-21T15:56:19.926962Z,1697903779926
-0.018091829493641853,0.34547412395477295,-0.10788583010435104,2023-10-21T15:56:19.934343Z,1697903779934
-0.015032181516289711,0.3491989076137543,-0.14034469425678253,2023-10-21T15:56:19.943817Z,1697903779943
-0.012903730385005474,0.35212552547454834,-0.17719349265098572,2023-10-21T15:56:19.954549Z,1697903779954
-0.011573448777198792,0.35438698530197144,-0.21829919517040253,2023-10-21T15:56:19.964026Z,1697903779963
-0.011573448777198792,0.3550521433353424,-0.2639278471469879,2023-10-21T15:56:19.977424Z,1697903779977
-0.013701899908483028,0.35305672883987427,-0.31301525235176086,2023-10-21T15:56:19.984219Z,1697903779984
-0.018756968900561333,0.3473365008831024,-0.36183658242225647,2023-10-21T15:56:19.995241Z,1697903779995
-0.02700471505522728,0.33722636103630066,-0.40480467677116394,2023-10-21T15:56:20.004375Z,1697903780004
-0.03817908093333244,0.32126298546791077,-0.43606626987457275,2023-10-21T15:56:20.015545Z,1697903780015
-0.05201400816440582,0.29625368118286133,-0.45189663767814636,2023-10-21T15:56:20.026961Z,1697903780026
-0.06824344396591187,0.25647827982902527,-0.4526948034763336,2023-10-21T15:56:20.035660Z,1697903780035
-0.0862022414803505,0.1959504634141922,-0.4433828294277191,2023-10-21T15:56:20.044995Z,1697903780044
-0.10442709922790527,0.11200970411300659,-0.4308781921863556,2023-10-21T15:56:20.055822Z,1697903780055
-0.11972533911466599,0.006651407573372126,-0.4252910017967224,2023-10-21T15:56:20.065274Z,1697903780065
-0.12823913991451263,-0.11533540487289429,-0.44098833203315735,2023-10-21T15:56:20.077368Z,1697903780077
-0.12637674808502197,-0.2491617351770401,-0.4940665662288666,2023-10-21T15:56:20.085466Z,1697903780085
-0.11134456098079681,-0.3956257104873657,-0.5974294543266296,2023-10-21T15:56:20.097158Z,1697903780097
-0.0818123146891594,-0.5701586604118347,-0.7573292851448059,2023-10-21T15:56:20.105679Z,1697903780105
-0.03777999430894852,-0.7984349727630615,-0.9700412750244141,2023-10-21T15:56:20.116842Z,1697903780116
0.020619364455342293,-1.1021382808685303,-1.2174736261367798,2023-10-21T15:56:20.126553Z,1697903780126
0.09338576346635818,-1.487786889076233,-1.4692959785461426,2023-10-21T15:56:20.136845Z,1697903780136
0.1810513138771057,-1.9475321769714355,-1.6848015785217285,2023-10-21T15:56:20.146370Z,1697903780146
0.28507933020591736,-2.4662089347839355,-1.8206232786178589,2023-10-21T15:56:20.160222Z,1697903780160
0.4034743905067444,-3.013486623764038,-1.8440362215042114,2023-10-21T15:56:20.166660Z,1697903780166
0.5285208225250244,-3.5463974475860596,-1.745462417602539,2023-10-21T15:56:20.177559Z,1697903780177
0.6471819877624512,-4.019578456878662,-1.5447229146957397,2023-10-21T15:56:20.186828Z,1697903780186
0.7476181983947754,-4.402300834655762,-1.2769372463226318,2023-10-21T15:56:20.197894Z,1697903780197
0.8214488625526428,-4.68445348739624,-0.9796193242073059,2023-10-21T15:56:20.209881Z,1697903780209
0.8660132884979248,-4.869495391845703,-0.680971086025238,2023-10-21T15:56:20.217932Z,1697903780217
0.8841050863265991,-4.971528053283691,-0.3952266275882721,2023-10-21T15:56:20.227396Z,1697903780227
0.8817105889320374,-5.011170387268066,-0.12850520014762878,2023-10-21T15:56:20.238120Z,1697903780238
0.8650820851325989,-5.010904312133789,0.11826203018426895,2023-10-21T15:56:20.247741Z,1697903780247
0.8416691422462463,-4.986959457397461,0.348666787147522,2023-10-21T15:56:20.260263Z,1697903780260
0.818655252456665,-4.946651935577393,0.5685623288154602,2023-10-21T15:56:20.267933Z,1697903780267
0.800031304359436,-4.89237642288208,0.7824715971946716,2023-10-21T15:56:20.278885Z,1697903780278
0.7853981852531433,-4.8253302574157715,0.989197313785553,2023-10-21T15:56:20.288054Z,1697903780288
0.7726275324821472,-4.744449138641357,1.1826202869415283,2023-10-21T15:56:20.299227Z,1697903780299
0.7590586543083191,-4.647338390350342,1.3547587394714355,2023-10-21T15:56:20.309746Z,1697903780309
0.7417649626731873,-4.5337324142456055,1.4989612102508545,2023-10-21T15:56:20.319301Z,1697903780319
0.719549298286438,-4.404561996459961,1.6125673055648804,2023-10-21T15:56:20.328699Z,1697903780328
0.6925445795059204,-4.260093688964844,1.6965080499649048,2023-10-21T15:56:20.343078Z,1697903780343
0.6635444164276123,-4.099395751953125,1.7546412944793701,2023-10-21T15:56:20.348987Z,1697903780348
0.6358745694160461,-3.922335147857666,1.7925543785095215,2023-10-21T15:56:20.360092Z,1697903780360
0.6108652949333191,-3.7287790775299072,1.815967321395874,2023-10-21T15:56:20.369194Z,1697903780369
0.5882505178451538,-3.5183286666870117,1.8286049365997314,2023-10-21T15:56:20.380372Z,1697903780380
0.5666999220848083,-3.292313814163208,1.8325958251953125,2023-10-21T15:56:20.389313Z,1697903780389
0.5466126799583435,-3.053528308868408,1.8279398679733276,2023-10-21T15:56:20.400591Z,1697903780400
0.5293189883232117,-2.8071601390838623,1.8137058019638062,2023-10-21T15:56:20.409726Z,1697903780409
0.5156171321868896,-2.558131456375122,1.7871001958847046,2023-10-21T15:56:20.420593Z,1697903780420
0.50324547290802,-2.3128273487091064,1.7447972297668457,2023-10-21T15:56:20.430050Z,1697903780430
0.4862178862094879,-2.0796291828155518,1.6829391717910767,2023-10-21T15:56:20.443265Z,1697903780443
0.45588746666908264,-1.8670501708984375,1.5995304584503174,2023-10-21T15:56:20.450334Z,1697903780450
0.4068000912666321,-1.6804115772247314,1.4964337348937988,2023-10-21T15:56:20.461308Z,1697903780461
0.3408181369304657,-1.5190484523773193,1.379235863685608,2023-10-21T15:56:20.470475Z,1697903780470
0.2651250958442688,-1.378836750984192,1.2563178539276123,2023-10-21T15:56:20.481620Z,1697903780481
0.18623940646648407,-1.2548545598983765,1.1347301006317139,2023-10-21T15:56:20.492922Z,1697903780492
0.10642252117395401,-1.1444412469863892,1.0196608304977417,2023-10-21T15:56:20.501595Z,1697903780501
0.02633957378566265,-1.0446701049804688,0.9140364527702332,2023-10-21T15:56:20.511065Z,1697903780511
-0.05108281224966049,-0.952348530292511,0.8202515840530396,2023-10-21T15:56:20.521867Z,1697903780521
-0.12265195697546005,-0.8654811382293701,0.7395035028457642,2023-10-21T15:56:20.531368Z,1697903780531
-0.1887669414281845,-0.784600019454956,0.671393096446991,2023-10-21T15:56:20.543305Z,1697903780543
-0.25222137570381165,-0.7115675806999207,0.6140579581260681,2023-10-21T15:56:20.551621Z,1697903780551
-0.3128822147846222,-0.6467828750610352,0.5652366280555725,2023-10-21T15:56:20.562695Z,1697903780562
-0.3671576976776123,-0.589181661605835,0.5239979028701782,2023-10-21T15:56:20.571784Z,1697903780571
-0.4131854474544525,-0.5383649468421936,0.4900757074356079,2023-10-21T15:56:20.582930Z,1697903780582
-0.45415809750556946,-0.4963280260562897,0.46360310912132263,2023-10-21T15:56:20.592935Z,1697903780592
-0.4932684004306793,-0.4648003578186035,0.44311678409576416,2023-10-21T15:56:20.602953Z,1697903780602
-0.529984176158905,-0.4439149498939514,0.4270203709602356,2023-10-21T15:56:20.612464Z,1697903780612
-0.5629751682281494,-0.4331396520137787,0.4137175381183624,2023-10-21T15:56:20.626831Z,1697903780626
-0.5918422341346741,-0.43167635798454285,0.40267622470855713,2023-10-21T15:56:20.632640Z,1697903780632
-0.6167185306549072,-0.4389928877353668,0.3933642506599426,2023-10-21T15:56:20.643656Z,1697903780643
-0.6380029916763306,-0.4545572102069855,0.3843183219432831,2023-10-21T15:56:20.652871Z,1697903780652
-0.6587554216384888,-0.47876831889152527,0.37407517433166504,2023-10-21T15:56:20.664018Z,1697903780663
-0.6848289370536804,-0.5129565596580505,0.3611714243888855,2023-10-21T15:56:20.676177Z,1697903780676
-0.7215446829795837,-0.5584521889686584,0.3441438376903534,2023-10-21T15:56:20.684046Z,1697903780684
-0.773691713809967,-0.6164524555206299,0.3215290307998657,2023-10-21T15:56:20.693451Z,1697903780693
-0.8457930088043213,-0.6873564720153809,0.29252889752388,2023-10-21T15:56:20.704242Z,1697903780704
-0.9381145238876343,-0.7702329754829407,0.2574094831943512,2023-10-21T15:56:20.713745Z,1697903780713
-1.046798586845398,-0.8617563843727112,0.2163037806749344,2023-10-21T15:56:20.726563Z,1697903780726
-1.1661248207092285,-0.9583348035812378,0.16881272196769714,2023-10-21T15:56:20.733937Z,1697903780733
-1.2921024560928345,-1.0562435388565063,0.11546843498945236,2023-10-21T15:56:20.745203Z,1697903780745
-1.419277310371399,-1.1516246795654297,0.058266330510377884,2023-10-21T15:56:20.754260Z,1697903780754
-1.538603663444519,-1.2390241622924805,-3.990844707004726E-4,2023-10-21T15:56:20.765486Z,1697903780765
-1.6417003870010376,-1.3135199546813965,-0.05813330411911011,2023-10-21T15:56:20.776592Z,1697903780776
-1.7263063192367554,-1.3731166124343872,-0.11347301304340363,2023-10-21T15:56:20.785461Z,1697903780785
-1.7940176725387573,-1.4175479412078857,-0.16375765204429626,2023-10-21T15:56:20.794822Z,1697903780794
-1.8461647033691406,-1.4468141794204712,-0.20672574639320374,2023-10-21T15:56:20.805588Z,1697903780805
-1.8819493055343628,-1.4607821702957153,-0.24011582136154175,2023-10-21T15:56:20.815078Z,1697903780815
-1.9012383222579956,-1.4602500200271606,-0.26326271891593933,2023-10-21T15:56:20.826688Z,1697903780826
-1.904697060585022,-1.4469472169876099,-0.2776297628879547,2023-10-21T15:56:20.835335Z,1697903780835
-1.8939218521118164,-1.423667311668396,-0.28507933020591736,2023-10-21T15:56:20.846286Z,1697903780846
-1.8715730905532837,-1.3933368921279907,-0.2876068651676178,2023-10-21T15:56:20.855427Z,1697903780855
-1.8415087461471558,-1.3588825464248657,-0.2848132848739624,2023-10-21T15:56:20.866580Z,1697903780866
-1.8082516193389893,-1.3220337629318237,-0.27643251419067383,2023-10-21T15:56:20.876093Z,1697903780876
-1.7757928371429443,-1.2826573848724365,-0.2624645531177521,2023-10-21T15:56:20.886603Z,1697903780886
-1.746925711631775,-1.2404875755310059,-0.24410666525363922,2023-10-21T15:56:20.896121Z,1697903780896
-1.7216503620147705,-1.1957900524139404,-0.22308820486068726,2023-10-21T15:56:20.909983Z,1697903780909
-1.6990355253219604,-1.1496292352676392,-0.20073948800563812,2023-10-21T15:56:20.916326Z,1697903780916
-1.676952838897705,-1.102803349494934,-0.17772561311721802,2023-10-21T15:56:20.927262Z,1697903780927
-1.6550031900405884,-1.0554453134536743,-0.15378054976463318,2023-10-21T15:56:20.936561Z,1697903780936
-1.6330535411834717,-1.008353352546692,-0.12797307968139648,2023-10-21T15:56:20.947672Z,1697903780947
-1.6093746423721313,-0.9612614512443542,-0.09883991628885269,2023-10-21T15:56:20.959444Z,1697903780959
-1.5799753665924072,-0.9121740460395813,-0.06544984877109528,2023-10-21T15:56:20.967705Z,1697903780967
-1.5403329133987427,-0.8577654957771301,-0.0260735172778368,2023-10-21T15:56:20.977195Z,1697903780977
-1.4888510704040527,-0.7955083250999451,0.01982119493186474,2023-10-21T15:56:20.987951Z,1697903780987
-1.4277911186218262,-0.7258015871047974,0.07063794881105423,2023-10-21T15:56:20.997464Z,1697903780997
-1.3612771034240723,-0.6515718698501587,0.12211984395980835,2023-10-21T15:56:21.009585Z,1697903781009
-1.2954281568527222,-0.5772091746330261,0.16974392533302307,2023-10-21T15:56:21.017655Z,1697903781017
-1.237826943397522,-0.5069702863693237,0.20978540182113647,2023-10-21T15:56:21.028711Z,1697903781028
-1.1943267583847046,-0.44324979186058044,0.24011582136154175,2023-10-21T15:56:21.037875Z,1697903781037
-1.1675881147384644,-0.38777706027030945,0.2590058147907257,2023-10-21T15:56:21.049031Z,1697903781049
-1.155083417892456,-0.340685099363327,0.2667214572429657,2023-10-21T15:56:21.059426Z,1697903781059
-1.1513586044311523,-0.3009096682071686,0.2651250958442688,2023-10-21T15:56:21.068954Z,1697903781068
-1.1505604982376099,-0.26632237434387207,0.2572764456272125,2023-10-21T15:56:21.078621Z,1697903781078
-1.148698091506958,-0.23452863097190857,0.24596905708312988,2023-10-21T15:56:21.092855Z,1697903781092
-1.1435099840164185,-0.2036661058664322,0.2343956083059311,2023-10-21T15:56:21.098763Z,1697903781098
-1.1339319944381714,-0.17253752052783966,0.22534969449043274,2023-10-21T15:56:21.109700Z,1697903781109
-1.119032859802246,-0.14061075448989868,0.22042764723300934,2023-10-21T15:56:21.118933Z,1697903781118
-1.0985465049743652,-0.10788583010435104,0.2194964438676834,2023-10-21T15:56:21.130053Z,1697903781130
-1.0730050802230835,-0.07649118453264236,0.2200285643339157,2023-10-21T15:56:21.142415Z,1697903781142
-1.0430737733840942,-0.0482892207801342,0.21962948143482208,2023-10-21T15:56:21.150070Z,1697903781150
-1.007688283920288,-0.024610208347439766,0.2151065170764923,2023-10-21T15:56:21.159498Z,1697903781159
-0.9651192426681519,-0.00572021072730422,0.20446427166461945,2023-10-21T15:56:21.170274Z,1697903781170
-0.9162979125976562,0.006917464081197977,0.18717060983181,2023-10-21T15:56:21.179879Z,1697903781179
-0.8657472133636475,0.011972533538937569,0.1641567349433899,2023-10-21T15:56:21.193046Z,1697903781193
-0.8166598081588745,0.00971105508506298,0.13795019686222076,2023-10-21T15:56:21.200058Z,1697903781200
-0.7670403122901917,0.0039908443577587605,0.11107850819826126,2023-10-21T15:56:21.210990Z,1697903781210
-0.7111685276031494,0.0,0.08580315858125687,2023-10-21T15:56:21.220228Z,1697903781220
-0.6310855746269226,-7.981689414009452E-4,0.06850949674844742,2023-10-21T15:56:21.231312Z,1697903781231
-0.5388970375061035,-6.651407456956804E-4,0.058532387018203735,2023-10-21T15:56:21.242433Z,1697903781242
-0.46014437079429626,-5.321126081980765E-4,0.050018586218357086,2023-10-21T15:56:21.251431Z,1697903781251
-0.39935052394866943,0.022348729893565178,0.03711485490202904,2023-10-21T15:56:21.260831Z,1697903781260
-0.32751530408859253,0.052546121180057526,0.028468023985624313,2023-10-21T15:56:21.271559Z,1697903781271
-0.23346440494060516,0.06784436106681824,0.028734080493450165,2023-10-21T15:56:21.281111Z,1697903781281
-0.14313828945159912,0.08314259350299835,0.028201967477798462,2023-10-21T15:56:21.292913Z,1697903781292
-0.06372048705816269,0.095514215528965,0.025541406124830246,2023-10-21T15:56:21.301394Z,1697903781301
-0.0022614786867052317,0.10203259438276291,0.01982119493186474,2023-10-21T15:56:21.312413Z,1697903781312
0.02168358862400055,0.0960463285446167,0.015032181516289711,2023-10-21T15:56:21.321490Z,1697903781321
0.041903868317604065,0.08939491957426071,0.002128450432792306,2023-10-21T15:56:21.332703Z,1697903781332
0.05906450003385544,0.08367470651865005,-0.008779858238995075,2023-10-21T15:56:21.342539Z,1697903781342
0.05055069923400879,0.07156914472579956,-0.007582604885101318,2023-10-21T15:56:21.352688Z,1697903781352
0.03791302442550659,0.051348865032196045,-0.029266193509101868,2023-10-21T15:56:21.362167Z,1697903781362
0.027137743309140205,0.03418823331594467,-0.047890134155750275,2023-10-21T15:56:21.376170Z,1697903781376
0.023146897554397583,0.029133165255188942,-0.04083964228630066,2023-10-21T15:56:21.382438Z,1697903781382
0.04522957280278206,0.01849091239273548,-0.033789150416851044,2023-10-21T15:56:21.393393Z,1697903781393
0.09285365045070648,0.012903730385005474,-0.019023025408387184,2023-10-21T15:56:21.402598Z,1697903781402
0.148193359375,0.019688166677951813,0.0047890134155750275,2023-10-21T15:56:21.413716Z,1697903781413
0.2179001122713089,0.02633957378566265,0.030330419540405273,2023-10-21T15:56:21.425670Z,1697903781425
0.2978500425815582,0.02860105223953724,0.053876399993896484,2023-10-21T15:56:21.433789Z,1697903781433
0.38338714838027954,0.024344151839613914,0.07263337075710297,2023-10-21T15:56:21.443172Z,1697903781443
0.4707866311073303,0.013302815146744251,0.08487196266651154,2023-10-21T15:56:21.453932Z,1697903781453
0.5564567446708679,-0.0027935912366956472,0.09125731140375137,2023-10-21T15:56:21.463463Z,1697903781463
0.634145200252533,-0.022747814655303955,0.09471604228019714,2023-10-21T15:56:21.476074Z,1697903781476
0.69773268699646,-0.04456442967057228,0.09804175049066544,2023-10-21T15:56:21.483685Z,1697903781483
0.745090663433075,-0.0653168261051178,0.10322984308004379,2023-10-21T15:56:21.494628Z,1697903781494
0.7779486179351807,-0.08221139758825302,0.11028033494949341,2023-10-21T15:56:21.503961Z,1697903781503
0.796439528465271,-0.09471604228019714,0.11932624876499176,2023-10-21T15:56:21.515015Z,1697903781514
0.7983019351959229,-0.10336287319660187,0.1311657577753067,2023-10-21T15:56:21.525733Z,1697903781525
0.7834028005599976,-0.10735371708869934,0.1465970277786255,2023-10-21T15:56:21.535162Z,1697903781535
0.7555999159812927,-0.10495921224355698,0.1652209609746933,2023-10-21T15:56:21.544505Z,1697903781544
0.7215446829795837,-0.09405090659856796,0.18570730090141296,2023-10-21T15:56:21.559073Z,1697903781559
0.6901500821113586,-0.07369759678840637,0.20645968616008759,2023-10-21T15:56:21.564820Z,1697903781564
0.6697967648506165,-0.04562865570187569,0.22614786028862,2023-10-21T15:56:21.575975Z,1697903781575
0.6654068231582642,-0.015431265346705914,0.24277637898921967,2023-10-21T15:56:21.585033Z,1697903781584
0.6779114603996277,0.009045914746820927,0.2523544132709503,2023-10-21T15:56:21.596058Z,1697903781596
0.7042510509490967,0.019688166677951813,0.2508910894393921,2023-10-21T15:56:21.605284Z,1697903781605
0.7397695779800415,0.010775280185043812,0.23532679677009583,2023-10-21T15:56:21.616357Z,1697903781616
0.7786137461662292,-0.01915605366230011,0.20446427166461945,2023-10-21T15:56:21.625558Z,1697903781625
0.8133341073989868,-0.06850949674844742,0.1585695594549179,2023-10-21T15:56:21.636363Z,1697903781636
0.8364810347557068,-0.1322299838066101,0.10070230811834335,2023-10-21T15:56:21.645883Z,1697903781645
0.8419351577758789,-0.20379912853240967,0.036582741886377335,2023-10-21T15:56:21.659379Z,1697903781659
0.826370894908905,-0.2766985595226288,-0.02793591283261776,2023-10-21T15:56:21.666097Z,1697903781666
0.7903202772140503,-0.3457401692867279,-0.08846372365951538,2023-10-21T15:56:21.677017Z,1697903781676
0.7364438772201538,-0.4087955057621002,-0.14340434968471527,2023-10-21T15:56:21.686295Z,1697903781686
0.6674022674560547,-0.46626368165016174,-0.19249173998832703,2023-10-21T15:56:21.697345Z,1697903781697
0.5825302600860596,-0.5201400518417358,-0.2359919399023056,2023-10-21T15:56:21.708997Z,1697903781708
0.48156189918518066,-0.5710898637771606,-0.2735058665275574,2023-10-21T15:56:21.717436Z,1697903781717
0.3688870668411255,-0.615521252155304,-0.3035702407360077,2023-10-21T15:56:21.726886Z,1697903781726
0.2530195415019989,-0.6475810408592224,-0.3243226408958435,2023-10-21T15:56:21.737664Z,1697903781737
0.14300526678562164,-0.6616820096969604,-0.33177220821380615,2023-10-21T15:56:21.747216Z,1697903781747
0.04522957280278206,-0.6544985175132751,-0.3216620683670044,2023-10-21T15:56:21.759460Z,1697903781759
-0.03418823331594467,-0.6248332262039185,-0.29173073172569275,2023-10-21T15:56:21.767375Z,1697903781767
-0.08859674632549286,-0.5734843611717224,-0.24330848455429077,2023-10-21T15:56:21.778427Z,1697903781778
-0.11506935209035873,-0.5057730078697205,-0.1805192083120346,2023-10-21T15:56:21.787555Z,1697903781787
-0.11453723907470703,-0.429813951253891,-0.10934913903474808,2023-10-21T15:56:21.798678Z,1697903781798
-0.09258759021759033,-0.35372185707092285,-0.035651545971632004,2023-10-21T15:56:21.808842Z,1697903781808
-0.058266330510377884,-0.2844142019748688,0.035917602479457855,2023-10-21T15:56:21.818801Z,1697903781818
-0.020220279693603516,-0.2249506115913391,0.10336287319660187,2023-10-21T15:56:21.828285Z,1697903781828
0.017692744731903076,-0.1745329350233078,0.1657530814409256,2023-10-21T15:56:21.838986Z,1697903781838
0.05733513459563255,-0.1311657577753067,0.22242307662963867,2023-10-21T15:56:21.848536Z,1697903781848
0.1009683683514595,-0.09351879358291626,0.2732398211956024,2023-10-21T15:56:21.859444Z,1697903781859
0.1497897058725357,-0.06225717440247536,0.31740516424179077,2023-10-21T15:56:21.868698Z,1697903781868
0.2024688422679901,-0.038445137441158295,0.35372185707092285,2023-10-21T15:56:21.879828Z,1697903781879
0.25488194823265076,-0.02381203882396221,0.3804605007171631,2023-10-21T15:56:21.892254Z,1697903781892
0.30104270577430725,-0.02008725143969059,0.39602482318878174,2023-10-21T15:56:21.899919Z,1697903781899
0.3341667056083679,-0.029000137001276016,0.3994835317134857,2023-10-21T15:56:21.909240Z,1697903781909
0.3502631187438965,-0.050683725625276566,0.39096975326538086,2023-10-21T15:56:21.920020Z,1697903781920
0.3506622016429901,-0.08327562361955643,0.3722127676010132,2023-10-21T15:56:21.929570Z,1697903781929
0.34268051385879517,-0.12398223578929901,0.3446759283542633,2023-10-21T15:56:21.942697Z,1697903781942
0.3341667056083679,-0.17094117403030396,0.3099555969238281,2023-10-21T15:56:21.949764Z,1697903781949
0.32844650745391846,-0.22468455135822296,0.2700471580028534,2023-10-21T15:56:21.960747Z,1697903781960
0.3264510929584503,-0.28614354133605957,0.22694602608680725,2023-10-21T15:56:21.970009Z,1697903781969
0.32951071858406067,-0.3546530604362488,0.1822485625743866,2023-10-21T15:56:21.981036Z,1697903781981
0.33789151906967163,-0.42608916759490967,0.13874836266040802,2023-10-21T15:56:21.992089Z,1697903781992
0.3485337495803833,-0.49419957399368286,0.10030322521924973,2023-10-21T15:56:22.001166Z,1697903782001
0.35824480652809143,-0.5512686371803284,0.07183520495891571,2023-10-21T15:56:22.010610Z,1697903782010
0.3667586147785187,-0.5903789401054382,0.05733513459563255,2023-10-21T15:56:22.021429Z,1697903782021
0.37460726499557495,-0.6060762405395508,0.059197526425123215,2023-10-21T15:56:22.030908Z,1697903782030
0.38112565875053406,-0.596365213394165,0.07808752357959747,2023-10-21T15:56:22.042589Z,1697903782042
0.3847174048423767,-0.5633742213249207,0.11054639518260956,2023-10-21T15:56:22.051132Z,1697903782051
0.3836531937122345,-0.5125574469566345,0.15178512036800385,2023-10-21T15:56:22.062076Z,1697903782062
0.37686875462532043,-0.4501672685146332,0.1970146894454956,2023-10-21T15:56:22.071295Z,1697903782071
0.36356595158576965,-0.38125869631767273,0.2437075674533844,2023-10-21T15:56:22.082417Z,1697903782082
0.34440988302230835,-0.3102216422557831,0.2909325659275055,2023-10-21T15:56:22.092621Z,1697903782092
0.32299235463142395,-0.24051490426063538,0.337492436170578,2023-10-21T15:56:22.102448Z,1697903782102
0.3047674894332886,-0.17306962609291077,0.3824559450149536,2023-10-21T15:56:22.111961Z,1697903782111
0.29292798042297363,-0.10828491300344467,0.4247588813304901,2023-10-21T15:56:22.126055Z,1697903782126
0.2864096164703369,-0.048156190663576126,0.4637361466884613,2023-10-21T15:56:22.132219Z,1697903782132
0.2828178405761719,0.0039908443577587605,0.49858951568603516,2023-10-21T15:56:22.143319Z,1697903782143
0.2798912227153778,0.04562865570187569,0.5277226567268372,2023-10-21T15:56:22.152402Z,1697903782152
0.2770976424217224,0.0751609057188034,0.5499383807182312,2023-10-21T15:56:22.163433Z,1697903782163
0.2740379869937897,0.09205548465251923,0.5641723871231079,2023-10-21T15:56:22.175770Z,1697903782175
0.27204257249832153,0.09617935121059418,0.5694935321807861,2023-10-21T15:56:22.183555Z,1697903782183
0.27297377586364746,0.08926188945770264,0.5660347938537598,2023-10-21T15:56:22.192958Z,1697903782192
0.27696460485458374,0.0740966796875,0.555525541305542,2023-10-21T15:56:22.203809Z,1697903782203
0.28175362944602966,0.05400943011045456,0.540493369102478,2023-10-21T15:56:22.213171Z,1697903782213
0.28507933020591736,0.032458867877721786,0.523199737071991,2023-10-21T15:56:22.224223Z,1697903782224
0.28507933020591736,0.012637674808502197,0.5053739547729492,2023-10-21T15:56:22.233477Z,1697903782233
0.2793591320514679,-0.0023945067077875137,0.4894105792045593,2023-10-21T15:56:22.244259Z,1697903782244
0.2671205401420593,-0.010376195423305035,0.47717198729515076,2023-10-21T15:56:22.253558Z,1697903782253
0.2491617351770401,-0.010376195423305035,0.4687912166118622,2023-10-21T15:56:22.264497Z,1697903782264
0.22734510898590088,-0.0026605629827827215,0.4637361466884613,2023-10-21T15:56:22.274035Z,1697903782273
0.20127159357070923,0.011706477031111717,0.4616076946258545,2023-10-21T15:56:22.286225Z,1697903782286
0.17054209113121033,0.032192811369895935,0.4622728228569031,2023-10-21T15:56:22.294256Z,1697903782294
0.13635385036468506,0.05866541340947151,0.46506643295288086,2023-10-21T15:56:22.309368Z,1697903782309
0.1015004813671112,0.09099125862121582,0.46892422437667847,2023-10-21T15:56:22.314612Z,1697903782314
0.06624802201986313,0.1289042830467224,0.47344720363616943,2023-10-21T15:56:22.326180Z,1697903782326
0.02886710874736309,0.17027603089809418,0.47996556758880615,2023-10-21T15:56:22.334812Z,1697903782334
-0.010243168100714684,0.2129780650138855,0.48821333050727844,2023-10-21T15:56:22.346002Z,1697903782345
-0.0477571077644825,0.25395074486732483,0.4967271089553833,2023-10-21T15:56:22.359102Z,1697903782359
-0.08048202842473984,0.2909325659275055,0.5024473071098328,2023-10-21T15:56:22.365958Z,1697903782365
-0.10895005613565445,0.32086390256881714,0.50324547290802,2023-10-21T15:56:22.375565Z,1697903782375
-0.1350235790014267,0.3414832651615143,0.4977913498878479,2023-10-21T15:56:22.386225Z,1697903782386
-0.16043195128440857,0.3513273596763611,0.4858188033103943,2023-10-21T15:56:22.395668Z,1697903782395
-0.18637244403362274,0.34986403584480286,0.4677269756793976,2023-10-21T15:56:22.409086Z,1697903782409
-0.21257898211479187,0.33775848150253296,0.44497916102409363,2023-10-21T15:56:22.415976Z,1697903782415
-0.23665708303451538,0.31647396087646484,0.4182405173778534,2023-10-21T15:56:22.426952Z,1697903782426
-0.2547489106655121,0.28867107629776,0.389107346534729,2023-10-21T15:56:22.436185Z,1697903782436
-0.26273059844970703,0.2568773627281189,0.35930904746055603,2023-10-21T15:56:22.447191Z,1697903782447
-0.25873976945877075,0.22322124242782593,0.33057495951652527,2023-10-21T15:56:22.458431Z,1697903782458
-0.23479469120502472,0.19116145372390747,0.2937261462211609,2023-10-21T15:56:22.467259Z,1697903782467
-0.20539546012878418,0.159101665019989,0.27190953493118286,2023-10-21T15:56:22.476695Z,1697903782476
-0.18025314807891846,0.1316978633403778,0.25328558683395386,2023-10-21T15:56:22.487561Z,1697903782487
-0.12664279341697693,0.10722068697214127,0.23692314326763153,2023-10-21T15:56:22.497009Z,1697903782496
-0.05773421749472618,0.08420681953430176,0.23359742760658264,2023-10-21T15:56:22.508869Z,1697903782508
0.0023945067077875137,0.06837646663188934,0.22082673013210297,2023-10-21T15:56:22.517230Z,1697903782517
0.06451865285634995,0.056004852056503296,0.20898722112178802,2023-10-21T15:56:22.528300Z,1697903782528
0.127840057015419,0.04602774232625961,0.19674864411354065,2023-10-21T15:56:22.537461Z,1697903782537
0.1892990618944168,0.03764696791768074,0.18331278860569,2023-10-21T15:56:22.548552Z,1697903782548
0.24410666525363922,0.030330419540405273,0.1690787822008133,2023-10-21T15:56:22.558389Z,1697903782558
0.2885380685329437,0.023945067077875137,0.15391357243061066,2023-10-21T15:56:22.568563Z,1697903782568
0.32192811369895935,0.018091829493641853,0.13688597083091736,2023-10-21T15:56:22.578015Z,1697903782577
0.3442768454551697,0.011839505285024643,0.11719780415296555,2023-10-21T15:56:22.591894Z,1697903782591
0.3561163544654846,0.005188097711652517,0.09471604228019714,2023-10-21T15:56:22.598304Z,1697903782598
0.3573136031627655,-0.0019954221788793802,0.07010583579540253,2023-10-21T15:56:22.609191Z,1697903782609
0.3480016589164734,-0.01050922367721796,0.04483048617839813,2023-10-21T15:56:22.618526Z,1697903782618
0.33004283905029297,-0.021550560370087624,0.01915605366230011,2023-10-21T15:56:22.629586Z,1697903782629
0.3056986927986145,-0.034720346331596375,-0.0070504918694496155,2023-10-21T15:56:22.641620Z,1697903782641
0.27084532380104065,-0.03857816383242607,-0.018623940646648407,2023-10-21T15:56:22.649690Z,1697903782649
0.23745524883270264,-0.050683725625276566,-0.041903868317604065,2023-10-21T15:56:22.659028Z,1697903782658
0.20898722112178802,-0.061059921979904175,-0.061725061386823654,2023-10-21T15:56:22.669914Z,1697903782669
0.17187237739562988,-0.06624802201986313,-0.07542695850133896,2023-10-21T15:56:22.679354Z,1697903782679
0.14021167159080505,-0.0707709789276123,-0.08713343739509583,2023-10-21T15:56:22.692019Z,1697903782691
0.09272062033414841,-0.059463582932949066,-0.08886280655860901,2023-10-21T15:56:22.699620Z,1697903782699
0.0521470345556736,-0.049752529710531235,-0.09032611548900604,2023-10-21T15:56:22.710623Z,1697903782710
-0.005055069923400879,-0.019688166677951813,-0.08327562361955643,2023-10-21T15:56:22.719872Z,1697903782719
-0.0911242812871933,0.024610208347439766,-0.07875266671180725,2023-10-21T15:56:22.730938Z,1697903782730
-0.16375765204429626,0.06119294837117195,-0.06930766999721527,2023-10-21T15:56:22.741590Z,1697903782741
-0.24729932844638824,0.09631238132715225,-0.059197526425123215,2023-10-21T15:56:22.750999Z,1697903782750
-0.3353639841079712,0.12411526590585709,-0.048821330070495605,2023-10-21T15:56:22.760376Z,1697903782760
-0.42023593187332153,0.1399456113576889,-0.04070661589503288,2023-10-21T15:56:22.771190Z,1697903782771
-0.49313536286354065,0.1416749805212021,-0.03764696791768074,2023-10-21T15:56:22.780693Z,1697903782780
-0.544617235660553,0.12970244884490967,-0.042169924825429916,2023-10-21T15:56:22.791848Z,1697903782791
-0.567764163017273,0.10602343827486038,-0.053876399993896484,2023-10-21T15:56:22.800911Z,1697903782800
-0.5616448521614075,0.0730324536561966,-0.06997280567884445,2023-10-21T15:56:22.811977Z,1697903782811
-0.5301172137260437,0.0345873199403286,-0.0872664675116539,2023-10-21T15:56:22.821019Z,1697903782820
-0.47730499505996704,-0.005188097711652517,-0.10322984308004379,2023-10-21T15:56:22.832245Z,1697903782832
-0.40706613659858704,-0.042835064232349396,-0.11706477403640747,2023-10-21T15:56:22.841439Z,1697903782841
-0.3231253921985626,-0.07582604885101318,-0.12810611724853516,2023-10-21T15:56:22.852293Z,1697903782852
-0.23186807334423065,-0.10283076018095016,-0.13595476746559143,2023-10-21T15:56:22.861714Z,1697903782861
-0.14234012365341187,-0.12371618300676346,-0.14034469425678253,2023-10-21T15:56:22.875299Z,1697903782875
-0.06185809150338173,-0.13874836266040802,-0.14114287495613098,2023-10-21T15:56:22.881981Z,1697903782881
0.006651407573372126,-0.14845941960811615,-0.13848230242729187,2023-10-21T15:56:22.893067Z,1697903782893
0.06239020451903343,-0.15404659509658813,-0.1332942098379135,2023-10-21T15:56:22.902180Z,1697903782902
0.10456012934446335,-0.15657413005828857,-0.1257116049528122,2023-10-21T15:56:22.913330Z,1697903782913
0.13356027007102966,-0.1575053334236145,-0.11626660823822021,2023-10-21T15:56:22.924747Z,1697903782924
0.1344914585351944,-0.14619794487953186,-0.10309682041406631,2023-10-21T15:56:22.933345Z,1697903782933
0.15111997723579407,-0.14726217091083527,-0.09311970323324203,2023-10-21T15:56:22.942768Z,1697903782942
0.1652209609746933,-0.14832639694213867,-0.08460590243339539,2023-10-21T15:56:22.953616Z,1697903782953
0.1799870878458023,-0.1460649073123932,-0.07196822762489319,2023-10-21T15:56:22.963053Z,1697903782963
0.2163037806749344,-0.15018878877162933,-0.05613787844777107,2023-10-21T15:56:22.974936Z,1697903782974
0.2377213090658188,-0.13622082769870758,-0.03299098089337349,2023-10-21T15:56:22.983278Z,1697903782983
0.26871687173843384,-0.11573449522256851,-0.004123872611671686,2023-10-21T15:56:22.994348Z,1697903782994
0.30809319019317627,-0.09019308537244797,0.029665278270840645,2023-10-21T15:56:23.003450Z,1697903783003
0.35106128454208374,-0.06159203499555588,0.06704618781805038,2023-10-21T15:56:23.014629Z,1697903783014
0.39043763279914856,-0.03259189799427986,0.10602343827486038,2023-10-21T15:56:23.024657Z,1697903783024
0.42023593187332153,-0.006917464081197977,0.14460159838199615,2023-10-21T15:56:23.034689Z,1697903783034
0.4351350963115692,0.012903730385005474,0.1810513138771057,2023-10-21T15:56:23.044178Z,1697903783044
0.4315433204174042,0.026738658547401428,0.2145744115114212,2023-10-21T15:56:23.058439Z,1697903783058
0.4094606637954712,0.03711485490202904,0.2447717934846878,2023-10-21T15:56:23.064381Z,1697903783064
0.36915311217308044,0.0482892207801342,0.27137744426727295,2023-10-21T15:56:23.075341Z,1697903783075
0.30968955159187317,0.06358745694160461,0.29492342472076416,2023-10-21T15:56:23.084649Z,1697903783084
0.2288084179162979,0.08473893254995346,0.3160748779773712,2023-10-21T15:56:23.095670Z,1697903783095
0.12584462761878967,0.1097482219338417,0.3341667056083679,2023-10-21T15:56:23.107868Z,1697903783107
0.005321125965565443,0.13515660166740417,0.348400741815567,2023-10-21T15:56:23.115796Z,1697903783115
-0.12092258781194687,0.15710625052452087,0.35757967829704285,2023-10-21T15:56:23.125090Z,1697903783125
-0.23745524883270264,0.17213842272758484,0.36183658242225647,2023-10-21T15:56:23.136060Z,1697903783136
-0.32964375615119934,0.17825771868228912,0.36143749952316284,2023-10-21T15:56:23.145441Z,1697903783145
-0.3879100978374481,0.1755971610546112,0.3573136031627655,2023-10-21T15:56:23.158199Z,1697903783158
-0.4087955057621002,0.16508793830871582,0.35039615631103516,2023-10-21T15:56:23.165674Z,1697903783165
-0.3956257104873657,0.148193359375,0.340685099363327,2023-10-21T15:56:23.176692Z,1697903783176
-0.35372185707092285,0.12823913991451263,0.3107537627220154,2023-10-21T15:56:23.185935Z,1697903783185
-0.30769410729408264,0.09870688617229462,0.29705187678337097,2023-10-21T15:56:23.197027Z,1697903783197
-0.2684507966041565,0.07343153655529022,0.285478413105011,2023-10-21T15:56:23.207923Z,1697903783207
-0.21723496913909912,0.026206545531749725,0.25714340806007385,2023-10-21T15:56:23.217007Z,1697903783216
-0.15684019029140472,-0.04429837316274643,0.23093686997890472,2023-10-21T15:56:23.226477Z,1697903783226
-0.0911242812871933,-0.10495921224355698,0.18916603922843933,2023-10-21T15:56:23.237219Z,1697903783237
-0.01888999715447426,-0.16774849593639374,0.14885850250720978,2023-10-21T15:56:23.246734Z,1697903783246
0.05094978213310242,-0.22787722945213318,0.11373907327651978,2023-10-21T15:56:23.258191Z,1697903783258
0.10735371708869934,-0.2809554636478424,0.08433984965085983,2023-10-21T15:56:23.267009Z,1697903783266
0.14140892028808594,-0.32405656576156616,0.05972963944077492,2023-10-21T15:56:23.278014Z,1697903783277
0.14752821624279022,-0.35491910576820374,0.038445137441158295,2023-10-21T15:56:23.287091Z,1697903783287
0.1229180097579956,-0.3736760914325714,0.01982119493186474,2023-10-21T15:56:23.298271Z,1697903783298
0.07223428785800934,-0.38205686211586,0.004256900865584612,2023-10-21T15:56:23.307522Z,1697903783307
0.007449576631188393,-0.3824559450149536,-0.0070504918694496155,2023-10-21T15:56:23.318308Z,1697903783318
-0.0526791475713253,-0.3759375512599945,-0.012371618300676346,2023-10-21T15:56:23.327770Z,1697903783327
-0.08966097235679626,-0.36090537905693054,-0.01050922367721796,2023-10-21T15:56:23.341645Z,1697903783341
-0.09338576346635818,-0.3253868520259857,-0.0070504918694496155,2023-10-21T15:56:23.348070Z,1697903783348
-0.06052780896425247,-0.28960227966308594,0.012903730385005474,2023-10-21T15:56:23.359034Z,1697903783359
-5.321126081980765E-4,-0.2519553303718567,0.04616076871752739,2023-10-21T15:56:23.368340Z,1697903783368
0.0653168261051178,-0.19195961952209473,0.07609210163354874,2023-10-21T15:56:23.379356Z,1697903783379
0.11240878701210022,-0.12491343170404434,0.10841794312000275,2023-10-21T15:56:23.391099Z,1697903783391
0.12464737892150879,-0.05587182566523552,0.13954652845859528,2023-10-21T15:56:23.399427Z,1697903783399
0.10189956426620483,0.009311970323324203,0.16588610410690308,2023-10-21T15:56:23.408793Z,1697903783408
0.05587182566523552,0.0658489316701889,0.18584032356739044,2023-10-21T15:56:23.419707Z,1697903783419
0.004256900865584612,0.11161062121391296,0.1992761790752411,2023-10-21T15:56:23.429123Z,1697903783429
-0.036582741886377335,0.14553280174732208,0.20699180662631989,2023-10-21T15:56:23.441299Z,1697903783441
-0.056004852056503296,0.1678815335035324,0.20978540182113647,2023-10-21T15:56:23.449379Z,1697903783449
-0.050018586218357086,0.17918892204761505,0.20898722112178802,2023-10-21T15:56:23.460487Z,1697903783460
-0.021550560370087624,0.18065223097801208,0.20539546012878418,2023-10-21T15:56:23.469637Z,1697903783469
0.01982119493186474,0.17306962609291077,0.1992761790752411,2023-10-21T15:56:23.480715Z,1697903783480
0.06052780896425247,0.15710625052452087,0.19023025035858154,2023-10-21T15:56:23.490732Z,1697903783490
0.0730324536561966,0.13648688793182373,0.17134025692939758,2023-10-21T15:56:23.500848Z,1697903783500
0.08567012846469879,0.1081518903374672,0.15577596426010132,2023-10-21T15:56:23.510129Z,1697903783510
0.09644541144371033,0.0839407667517662,0.14247314631938934,2023-10-21T15:56:23.524796Z,1697903783524
0.0823444277048111,0.07170217484235764,0.12158773094415665,2023-10-21T15:56:23.530418Z,1697903783530
0.059197526425123215,0.03179372847080231,0.11214273422956467,2023-10-21T15:56:23.541358Z,1697903783541
0.039376333355903625,-0.0023945067077875137,0.10402801632881165,2023-10-21T15:56:23.550686Z,1697903783550
0.03365612402558327,-0.0019954221788793802,0.08886280655860901,2023-10-21T15:56:23.561746Z,1697903783561
0.008513801731169224,-0.017027603462338448,0.08912885934114456,2023-10-21T15:56:23.574334Z,1697903783574
-0.0130367586389184,-0.02979830652475357,0.08952794969081879,2023-10-21T15:56:23.581784Z,1697903783581
-0.03392218053340912,-0.025940489023923874,0.09032611548900604,2023-10-21T15:56:23.591161Z,1697903783591
-0.05188097804784775,-0.02261478640139103,0.0911242812871933,2023-10-21T15:56:23.602035Z,1697903783602
-0.0883306935429573,-0.01915605366230011,0.09311970323324203,2023-10-21T15:56:23.611428Z,1697903783611
-0.15165209770202637,-0.016894575208425522,0.10110139846801758,2023-10-21T15:56:23.624674Z,1697903783624
-0.19940920174121857,-0.016495490446686745,0.09764266014099121,2023-10-21T15:56:23.631747Z,1697903783631
-0.24849659204483032,-0.015830349177122116,0.09258759021759033,2023-10-21T15:56:23.642719Z,1697903783642
-0.2930610179901123,-0.013302815146744251,0.08540407568216324,2023-10-21T15:56:23.651973Z,1697903783651
-0.32857954502105713,-0.007449576631188393,0.0751609057188034,2023-10-21T15:56:23.663015Z,1697903783662
-0.3545200228691101,0.0011972533538937569,0.06212414801120758,2023-10-21T15:56:23.674091Z,1697903783674
-0.3736760914325714,0.010642251931130886,0.0477571077644825,2023-10-21T15:56:23.683087Z,1697903783683
-0.3897724747657776,0.018756968900561333,0.03365612402558327,2023-10-21T15:56:23.692515Z,1697903783692
-0.4044055938720703,0.023412954062223434,0.019555138424038887,2023-10-21T15:56:23.703304Z,1697903783703
-0.41584599018096924,0.023412954062223434,0.004123872611671686,2023-10-21T15:56:23.712833Z,1697903783712
-0.42063501477241516,0.017825772985816002,-0.013701899908483028,2023-10-21T15:56:23.724266Z,1697903783724
-0.414781779050827,0.006784435827285051,-0.03432126343250275,2023-10-21T15:56:23.733034Z,1697903783732
-0.396157830953598,-0.008912886492908001,-0.056669991463422775,2023-10-21T15:56:23.744285Z,1697903783744
-0.36303383111953735,-0.02700471505522728,-0.0795508325099945,2023-10-21T15:56:23.753189Z,1697903783753
-0.31474462151527405,-0.045362599194049835,-0.10243167728185654,2023-10-21T15:56:23.764416Z,1697903783764
-0.2526204586029053,-0.06159203499555588,-0.12384921312332153,2023-10-21T15:56:23.774191Z,1697903783774
-0.1817164570093155,-0.07343153655529022,-0.1416749805212021,2023-10-21T15:56:23.784471Z,1697903783784
-0.10589040815830231,-0.07875266671180725,-0.1531154066324234,2023-10-21T15:56:23.793804Z,1697903783793
-0.026206545531749725,-0.07595907151699066,-0.15617504715919495,2023-10-21T15:56:23.807830Z,1697903783807
0.060128726065158844,-0.06598196178674698,-0.15085391700267792,2023-10-21T15:56:23.814131Z,1697903783814
0.15670716762542725,-0.052945204079151154,-0.13861533999443054,2023-10-21T15:56:23.825088Z,1697903783825
0.26525813341140747,-0.040972672402858734,-0.12225287407636642,2023-10-21T15:56:23.834397Z,1697903783834
0.381391704082489,-0.032458867877721786,-0.10456012934446335,2023-10-21T15:56:23.845454Z,1697903783845
0.4935344457626343,-0.02700471505522728,-0.08753252774477005,2023-10-21T15:56:23.857278Z,1697903783857
0.5890486836433411,-0.02381203882396221,-0.0730324536561966,2023-10-21T15:56:23.865471Z,1697903783865
0.6588884592056274,-0.021284503862261772,-0.061725061386823654,2023-10-21T15:56:23.874843Z,1697903783874
0.6982647776603699,-0.01662851870059967,-0.05334429070353508,2023-10-21T15:56:23.885774Z,1697903783885
0.7065125107765198,-0.006917464081197977,-0.04709196463227272,2023-10-21T15:56:23.895185Z,1697903783895
0.6860261559486389,0.008912886492908001,-0.041637811809778214,2023-10-21T15:56:23.907780Z,1697903783907
0.6445214152336121,0.028734080493450165,-0.03698182478547096,2023-10-21T15:56:23.915416Z,1697903783915
0.5923743844032288,0.0477571077644825,-0.033390067517757416,2023-10-21T15:56:23.926431Z,1697903783926
0.5396952033042908,0.061325978487730026,-0.03112858720123768,2023-10-21T15:56:23.935665Z,1697903783935
0.4769059121608734,0.061325978487730026,-0.028334995731711388,2023-10-21T15:56:23.946762Z,1697903783946
0.44098833203315735,0.05879844352602959,-0.03285795450210571,2023-10-21T15:56:23.957250Z,1697903783957
0.4319424033164978,0.05374337360262871,-0.04549562931060791,2023-10-21T15:56:23.966832Z,1697903783966
0.4161120653152466,0.03605062887072563,-0.05906450003385544,2023-10-21T15:56:23.976213Z,1697903783976
0.4099927544593811,0.014899153262376785,-0.0751609057188034,2023-10-21T15:56:23.990797Z,1697903783990
0.41198819875717163,-0.006784435827285051,-0.091656394302845,2023-10-21T15:56:23.996483Z,1697903783996
0.4193047285079956,-0.02700471505522728,-0.10708766430616379,2023-10-21T15:56:24.007705Z,1697903784007
0.4279515743255615,-0.04483048617839813,-0.11985836178064346,2023-10-21T15:56:24.016711Z,1697903784016
0.4330066442489624,-0.058532387018203735,-0.12996850907802582,2023-10-21T15:56:24.027828Z,1697903784027
0.4307451546192169,-0.06651407480239868,-0.13821625709533691,2023-10-21T15:56:24.036834Z,1697903784036
0.4191717207431793,-0.06797738373279572,-0.1453997641801834,2023-10-21T15:56:24.048098Z,1697903784048
0.39762115478515625,-0.06358745694160461,-0.15218420326709747,2023-10-21T15:56:24.057272Z,1697903784057
0.3643641173839569,-0.05520668253302574,-0.15989984571933746,2023-10-21T15:56:24.068146Z,1697903784068
0.3194005787372589,-0.04669288173317909,-0.15218420326709747,2023-10-21T15:56:24.077488Z,1697903784077
0.23240017890930176,-0.03884422034025192,-0.16894575953483582,2023-10-21T15:56:24.090982Z,1697903784090
0.09578026831150055,-0.03299098089337349,-0.20672574639320374,2023-10-21T15:56:24.097892Z,1697903784097
-0.07289943099021912,-0.029000137001276016,-0.2244184911251068,2023-10-21T15:56:24.108782Z,1697903784108
-0.26765263080596924,-0.020619364455342293,-0.23905159533023834,2023-10-21T15:56:24.118040Z,1697903784118
-0.4653324782848358,-0.003325703786686063,-0.24676722288131714,2023-10-21T15:56:24.129123Z,1697903784129
-0.645053505897522,0.024876264855265617,-0.2447717934846878,2023-10-21T15:56:24.140451Z,1697903784140
-0.7935129404067993,0.06265626102685928,-0.23173503577709198,2023-10-21T15:56:24.149173Z,1697903784149
-0.8991372585296631,0.10575737804174423,-0.20765694975852966,2023-10-21T15:56:24.158557Z,1697903784158
-0.9483577013015747,0.14859244227409363,-0.17546413838863373,2023-10-21T15:56:24.169405Z,1697903784169
-0.9346557855606079,0.18464307487010956,-0.14034469425678253,2023-10-21T15:56:24.178870Z,1697903784178
-0.8645499348640442,0.20792299509048462,-0.10855097323656082,2023-10-21T15:56:24.190886Z,1697903784190
-0.7574623227119446,0.19994130730628967,-0.0872664675116539,2023-10-21T15:56:24.199110Z,1697903784199
-0.6269617080688477,0.19023025035858154,-0.07662421464920044,2023-10-21T15:56:24.210126Z,1697903784210
-0.4858188033103943,0.17799167335033417,-0.07569301873445511,2023-10-21T15:56:24.219273Z,1697903784219
-0.3480016589164734,0.13648688793182373,-0.08380773663520813,2023-10-21T15:56:24.230451Z,1697903784230
-0.2201615869998932,0.08660132437944412,-0.095514215528965,2023-10-21T15:56:24.240427Z,1697903784240
-0.11041336506605148,0.032192811369895935,-0.10948216915130615,2023-10-21T15:56:24.250444Z,1697903784250
-0.024078095331788063,-0.023945067077875137,-0.12544554471969604,2023-10-21T15:56:24.259933Z,1697903784259
0.03924330323934555,-0.07835358381271362,-0.14300526678562164,2023-10-21T15:56:24.270653Z,1697903784270
0.08447287976741791,-0.12770701944828033,-0.16043195128440857,2023-10-21T15:56:24.280173Z,1697903784280
0.11506935209035873,-0.16921180486679077,-0.1755971610546112,2023-10-21T15:56:24.291181Z,1697903784291
0.13156484067440033,-0.201936736702919,-0.18677152693271637,2023-10-21T15:56:24.300330Z,1697903784300
0.133427232503891,-0.22614786028862,-0.1942211091518402,2023-10-21T15:56:24.311446Z,1697903784311
0.11985836178064346,-0.24330848455429077,-0.19887708127498627,2023-10-21T15:56:24.323703Z,1697903784323
0.0911242812871933,-0.2546158730983734,-0.20180371403694153,2023-10-21T15:56:24.331539Z,1697903784331
0.04842224717140198,-0.2607351839542389,-0.20260187983512878,2023-10-21T15:56:24.340878Z,1697903784340
-0.005188097711652517,-0.2619324326515198,-0.2008725106716156,2023-10-21T15:56:24.351723Z,1697903784351
-0.06598196178674698,-0.2579415738582611,-0.19674864411354065,2023-10-21T15:56:24.361252Z,1697903784361
-0.13036759197711945,-0.24796447157859802,-0.1904963105916977,2023-10-21T15:56:24.374130Z,1697903784374
-0.19501927495002747,-0.23027172684669495,-0.18238160014152527,2023-10-21T15:56:24.381481Z,1697903784381
-0.2567443251609802,-0.20379912853240967,-0.17134025692939758,2023-10-21T15:56:24.392472Z,1697903784392
-0.30968955159187317,-0.16867969930171967,-0.1569732129573822,2023-10-21T15:56:24.401645Z,1697903784401
-0.34387776255607605,-0.12597766518592834,-0.13967956602573395,2023-10-21T15:56:24.412801Z,1697903784412
-0.32911163568496704,-0.095514215528965,-0.12092258781194687,2023-10-21T15:56:24.423707Z,1697903784423
-0.30769410729408264,-0.04456442967057228,-0.09910597652196884,2023-10-21T15:56:24.432837Z,1697903784432
-0.274304062128067,0.02008725143969059,-0.07649118453264236,2023-10-21T15:56:24.442217Z,1697903784442
-0.18198251724243164,0.058266330510377884,-0.056004852056503296,2023-10-21T15:56:24.453062Z,1697903784453
-0.05879844352602959,0.08753252774477005,-0.037247881293296814,2023-10-21T15:56:24.462556Z,1697903784462
0.09006005525588989,0.10589040815830231,-0.022082673385739326,2023-10-21T15:56:24.474078Z,1697903784474
0.25607919692993164,0.1125418171286583,-0.011839505285024643,2023-10-21T15:56:24.482809Z,1697903784482
0.4279515743255615,0.10788583010435104,-0.006784435827285051,2023-10-21T15:56:24.493810Z,1697903784493
0.5921083092689514,0.09418392926454544,-0.0055871824733912945,2023-10-21T15:56:24.502957Z,1697903784502
0.7356456518173218,0.07569301873445511,-0.006784435827285051,2023-10-21T15:56:24.514054Z,1697903784514
0.848719596862793,0.05627090856432915,-0.00971105508506298,2023-10-21T15:56:24.523552Z,1697903784523
0.9248117208480835,0.038445137441158295,-0.014367040246725082,2023-10-21T15:56:24.534123Z,1697903784534
0.9607293009757996,0.023945067077875137,-0.020486336201429367,2023-10-21T15:56:24.543578Z,1697903784543
0.9560733437538147,0.013834928162395954,-0.027137743309140205,2023-10-21T15:56:24.557386Z,1697903784557
0.9148346185684204,0.00944499857723713,-0.03365612402558327,2023-10-21T15:56:24.563877Z,1697903784563
0.845526933670044,0.01050922367721796,-0.03884422034025192,2023-10-21T15:56:24.574807Z,1697903784574
0.7461549043655396,0.011307393200695515,-0.03804605081677437,2023-10-21T15:56:24.584113Z,1697903784584
0.6370718479156494,0.00971105508506298,-0.032458867877721786,2023-10-21T15:56:24.595102Z,1697903784595
0.5575209856033325,0.02540837787091732,-0.035917602479457855,2023-10-21T15:56:24.606708Z,1697903784606
0.4895435869693756,0.038711193948984146,-0.0389772467315197,2023-10-21T15:56:24.615207Z,1697903784615
0.3803274929523468,0.05520668253302574,-0.03618365898728371,2023-10-21T15:56:24.624609Z,1697903784624
0.25328558683395386,0.0834086537361145,-0.03445428982377052,2023-10-21T15:56:24.635475Z,1697903784635
0.14021167159080505,0.09950505942106247,-0.031261615455150604,2023-10-21T15:56:24.644925Z,1697903784644
0.023146897554397583,0.11147759109735489,-0.030064363032579422,2023-10-21T15:56:24.657482Z,1697903784657
-0.11134456098079681,0.11573449522256851,-0.033124011009931564,2023-10-21T15:56:24.665185Z,1697903784665
-0.281620591878891,0.11121153831481934,-0.04203689470887184,2023-10-21T15:56:24.676331Z,1697903784676
-0.48994266986846924,0.10083533823490143,-0.05627090856432915,2023-10-21T15:56:24.685307Z,1697903784685
-0.7151593565940857,0.0911242812871933,-0.07250034064054489,2023-10-21T15:56:24.696597Z,1697903784696
-0.9238805174827576,0.08819766342639923,-0.0862022414803505,2023-10-21T15:56:24.707400Z,1697903784707
-1.090032696723938,0.09471604228019714,-0.09444998949766159,2023-10-21T15:56:24.716579Z,1697903784716
-1.1995148658752441,0.10961519926786423,-0.09644541144371033,2023-10-21T15:56:24.725968Z,1697903784725
-1.2424829006195068,0.13036759197711945,-0.09139034152030945,2023-10-21T15:56:24.736770Z,1697903784736
-1.2134828567504883,0.1515190601348877,-0.07994992285966873,2023-10-21T15:56:24.746173Z,1697903784746
-1.115041971206665,0.16455581784248352,-0.06505076587200165,2023-10-21T15:56:24.757067Z,1697903784757
-0.9728348851203918,0.15577596426010132,-0.053211260586977005,2023-10-21T15:56:24.766383Z,1697903784766
-0.796439528465271,0.13316118717193604,-0.048156190663576126,2023-10-21T15:56:24.777287Z,1697903784777
-0.6099340915679932,0.09923899918794632,-0.05148189514875412,2023-10-21T15:56:24.788719Z,1697903784788
-0.44165346026420593,0.04988555610179901,-0.0614590048789978,2023-10-21T15:56:24.797478Z,1697903784797
-0.2848132848739624,7.981689414009452E-4,-0.0735645666718483,2023-10-21T15:56:24.807020Z,1697903784806
-0.1415419578552246,-0.040307529270648956,-0.08407378941774368,2023-10-21T15:56:24.817815Z,1697903784817
-0.016495490446686745,-0.0686425268650055,-0.09019308537244797,2023-10-21T15:56:24.827297Z,1697903784827
0.08500499278306961,-0.08194534480571747,-0.09032611548900604,2023-10-21T15:56:24.840312Z,1697903784840
0.1597668081521988,-0.08101414144039154,-0.08407378941774368,2023-10-21T15:56:24.847583Z,1697903784847
0.2068587690591812,-0.06877555698156357,-0.07183520495891571,2023-10-21T15:56:24.858519Z,1697903784858
0.22867539525032043,-0.04908738657832146,-0.05560576915740967,2023-10-21T15:56:24.867829Z,1697903784867
0.23080384731292725,-0.025674432516098022,-0.03804605081677437,2023-10-21T15:56:24.878825Z,1697903784878
0.21098265051841736,-0.012504646554589272,-0.027137743309140205,2023-10-21T15:56:24.890323Z,1697903784890
0.18264764547348022,0.010376195423305035,-0.01144042145460844,2023-10-21T15:56:24.898985Z,1697903784898
0.1585695594549179,0.02979830652475357,0.0019954221788793802,2023-10-21T15:56:24.908325Z,1697903784908
0.10083533823490143,0.04203689470887184,0.010908308438956738,2023-10-21T15:56:24.919211Z,1697903784919
0.02633957378566265,0.059197526425123215,0.022215701639652252,2023-10-21T15:56:24.928615Z,1697903784928
-0.029931334778666496,0.06398653984069824,0.02700471505522728,2023-10-21T15:56:24.940420Z,1697903784940
-0.07888569682836533,0.06957372277975082,0.034055206924676895,2023-10-21T15:56:24.948864Z,1697903784948
-0.11520238220691681,0.07782147079706192,0.04483048617839813,2023-10-21T15:56:24.959922Z,1697903784959
-0.13183090090751648,0.0905921682715416,0.05999569594860077,2023-10-21T15:56:24.969012Z,1697903784968
-0.12384921312332153,0.10801886022090912,0.07994992285966873,2023-10-21T15:56:24.980224Z,1697903784980
-0.09192245453596115,0.12770701944828033,0.10562435537576675,2023-10-21T15:56:24.989970Z,1697903784989
-0.039110276848077774,0.1465970277786255,0.13648688793182373,2023-10-21T15:56:25.000240Z,1697903785000
0.02700471505522728,0.1613631546497345,0.16947786509990692,2023-10-21T15:56:25.009631Z,1697903785009
0.09511512517929077,0.1696108877658844,0.20047342777252197,2023-10-21T15:56:25.023709Z,1697903785023
0.15111997723579407,0.17094117403030396,0.22694602608680725,2023-10-21T15:56:25.029906Z,1697903785029
0.1843770146369934,0.166817307472229,0.24783144891262054,2023-10-21T15:56:25.041157Z,1697903785041
0.19036328792572021,0.16056497395038605,0.26259756088256836,2023-10-21T15:56:25.050151Z,1697903785050
0.16761547327041626,0.1547117382287979,0.2712444067001343,2023-10-21T15:56:25.061237Z,1697903785061
0.11839505285024643,0.1503218114376068,0.27417102456092834,2023-10-21T15:56:25.073181Z,1697903785073
0.04935344308614731,0.14699611067771912,0.27151045203208923,2023-10-21T15:56:25.081288Z,1697903785081
-0.031261615455150604,0.14313828945159912,0.26379483938217163,2023-10-21T15:56:25.090671Z,1697903785090
-0.11706477403640747,0.1360878050327301,0.25155624747276306,2023-10-21T15:56:25.101486Z,1697903785101
-0.20566152036190033,0.12345012277364731,0.2354598343372345,2023-10-21T15:56:25.111025Z,1697903785110
-0.29705187678337097,0.10469315201044083,0.2156386375427246,2023-10-21T15:56:25.123478Z,1697903785123
-0.3892403841018677,0.0823444277048111,0.19408807158470154,2023-10-21T15:56:25.131233Z,1697903785131
-0.47610774636268616,0.05999569594860077,0.17267054319381714,2023-10-21T15:56:25.142303Z,1697903785142
-0.5498053431510925,0.04110569879412651,0.1531154066324234,2023-10-21T15:56:25.151409Z,1697903785151
-0.6052780747413635,0.027403799816966057,0.13622082769870758,2023-10-21T15:56:25.162572Z,1697903785162
-0.6434571743011475,0.018623940646648407,0.12198681384325027,2023-10-21T15:56:25.173082Z,1697903785173
-0.6671361923217773,0.013701899908483028,0.11014731228351593,2023-10-21T15:56:25.182664Z,1697903785182
-0.6796408295631409,0.01144042145460844,0.10030322521924973,2023-10-21T15:56:25.192101Z,1697903785192
-0.6829665303230286,0.012504646554589272,0.09152337163686752,2023-10-21T15:56:25.202798Z,1697903785202
-0.6797738671302795,0.017958801239728928,0.0839407667517662,2023-10-21T15:56:25.212350Z,1697903785212
-0.6725903153419495,0.028201967477798462,0.07715632766485214,2023-10-21T15:56:25.223519Z,1697903785223
-0.6606178283691406,0.042569007724523544,0.07170217484235764,2023-10-21T15:56:25.232578Z,1697903785232
-0.640929639339447,0.061059921979904175,0.06797738373279572,2023-10-21T15:56:25.243705Z,1697903785243
-0.6107322573661804,0.08327562361955643,0.06664710491895676,2023-10-21T15:56:25.252615Z,1697903785252
-0.5693604946136475,0.10748674720525742,0.06784436106681824,2023-10-21T15:56:25.263938Z,1697903785263
-0.5196079611778259,0.1316978633403778,0.07090400159358978,2023-10-21T15:56:25.273042Z,1697903785273
-0.4570847451686859,0.13302814960479736,0.06744527071714401,2023-10-21T15:56:25.283982Z,1697903785283
-0.39868536591529846,0.1580374389886856,0.0735645666718483,2023-10-21T15:56:25.293347Z,1697903785293
-0.34161630272865295,0.20406518876552582,0.08593618869781494,2023-10-21T15:56:25.306707Z,1697903785306
-0.2727077007293701,0.2250836342573166,0.08700041472911835,2023-10-21T15:56:25.313613Z,1697903785313
-0.20725786685943604,0.24517089128494263,0.08593618869781494,2023-10-21T15:56:25.324667Z,1697903785324
-0.1503218114376068,0.26326271891593933,0.0818123146891594,2023-10-21T15:56:25.333880Z,1697903785333
-0.10269773006439209,0.27789580821990967,0.07210125774145126,2023-10-21T15:56:25.344943Z,1697903785344
-0.06252323091030121,0.2885380685329437,0.053876399993896484,2023-10-21T15:56:25.356287Z,1697903785356
-0.030197391286492348,0.2937261462211609,0.026472602039575577,2023-10-21T15:56:25.364964Z,1697903785364
-0.0070504918694496155,0.29279497265815735,-0.008513801731169224,2023-10-21T15:56:25.374358Z,1697903785374
0.004522957373410463,0.28561145067214966,-0.04802316427230835,2023-10-21T15:56:25.385238Z,1697903785385
0.006252323277294636,0.2737719416618347,-0.08992703258991241,2023-10-21T15:56:25.394701Z,1697903785394
0.0031926757656037807,0.2596709430217743,-0.13302814960479736,2023-10-21T15:56:25.406681Z,1697903785406
-0.0015963378828018904,0.2453039139509201,-0.1755971610546112,2023-10-21T15:56:25.414987Z,1697903785414
-0.007582604885101318,0.23226715624332428,-0.21537257730960846,2023-10-21T15:56:25.425968Z,1697903785425
-0.01569732278585434,0.2217579334974289,-0.25102412700653076,2023-10-21T15:56:25.435114Z,1697903785435
-0.02474323660135269,0.21537257730960846,-0.2821527123451233,2023-10-21T15:56:25.446302Z,1697903785446
-0.03205978497862816,0.21430835127830505,-0.3084922730922699,2023-10-21T15:56:25.456151Z,1697903785456
-0.037247881293296814,0.21869827806949615,-0.32911163568496704,2023-10-21T15:56:25.466367Z,1697903785466
-0.04057358577847481,0.2282763123512268,-0.34268051385879517,2023-10-21T15:56:25.475761Z,1697903785475
-0.04243598133325577,0.24224425852298737,-0.34893283247947693,2023-10-21T15:56:25.490359Z,1697903785490
-0.04177083820104599,0.2600700259208679,-0.3485337495803833,2023-10-21T15:56:25.496032Z,1697903785495
-0.038445137441158295,0.28029030561447144,-0.3430795967578888,2023-10-21T15:56:25.506904Z,1697903785506
-0.03272492438554764,0.3009096682071686,-0.3346988260746002,2023-10-21T15:56:25.516289Z,1697903785516
-0.02540837787091732,0.32033178210258484,-0.32512080669403076,2023-10-21T15:56:25.527237Z,1697903785527
-0.01822485774755478,0.337093323469162,-0.3156757950782776,2023-10-21T15:56:25.539504Z,1697903785539
-0.013834928162395954,0.35052919387817383,-0.30649685859680176,2023-10-21T15:56:25.547348Z,1697903785547
-0.011972533538937569,0.3605062961578369,-0.29891425371170044,2023-10-21T15:56:25.556731Z,1697903785556
-0.010775280185043812,0.3678228259086609,-0.29385918378829956,2023-10-21T15:56:25.567575Z,1697903785567
-0.00971105508506298,0.3732770085334778,-0.29159772396087646,2023-10-21T15:56:25.577080Z,1697903785577
-0.011174364946782589,0.3770017921924591,-0.2907995283603668,2023-10-21T15:56:25.589949Z,1697903785589
-0.018091829493641853,0.3788641691207886,-0.29066652059555054,2023-10-21T15:56:25.597368Z,1697903785597
-0.03232584148645401,0.3780660033226013,-0.2918637692928314,2023-10-21T15:56:25.608348Z,1697903785608
-0.052546121180057526,0.37394213676452637,-0.2951894700527191,2023-10-21T15:56:25.617528Z,1697903785617
-0.07609210163354874,0.36635953187942505,-0.3014417886734009,2023-10-21T15:56:25.628625Z,1697903785628
-0.0999041423201561,0.3555842638015747,-0.3107537627220154,2023-10-21T15:56:25.639437Z,1697903785639
-0.12172076106071472,0.3424144685268402,-0.3225932717323303,2023-10-21T15:56:25.648757Z,1697903785648
-0.14007864892482758,0.32685017585754395,-0.33563002943992615,2023-10-21T15:56:25.658286Z,1697903785658
-0.1541796326637268,0.30929043889045715,-0.34879982471466064,2023-10-21T15:56:25.668915Z,1697903785668
-0.1624273806810379,0.29053348302841187,-0.36143749952316284,2023-10-21T15:56:25.678368Z,1697903785678
-0.16442279517650604,0.27084532380104065,-0.37407517433166504,2023-10-21T15:56:25.689860Z,1697903785689
-0.16162919998168945,0.25049200654029846,-0.3875110149383545,2023-10-21T15:56:25.698598Z,1697903785698
-0.15790441632270813,0.2293405383825302,-0.4010798931121826,2023-10-21T15:56:25.709684Z,1697903785709
-0.1580374389886856,0.20765694975852966,-0.4127863645553589,2023-10-21T15:56:25.718740Z,1697903785718
-0.16615216434001923,0.18730363249778748,-0.41970381140708923,2023-10-21T15:56:25.729953Z,1697903785729
-0.18304674327373505,0.17054209113121033,-0.41903868317604065,2023-10-21T15:56:25.739392Z,1697903785739
-0.20552849769592285,0.15950074791908264,-0.40866249799728394,2023-10-21T15:56:25.750013Z,1697903785749
-0.2288084179162979,0.1553768813610077,-0.38950642943382263,2023-10-21T15:56:25.759390Z,1697903785759
-0.24849659204483032,0.15777139365673065,-0.3638319969177246,2023-10-21T15:56:25.773191Z,1697903785773
-0.23851947486400604,0.14885850250720978,-0.3243226408958435,2023-10-21T15:56:25.779700Z,1697903785779
-0.25062504410743713,0.16096405684947968,-0.2947903871536255,2023-10-21T15:56:25.790627Z,1697903785790
-0.26100122928619385,0.17147329449653625,-0.26964807510375977,2023-10-21T15:56:25.799982Z,1697903785799
-0.2612673044204712,0.18131737411022186,-0.2365240603685379,2023-10-21T15:56:25.810997Z,1697903785810
-0.26153334975242615,0.18983116745948792,-0.20832209289073944,2023-10-21T15:56:25.822740Z,1697903785822
-0.2496938407421112,0.19475321471691132,-0.17253752052783966,2023-10-21T15:56:25.831025Z,1697903785831
-0.23945067822933197,0.19887708127498627,-0.14194104075431824,2023-10-21T15:56:25.840409Z,1697903785840
-0.20060645043849945,0.20260187983512878,-0.10549132525920868,2023-10-21T15:56:25.851259Z,1697903785851
-0.15604202449321747,0.22042764723300934,-0.06598196178674698,2023-10-21T15:56:25.860773Z,1697903785860
-0.1081518903374672,0.21484047174453735,-0.04177083820104599,2023-10-21T15:56:25.872820Z,1697903785872
-0.0784866064786911,0.19528532028198242,-0.029399221763014793,2023-10-21T15:56:25.880984Z,1697903785880
-0.04456442967057228,0.1794549822807312,-0.023412954062223434,2023-10-21T15:56:25.892087Z,1697903785892
-0.015431265346705914,0.16601912677288055,-0.018357884138822556,2023-10-21T15:56:25.901151Z,1697903785901
-0.013169786892831326,0.14180800318717957,-0.01569732278585434,2023-10-21T15:56:25.912347Z,1697903785912
-0.016495490446686745,0.11320696026086807,-0.04017450287938118,2023-10-21T15:56:25.922454Z,1697903785922
-0.03445428982377052,0.08008294552564621,-0.07422970980405807,2023-10-21T15:56:25.932411Z,1697903785932
-0.06465168297290802,0.048156190663576126,-0.08979400247335434,2023-10-21T15:56:25.941759Z,1697903785941
-0.09857386350631714,0.01662851870059967,-0.10322984308004379,2023-10-21T15:56:25.952540Z,1697903785952
-0.1332942098379135,-0.013435843400657177,-0.11400512605905533,2023-10-21T15:56:25.962077Z,1697903785962
-0.16774849593639374,-0.04083964228630066,-0.1218537837266922,2023-10-21T15:56:25.973556Z,1697903785973
-0.20286792516708374,-0.06385350972414017,-0.12611068785190582,2023-10-21T15:56:25.982288Z,1697903785982
-0.23891855776309967,-0.0818123146891594,-0.12597766518592834,2023-10-21T15:56:25.993331Z,1697903785993
-0.27536827325820923,-0.09458301961421967,-0.12225287407636642,2023-10-21T15:56:26.005647Z,1697903786005
-0.3107537627220154,-0.10296379029750824,-0.11600054800510406,2023-10-21T15:56:26.013446Z,1697903786013
-0.34494200348854065,-0.10948216915130615,-0.10801886022090912,2023-10-21T15:56:26.022768Z,1697903786022
-0.37793296575546265,-0.11626660823822021,-0.09844083338975906,2023-10-21T15:56:26.033686Z,1697903786033
-0.40759825706481934,-0.12504646182060242,-0.08766555041074753,2023-10-21T15:56:26.043118Z,1697903786043
-0.43061211705207825,-0.13688597083091736,-0.07689027488231659,2023-10-21T15:56:26.056308Z,1697903786056
-0.4456443190574646,-0.15138603746891022,-0.0663810446858406,2023-10-21T15:56:26.063365Z,1697903786063
-0.4549562931060791,-0.1673494130373001,-0.055738795548677444,2023-10-21T15:56:26.074376Z,1697903786074
-0.46307098865509033,-0.18264764547348022,-0.04310112074017525,2023-10-21T15:56:26.083611Z,1697903786083
-0.4730481207370758,-0.19462019205093384,-0.027536828070878983,2023-10-21T15:56:26.094671Z,1697903786094
-0.4852867126464844,-0.20127159357070923,-0.008513801731169224,2023-10-21T15:56:26.105802Z,1697903786105
-0.4983234703540802,-0.2008725106716156,0.013701899908483028,2023-10-21T15:56:26.114742Z,1697903786114
-0.5089657306671143,-0.19342292845249176,0.038711193948984146,2023-10-21T15:56:26.124177Z,1697903786124
-0.5133556127548218,-0.18012011051177979,0.06505076587200165,2023-10-21T15:56:26.134967Z,1697903786134
-0.5088326930999756,-0.16389068961143494,0.08926188945770264,2023-10-21T15:56:26.144454Z,1697903786144
-0.4963280260562897,-0.14885850250720978,0.10628949105739594,2023-10-21T15:56:26.156201Z,1697903786156
-0.48169493675231934,-0.13928046822547913,0.11200970411300659,2023-10-21T15:56:26.164678Z,1697903786164
-0.4707866311073303,-0.13701899349689484,0.1042940691113472,2023-10-21T15:56:26.175736Z,1697903786175
-0.4671948552131653,-0.1422071009874344,0.08380773663520813,2023-10-21T15:56:26.184870Z,1697903786184
-0.47291508316993713,-0.15457871556282043,0.05241309106349945,2023-10-21T15:56:26.196014Z,1697903786195
-0.4894105792045593,-0.17253752052783966,0.013435843400657177,2023-10-21T15:56:26.205758Z,1697903786205
-0.5182777047157288,-0.19275778532028198,-0.028068939223885536,2023-10-21T15:56:26.216168Z,1697903786216
-0.5553925633430481,-0.21151475608348846,-0.06717921793460846,2023-10-21T15:56:26.225436Z,1697903786225
-0.5897138118743896,-0.22521665692329407,-0.1009683683514595,2023-10-21T15:56:26.239624Z,1697903786239
-0.6100671291351318,-0.23279926180839539,-0.12983547151088715,2023-10-21T15:56:26.245740Z,1697903786245
-0.6112643480300903,-0.23519377410411835,-0.15630808472633362,2023-10-21T15:56:26.256756Z,1697903786256
-0.5967642664909363,-0.23532679677009583,-0.18424399197101593,2023-10-21T15:56:26.265994Z,1697903786265
-0.5748146176338196,-0.23851947486400604,-0.2179001122713089,2023-10-21T15:56:26.277040Z,1697903786277
-0.555525541305542,-0.25049200654029846,-0.2590058147907257,2023-10-21T15:56:26.288946Z,1697903786288
-0.543686032295227,-0.2727077007293701,-0.30662989616394043,2023-10-21T15:56:26.297088Z,1697903786297
-0.5351722836494446,-0.3011757433414459,-0.35598334670066833,2023-10-21T15:56:26.306513Z,1697903786306
-0.5202730894088745,-0.32844650745391846,-0.40094685554504395,2023-10-21T15:56:26.317314Z,1697903786317
-0.49100691080093384,-0.34826770424842834,-0.43486902117729187,2023-10-21T15:56:26.326819Z,1697903786326
-0.4439149498939514,-0.3573136031627655,-0.4532269239425659,2023-10-21T15:56:26.339447Z,1697903786339
-0.3799284100532532,-0.3545200228691101,-0.45628654956817627,2023-10-21T15:56:26.347052Z,1697903786347
-0.3023729920387268,-0.3401529788970947,-0.4473736882209778,2023-10-21T15:56:26.358163Z,1697903786358
-0.21856525540351868,-0.3156757950782776,-0.43220847845077515,2023-10-21T15:56:26.367294Z,1697903786367
-0.1383492797613144,-0.28361600637435913,-0.41464874148368835,2023-10-21T15:56:26.378461Z,1697903786378
-0.0730324536561966,-0.24823053181171417,-0.39708903431892395,2023-10-21T15:56:26.389143Z,1697903786389
-0.03139464557170868,-0.21364320814609528,-0.3809926211833954,2023-10-21T15:56:26.398413Z,1697903786398
-0.015830349177122116,-0.18251462280750275,-0.34613925218582153,2023-10-21T15:56:26.407889Z,1697903786407
-0.019023025408387184,-0.1504548341035843,-0.33283644914627075,2023-10-21T15:56:26.418616Z,1697903786418
-0.021816616877913475,-0.12318406999111176,-0.32126298546791077,2023-10-21T15:56:26.428183Z,1697903786428
-0.04456442967057228,-0.08939491957426071,-0.30263903737068176,2023-10-21T15:56:26.439525Z,1697903786439
-0.06411956995725632,-0.06052780896425247,-0.28667566180229187,2023-10-21T15:56:26.448406Z,1697903786448
-0.07755541056394577,-0.027802884578704834,-0.274304062128067,2023-10-21T15:56:26.459911Z,1697903786459
-0.08912885934114456,1.3302815204951912E-4,-0.26366180181503296,2023-10-21T15:56:26.468704Z,1697903786468
-0.10003717243671417,0.02035330794751644,-0.2590058147907257,2023-10-21T15:56:26.479838Z,1697903786479
-0.10948216915130615,0.037513937801122665,-0.25501495599746704,2023-10-21T15:56:26.489257Z,1697903786489
-0.11054639518260956,0.04842224717140198,-0.2568773627281189,2023-10-21T15:56:26.499845Z,1697903786499
-0.11147759109735489,0.05773421749472618,-0.2584736943244934,2023-10-21T15:56:26.509162Z,1697903786509
-0.10735371708869934,0.05866541340947151,-0.2656572163105011,2023-10-21T15:56:26.523054Z,1697903786523
-0.11067942529916763,0.05999569594860077,-0.2985151708126068,2023-10-21T15:56:26.529438Z,1697903786529
-0.1092161163687706,0.050018586218357086,-0.3100886344909668,2023-10-21T15:56:26.540471Z,1697903786540
-0.11028033494949341,0.03817908093333244,-0.32232722640037537,2023-10-21T15:56:26.549674Z,1697903786549
-0.11307393014431,0.026206545531749725,-0.33177220821380615,2023-10-21T15:56:26.560601Z,1697903786560
-0.11400512605905533,0.01636246219277382,-0.3360291123390198,2023-10-21T15:56:26.570522Z,1697903786570
-0.10735371708869934,0.010642251931130886,-0.333634614944458,2023-10-21T15:56:26.580874Z,1697903786580
-0.0877985805273056,0.009977111592888832,-0.32525384426116943,2023-10-21T15:56:26.590213Z,1697903786590
-0.05454154312610626,0.012903730385005474,-0.3134143352508545,2023-10-21T15:56:26.601182Z,1697903786601
-0.013169786892831326,0.016495490446686745,-0.30210694670677185,2023-10-21T15:56:26.610494Z,1697903786610
0.029000137001276016,0.017692744731903076,-0.2946573495864868,2023-10-21T15:56:26.622418Z,1697903786622
0.06678013503551483,0.015431265346705914,-0.2930610179901123,2023-10-21T15:56:26.630707Z,1697903786630
0.09724357724189758,0.01050922367721796,-0.2978500425815582,2023-10-21T15:56:26.641689Z,1697903786641
0.11706477403640747,0.0047890134155750275,-0.3062308132648468,2023-10-21T15:56:26.650924Z,1697903786650
0.12411526590585709,0.001064225216396153,-0.3139464259147644,2023-10-21T15:56:26.662037Z,1697903786661
0.12172076106071472,0.0022614786867052317,-0.31687304377555847,2023-10-21T15:56:26.672421Z,1697903786672
0.11826203018426895,0.010243168100714684,-0.31368038058280945,2023-10-21T15:56:26.682073Z,1697903786682
0.12105561792850494,0.02447718009352684,-0.3051665723323822,2023-10-21T15:56:26.691556Z,1697903786691
0.13422539830207825,0.04296809434890747,-0.29346010088920593,2023-10-21T15:56:26.706128Z,1697903786706
0.15763835608959198,0.06358745694160461,-0.2809554636478424,2023-10-21T15:56:26.711853Z,1697903786711
0.18916603922843933,0.08473893254995346,-0.2695150375366211,2023-10-21T15:56:26.722706Z,1697903786722
0.22534969449043274,0.10549132525920868,-0.25993701815605164,2023-10-21T15:56:26.732087Z,1697903786732
0.2623315155506134,0.12531252205371857,-0.25275349617004395,2023-10-21T15:56:26.742998Z,1697903786742
0.29678580164909363,0.14313828945159912,-0.24849659204483032,2023-10-21T15:56:26.755344Z,1697903786755
0.32578593492507935,0.15817047655582428,-0.24729932844638824,2023-10-21T15:56:26.763155Z,1697903786763
0.34773558378219604,0.16934484243392944,-0.2502259612083435,2023-10-21T15:56:26.772542Z,1697903786772
0.36196959018707275,0.17599624395370483,-0.2574094831943512,2023-10-21T15:56:26.783324Z,1697903786783
0.3688870668411255,0.17759257555007935,-0.26818475127220154,2023-10-21T15:56:26.792852Z,1697903786792
0.3692861497402191,0.17413385212421417,-0.28068938851356506,2023-10-21T15:56:26.805735Z,1697903786805
0.3654283285140991,0.16721639037132263,-0.2937261462211609,2023-10-21T15:56:26.813111Z,1697903786813
0.36037325859069824,0.15923470258712769,-0.30649685859680176,2023-10-21T15:56:26.824111Z,1697903786824
0.355717271566391,0.15165209770202637,-0.3183363676071167,2023-10-21T15:56:26.833337Z,1697903786833
0.34999707341194153,0.14446857571601868,-0.32897862792015076,2023-10-21T15:56:26.844404Z,1697903786844
0.33895573019981384,0.13595476746559143,-0.3386896848678589,2023-10-21T15:56:26.855305Z,1697903786855
0.3200657367706299,0.12478040903806686,-0.3480016589164734,2023-10-21T15:56:26.864446Z,1697903786864
0.29279497265815735,0.11121153831481934,-0.35811179876327515,2023-10-21T15:56:26.873874Z,1697903786873
0.25820764899253845,0.0949821025133133,-0.3695521950721741,2023-10-21T15:56:26.884679Z,1697903786884
0.2173680067062378,0.07635816186666489,-0.3824559450149536,2023-10-21T15:56:26.894298Z,1697903786894
0.17134025692939758,0.05467456951737404,-0.39762115478515625,2023-10-21T15:56:26.905479Z,1697903786905
0.1213216781616211,0.029399221763014793,-0.41518086194992065,2023-10-21T15:56:26.914419Z,1697903786914
0.06824344396591187,0.001064225216396153,-0.4340708553791046,2023-10-21T15:56:26.925426Z,1697903786925
0.013834928162395954,-0.028468023985624313,-0.4510984718799591,2023-10-21T15:56:26.934564Z,1697903786934
-0.04044055938720703,-0.056536965072155,-0.46240586042404175,2023-10-21T15:56:26.945694Z,1697903786945
-0.09365181624889374,-0.08101414144039154,-0.4653324782848358,2023-10-21T15:56:26.955007Z,1697903786954
-0.1427392065525055,-0.09870688617229462,-0.4584150016307831,2023-10-21T15:56:26.965777Z,1697903786965
-0.18091829121112823,-0.1053582951426506,-0.44152042269706726,2023-10-21T15:56:26.975231Z,1697903786975
-0.20113857090473175,-0.09804175049066544,-0.4159790277481079,2023-10-21T15:56:26.988940Z,1697903786988
-0.19129447638988495,-0.08420681953430176,-0.3720797300338745,2023-10-21T15:56:26.995800Z,1697903786995
-0.1822485625743866,-0.0609268918633461,-0.3414832651615143,2023-10-21T15:56:27.006396Z,1697903787006
-0.1745329350233078,-0.040972672402858734,-0.31527671217918396,2023-10-21T15:56:27.015743Z,1697903787015
-0.15298236906528473,-0.029133165255188942,-0.29771700501441956,2023-10-21T15:56:27.026731Z,1697903787026
-0.1344914585351944,-0.01915605366230011,-0.2826848328113556,2023-10-21T15:56:27.038443Z,1697903787038
-0.11187667399644852,-0.023679010570049286,-0.28295087814331055,2023-10-21T15:56:27.046849Z,1697903787046
-0.08912885934114456,-0.03418823331594467,-0.30543264746665955,2023-10-21T15:56:27.056245Z,1697903787056
-0.06824344396591187,-0.04270203784108162,-0.30317115783691406,2023-10-21T15:56:27.067141Z,1697903787067
-0.05374337360262871,-0.04323415085673332,-0.2786939740180969,2023-10-21T15:56:27.076565Z,1697903787076
-0.028468023985624313,-0.04616076871752739,-0.26153334975242615,2023-10-21T15:56:27.088763Z,1697903787088
-0.006917464081197977,-0.04855527728796005,-0.2470332831144333,2023-10-21T15:56:27.096821Z,1697903787096
0.030995558947324753,-0.040972672402858734,-0.22135885059833527,2023-10-21T15:56:27.107897Z,1697903787107
0.08686738461256027,-0.03259189799427986,-0.20512941479682922,2023-10-21T15:56:27.117021Z,1697903787116
0.12025745213031769,-0.024876264855265617,-0.18743667006492615,2023-10-21T15:56:27.128123Z,1697903787128
0.14340434968471527,-0.021550560370087624,-0.17360173165798187,2023-10-21T15:56:27.138281Z,1697903787138
0.14061075448989868,-0.019688166677951813,-0.1552438586950302,2023-10-21T15:56:27.148165Z,1697903787148
0.13768413662910461,-0.0260735172778368,-0.14114287495613098,2023-10-21T15:56:27.157559Z,1697903787157
0.13515660166740417,-0.031527671962976456,-0.12917032837867737,2023-10-21T15:56:27.168331Z,1697903787168
0.11546843498945236,-0.02700471505522728,-0.11028033494949341,2023-10-21T15:56:27.177881Z,1697903787177
0.11892716586589813,-0.028468023985624313,-0.08101414144039154,2023-10-21T15:56:27.189210Z,1697903787189
0.1366199105978012,-0.025674432516098022,-0.04576168581843376,2023-10-21T15:56:27.198126Z,1697903787198
0.14939060807228088,-0.011839505285024643,-0.0172936599701643,2023-10-21T15:56:27.209157Z,1697903787209
0.16375765204429626,0.0013302814913913608,0.009178942069411278,2023-10-21T15:56:27.221412Z,1697903787221
0.17333568632602692,0.010775280185043812,0.033124011009931564,2023-10-21T15:56:27.229267Z,1697903787229
0.17533110082149506,0.017027603462338448,0.054807599633932114,2023-10-21T15:56:27.238642Z,1697903787238
0.1712072342634201,0.02261478640139103,0.07476182281970978,2023-10-21T15:56:27.249511Z,1697903787249
0.16269342601299286,0.029000137001276016,0.09338576346635818,2023-10-21T15:56:27.258934Z,1697903787258
0.14579886198043823,0.029931334778666496,0.09484907239675522,2023-10-21T15:56:27.271991Z,1697903787271
0.12690885365009308,0.034986402839422226,0.11347301304340363,2023-10-21T15:56:27.279220Z,1697903787279
0.11081244796514511,0.039376333355903625,0.12930336594581604,2023-10-21T15:56:27.290112Z,1697903787290
0.08513801544904709,0.0351194329559803,0.13874836266040802,2023-10-21T15:56:27.299435Z,1697903787299
0.06305534392595291,0.031527671962976456,0.14686307311058044,2023-10-21T15:56:27.310512Z,1697903787310
0.03671576827764511,0.017160631716251373,0.1465970277786255,2023-10-21T15:56:27.321716Z,1697903787321
0.014100983738899231,0.004922041669487953,0.14646399021148682,2023-10-21T15:56:27.330541Z,1697903787330
-0.005321125965565443,-0.010642251931130886,0.14433553814888,2023-10-21T15:56:27.339974Z,1697903787339
-0.0219496451318264,-0.024078095331788063,0.14247314631938934,2023-10-21T15:56:27.350765Z,1697903787350
-0.02327992580831051,-0.026206545531749725,0.1471291333436966,2023-10-21T15:56:27.360223Z,1697903787360
-0.02421112358570099,-0.028068939223885536,0.15111997723579407,2023-10-21T15:56:27.372115Z,1697903787372
-0.006651407573372126,-0.015298237092792988,0.1597668081521988,2023-10-21T15:56:27.380455Z,1697903787380
0.021550560370087624,0.0022614786867052317,0.18065223097801208,2023-10-21T15:56:27.391560Z,1697903787391
0.0477571077644825,0.015298237092792988,0.17918892204761505,2023-10-21T15:56:27.400569Z,1697903787400
0.07702329754829407,0.025541406124830246,0.17320264875888824,2023-10-21T15:56:27.411820Z,1697903787411
0.1097482219338417,0.032458867877721786,0.16389068961143494,2023-10-21T15:56:27.421417Z,1697903787421
0.14673005044460297,0.036848798394203186,0.15218420326709747,2023-10-21T15:56:27.431858Z,1697903787431
0.18850089609622955,0.040972672402858734,0.1383492797613144,2023-10-21T15:56:27.441322Z,1697903787441
0.23333138227462769,0.04616076871752739,0.12251892685890198,2023-10-21T15:56:27.455219Z,1697903787455
0.2788270115852356,0.05307823419570923,0.10509224236011505,2023-10-21T15:56:27.461540Z,1697903787461
0.3228593170642853,0.0614590048789978,0.08593618869781494,2023-10-21T15:56:27.472458Z,1697903787472
0.3639650344848633,0.07117006182670593,0.0647847130894661,2023-10-21T15:56:27.481740Z,1697903787481
0.4005477726459503,0.08154625445604324,0.04177083820104599,2023-10-21T15:56:27.492785Z,1697903787492
0.4324745237827301,0.09285365045070648,0.01822485774755478,2023-10-21T15:56:27.504774Z,1697903787504
0.4622728228569031,0.10549132525920868,-0.004522957373410463,2023-10-21T15:56:27.512863Z,1697903787512
0.49473169445991516,0.12052350491285324,-0.02514232136309147,2023-10-21T15:56:27.522324Z,1697903787522
0.53410804271698,0.1383492797613144,-0.042835064232349396,2023-10-21T15:56:27.533073Z,1697903787533
0.5857229828834534,0.16096405684947968,-0.05866541340947151,2023-10-21T15:56:27.542606Z,1697903787542
0.6529021859169006,0.18956512212753296,-0.07555998861789703,2023-10-21T15:56:27.555584Z,1697903787555
0.7329851388931274,0.22162489593029022,-0.09484907239675522,2023-10-21T15:56:27.562760Z,1697903787562
0.8178570866584778,0.251822292804718,-0.11546843498945236,2023-10-21T15:56:27.573809Z,1697903787573
0.9009996652603149,0.2761664390563965,-0.1367529332637787,2023-10-21T15:56:27.583064Z,1697903787583
0.9804174900054932,0.29452434182167053,-0.16056497395038605,2023-10-21T15:56:27.594157Z,1697903787594
1.0550463199615479,0.3067629039287567,-0.18783575296401978,2023-10-21T15:56:27.605165Z,1697903787605
1.1216933727264404,0.3122170865535736,-0.21829919517040253,2023-10-21T15:56:27.614236Z,1697903787614
1.1786293983459473,0.31035467982292175,-0.2507580518722534,2023-10-21T15:56:27.623706Z,1697903787623
1.2253223657608032,0.3019739091396332,-0.2844142019748688,2023-10-21T15:56:27.634383Z,1697903787634
1.2605748176574707,0.2874738276004791,-0.318203330039978,2023-10-21T15:56:27.643943Z,1697903787643
1.2825244665145874,0.2677856683731079,-0.35106128454208374,2023-10-21T15:56:27.655021Z,1697903787654
1.2907721996307373,0.24384060502052307,-0.3819238245487213,2023-10-21T15:56:27.664088Z,1697903787664
1.2855840921401978,0.2168358862400055,-0.41039183735847473,2023-10-21T15:56:27.675315Z,1697903787675
1.268290400505066,0.1877027153968811,-0.4361993074417114,2023-10-21T15:56:27.688405Z,1697903787688
1.240620493888855,0.15763835608959198,-0.4584150016307831,2023-10-21T15:56:27.695257Z,1697903787695
1.204170823097229,0.12717491388320923,-0.47624078392982483,2023-10-21T15:56:27.704676Z,1697903787704
1.1606706380844116,0.09724357724189758,-0.48861241340637207,2023-10-21T15:56:27.715489Z,1697903787715
1.1147758960723877,0.06944069266319275,-0.49646106362342834,2023-10-21T15:56:27.724987Z,1697903787724
1.0708765983581543,0.04576168581843376,-0.500451922416687,2023-10-21T15:56:27.738306Z,1697903787738
1.0308351516723633,0.027137743309140205,-0.5003188848495483,2023-10-21T15:56:27.745159Z,1697903787745
0.9943854212760925,0.012903730385005474,-0.49579593539237976,2023-10-21T15:56:27.756298Z,1697903787756
0.9597980976104736,0.0019954221788793802,-0.4867500066757202,2023-10-21T15:56:27.765408Z,1697903787765
0.9268071055412292,-0.006784435827285051,-0.47397929430007935,2023-10-21T15:56:27.776525Z,1697903787776
0.8952794671058655,-0.013169786892831326,-0.4586810767650604,2023-10-21T15:56:27.787888Z,1697903787787
0.8648160099983215,-0.017426688224077225,-0.4417864978313446,2023-10-21T15:56:27.796514Z,1697903787796
0.834086537361145,-0.02008725143969059,-0.4236946702003479,2023-10-21T15:56:27.805987Z,1697903787805
0.8022927641868591,-0.021550560370087624,-0.4045386016368866,2023-10-21T15:56:27.816807Z,1697903787816
0.7707651257514954,-0.021550560370087624,-0.385249525308609,2023-10-21T15:56:27.826316Z,1697903787826
0.7408337593078613,-0.01942211017012596,-0.3660934865474701,2023-10-21T15:56:27.838094Z,1697903787838
0.7122327089309692,-0.015830349177122116,-0.3464052975177765,2023-10-21T15:56:27.846588Z,1697903787846
0.6833656430244446,-0.011307393200695515,-0.3243226408958435,2023-10-21T15:56:27.857523Z,1697903787857
0.6538333892822266,-0.005454154219478369,-0.29997849464416504,2023-10-21T15:56:27.866726Z,1697903787866
0.6241680979728699,0.002128450432792306,-0.27483615279197693,2023-10-21T15:56:27.877863Z,1697903787877
0.5947688817977905,0.011307393200695515,-0.25062504410743713,2023-10-21T15:56:27.888353Z,1697903787888
0.5649705529212952,0.021151475608348846,-0.22801025211811066,2023-10-21T15:56:27.897980Z,1697903787897
0.5339750051498413,0.030862530693411827,-0.20712482929229736,2023-10-21T15:56:27.907339Z,1697903787907
0.4803646504878998,0.033124011009931564,-0.18264764547348022,2023-10-21T15:56:27.918239Z,1697903787918
0.44857093691825867,0.042835064232349396,-0.1657530814409256,2023-10-21T15:56:27.927650Z,1697903787927
0.4214331805706024,0.05121583864092827,-0.15125301480293274,2023-10-21T15:56:27.938581Z,1697903787938
0.38325411081314087,0.05813330411911011,-0.13648688793182373,2023-10-21T15:56:27.947776Z,1697903787947
0.35052919387817383,0.06385350972414017,-0.12384921312332153,2023-10-21T15:56:27.958911Z,1697903787958
0.30809319019317627,0.07502787560224533,-0.10748674720525742,2023-10-21T15:56:27.970908Z,1697903787970
0.2717765271663666,0.08460590243339539,-0.09365181624889374,2023-10-21T15:56:27.978931Z,1697903787978
0.22242307662963867,0.10628949105739594,-0.07289943099021912,2023-10-21T15:56:27.988363Z,1697903787988
0.18038617074489594,0.12478040903806686,-0.05520668253302574,2023-10-21T15:56:27.999186Z,1697903787999
0.1273079365491867,0.15883561968803406,-0.032458867877721786,2023-10-21T15:56:28.008677Z,1697903788008
0.06252323091030121,0.22095976769924164,-0.0031926757656037807,2023-10-21T15:56:28.021482Z,1697903788021
0.00944499857723713,0.2584736943244934,0.018623940646648407,2023-10-21T15:56:28.028912Z,1697903788028
-0.04749105125665665,0.2973179221153259,0.040307529270648956,2023-10-21T15:56:28.039942Z,1697903788039
-0.10841794312000275,0.33722636103630066,0.06079386547207832,2023-10-21T15:56:28.049090Z,1697903788049
-0.17200540006160736,0.37846508622169495,0.0790187194943428,2023-10-21T15:56:28.060246Z,1697903788060
-0.23665708303451538,0.42169925570487976,0.09471604228019714,2023-10-21T15:56:28.071110Z,1697903788071
-0.30277207493782043,0.4669288098812103,0.10948216915130615,2023-10-21T15:56:28.080252Z,1697903788080
-0.37061643600463867,0.5130895972251892,0.12544554471969604,2023-10-21T15:56:28.089736Z,1697903788089
-0.4363323450088501,0.5597824454307556,0.14300526678562164,2023-10-21T15:56:28.100481Z,1697903788100
-0.4924702048301697,0.6070074439048767,0.16149617731571198,2023-10-21T15:56:28.109996Z,1697903788109
-0.5323786735534668,0.6538333892822266,0.17958800494670868,2023-10-21T15:56:28.121420Z,1697903788121
-0.5552595257759094,0.696801483631134,0.19674864411354065,2023-10-21T15:56:28.130186Z,1697903788130
-0.5633742213249207,0.7308566570281982,0.21151475608348846,2023-10-21T15:56:28.141295Z,1697903788141
-0.5597824454307556,0.7525402307510376,0.22082673013210297,2023-10-21T15:56:28.150308Z,1697903788150
-0.5480759739875793,0.7598568201065063,0.2217579334974289,2023-10-21T15:56:28.161549Z,1697903788161
-0.5355713367462158,0.7506778836250305,0.21284504234790802,2023-10-21T15:56:28.170846Z,1697903788170
-0.5311813950538635,0.7226089239120483,0.19355596601963043,2023-10-21T15:56:28.181541Z,1697903788181
-0.5407594442367554,0.6757830381393433,0.16455581784248352,2023-10-21T15:56:28.191037Z,1697903788190
-0.5660347938537598,0.6120625138282776,0.12664279341697693,2023-10-21T15:56:28.204802Z,1697903788204
-0.6062092781066895,0.5342410802841187,0.08114717155694962,2023-10-21T15:56:28.211296Z,1697903788211
-0.6602187156677246,0.44484615325927734,0.02979830652475357,2023-10-21T15:56:28.222241Z,1697903788222
-0.7242052555084229,0.3480016589164734,-0.025940489023923874,2023-10-21T15:56:28.231479Z,1697903788231
-0.7929807901382446,0.24836355447769165,-0.08460590243339539,2023-10-21T15:56:28.242606Z,1697903788242
-0.8622884750366211,0.15058787167072296,-0.1438034325838089,2023-10-21T15:56:28.254241Z,1697903788254
-0.9302658438682556,0.05813330411911011,-0.20073948800563812,2023-10-21T15:56:28.262620Z,1697903788262
-0.9950505495071411,-0.02540837787091732,-0.252088338136673,2023-10-21T15:56:28.272139Z,1697903788272
-1.053183913230896,-0.09564723819494247,-0.29558855295181274,2023-10-21T15:56:28.282893Z,1697903788282
-1.102404236793518,-0.1492575854063034,-0.329776793718338,2023-10-21T15:56:28.292378Z,1697903788292
-1.1432439088821411,-0.1859733611345291,-0.35372185707092285,2023-10-21T15:56:28.304821Z,1697903788304
-1.1776982545852661,-0.207523912191391,-0.36755678057670593,2023-10-21T15:56:28.312648Z,1697903788312
-1.2068313360214233,-0.21590469777584076,-0.37234580516815186,2023-10-21T15:56:28.323641Z,1697903788323
-1.2302443981170654,-0.21324412524700165,-0.36968523263931274,2023-10-21T15:56:28.332792Z,1697903788332
-1.248203158378601,-0.20233581960201263,-0.36037325859069824,2023-10-21T15:56:28.343991Z,1697903788343
-1.260441780090332,-0.18637244403362274,-0.34494200348854065,2023-10-21T15:56:28.354169Z,1697903788354
-1.265097737312317,-0.16774849593639374,-0.3244556486606598,2023-10-21T15:56:28.363941Z,1697903788363
-1.2581802606582642,-0.14792729914188385,-0.30104270577430725,2023-10-21T15:56:28.373380Z,1697903788373
-1.2360975742340088,-0.12770701944828033,-0.2765655219554901,2023-10-21T15:56:28.387966Z,1697903788387
-1.1965882778167725,-0.10841794312000275,-0.25275349617004395,2023-10-21T15:56:28.393736Z,1697903788393
-1.1388540267944336,-0.09139034152030945,-0.23133595287799835,2023-10-21T15:56:28.404687Z,1697903788404
-1.0640921592712402,-0.07822055369615555,-0.21390926837921143,2023-10-21T15:56:28.413856Z,1697903788413
-0.9736330509185791,-0.0702388659119606,-0.2014046162366867,2023-10-21T15:56:28.425012Z,1697903788424
-0.8696050047874451,-0.06757830083370209,-0.1942211091518402,2023-10-21T15:56:28.437682Z,1697903788437
-0.7549347877502441,-0.06239020451903343,-0.1778586357831955,2023-10-21T15:56:28.445069Z,1697903788445
-0.633613109588623,-0.06651407480239868,-0.18012011051177979,2023-10-21T15:56:28.454431Z,1697903788454
-0.5079014897346497,-0.07662421464920044,-0.19834497570991516,2023-10-21T15:56:28.465279Z,1697903788465
-0.38072657585144043,-0.07755541056394577,-0.20206975936889648,2023-10-21T15:56:28.474741Z,1697903788474
-0.2580746114253998,-0.07662421464920044,-0.20446427166461945,2023-10-21T15:56:28.488169Z,1697903788488
-0.1453997641801834,-0.0751609057188034,-0.20406518876552582,2023-10-21T15:56:28.494941Z,1697903788494
-0.04496351629495621,-0.07383062690496445,-0.20020736753940582,2023-10-21T15:56:28.505977Z,1697903788505
0.04522957280278206,-0.07090400159358978,-0.1931568831205368,2023-10-21T15:56:28.515103Z,1697903788515
0.12823913991451263,-0.06372048705816269,-0.18291370570659637,2023-10-21T15:56:28.526297Z,1697903788526
0.20486335456371307,-0.05241309106349945,-0.16881272196769714,2023-10-21T15:56:28.537133Z,1697903788537
0.2737719416618347,-0.03804605081677437,-0.14965666830539703,2023-10-21T15:56:28.546381Z,1697903788546
0.3353639841079712,-0.020486336201429367,-0.12531252205371857,2023-10-21T15:56:28.555761Z,1697903788555
0.39323121309280396,0.0027935912366956472,-0.09617935121059418,2023-10-21T15:56:28.566531Z,1697903788566
0.45229572057724,0.03392218053340912,-0.06305534392595291,2023-10-21T15:56:28.576065Z,1697903788576
0.5156171321868896,0.07276640087366104,-0.026605630293488503,2023-10-21T15:56:28.587855Z,1697903788587
0.5842596292495728,0.11666569113731384,0.012105561792850494,2023-10-21T15:56:28.596287Z,1697903788596
0.6570260524749756,0.16202828288078308,0.05188097804784775,2023-10-21T15:56:28.607317Z,1697903788607
0.73325115442276,0.20552849769592285,0.0911242812871933,2023-10-21T15:56:28.616420Z,1697903788616
0.8137332201004028,0.24503785371780396,0.12823913991451263,2023-10-21T15:56:28.627566Z,1697903788627
0.8991372585296631,0.2797582149505615,0.16123011708259583,2023-10-21T15:56:28.637136Z,1697903788637
0.989197313785553,0.30875834822654724,0.18889997899532318,2023-10-21T15:56:28.647646Z,1697903788647
1.081385850906372,0.3303089141845703,0.21098265051841736,2023-10-21T15:56:28.657095Z,1697903788657
1.172776222229004,0.3425475060939789,0.2282763123512268,2023-10-21T15:56:28.671060Z,1697903788671
1.2617720365524292,0.3457401692867279,0.2419782131910324,2023-10-21T15:56:28.677361Z,1697903788677
1.3489054441452026,0.34268051385879517,0.2531525790691376,2023-10-21T15:56:28.688311Z,1697903788688
1.4335113763809204,0.3360291123390198,0.26219847798347473,2023-10-21T15:56:28.697551Z,1697903788697
1.511997938156128,0.3265841007232666,0.26871687173843384,2023-10-21T15:56:28.708669Z,1697903788708
1.578245997428894,0.3138134181499481,0.2727077007293701,2023-10-21T15:56:28.720606Z,1697903788720
1.6260031461715698,0.29718488454818726,0.274304062128067,2023-10-21T15:56:28.728736Z,1697903788728
1.651544451713562,0.27749672532081604,0.274304062128067,2023-10-21T15:56:28.738143Z,1697903788738
1.6554023027420044,0.2568773627281189,0.2733728587627411,2023-10-21T15:56:28.748929Z,1697903788748
1.6417003870010376,0.2387855350971222,0.27297377586364746,2023-10-21T15:56:28.758429Z,1697903788758
1.617356300354004,0.22734510898590088,0.274570107460022,2023-10-21T15:56:28.770938Z,1697903788770
1.5891543626785278,0.2250836342573166,0.2782948911190033,2023-10-21T15:56:28.778616Z,1697903788778
1.561484456062317,0.23173503577709198,0.2838820815086365,2023-10-21T15:56:28.789652Z,1697903788789
1.5352778434753418,0.24463877081871033,0.29119861125946045,2023-10-21T15:56:28.798803Z,1697903788798
1.511997938156128,0.2617993950843811,0.3013087511062622,2023-10-21T15:56:28.809998Z,1697903788809
1.4959015846252441,0.2837490439414978,0.31634095311164856,2023-10-21T15:56:28.820475Z,1697903788820
1.4935070276260376,0.31208404898643494,0.337492436170578,2023-10-21T15:56:28.830024Z,1697903788830
1.510933756828308,0.3481346666812897,0.3655613660812378,2023-10-21T15:56:28.839450Z,1697903788839
1.5513743162155151,0.3919009268283844,0.4005477726459503,2023-10-21T15:56:28.853940Z,1697903788853
1.6152278184890747,0.44152042269706726,0.4419195353984833,2023-10-21T15:56:28.859746Z,1697903788859
1.7022281885147095,0.49473169445991516,0.48821333050727844,2023-10-21T15:56:28.870855Z,1697903788870
1.8117103576660156,0.548209011554718,0.537699818611145,2023-10-21T15:56:28.880021Z,1697903788879
1.9416788816452026,0.5976954698562622,0.5885165333747864,2023-10-21T15:56:28.891013Z,1697903788890
2.088275909423828,0.637736976146698,0.6395993828773499,2023-10-21T15:56:28.900103Z,1697903788900
2.2467124462127686,0.6631453633308411,0.6912142634391785,2023-10-21T15:56:28.911286Z,1697903788911
2.412731647491455,0.6719251871109009,0.7452237010002136,2023-10-21T15:56:28.920593Z,1697903788920
2.5828745365142822,0.6639435291290283,0.8029579520225525,2023-10-21T15:56:28.931311Z,1697903788931
2.7516872882843018,0.6398653984069824,0.8642839193344116,2023-10-21T15:56:28.940796Z,1697903788940
2.910655975341797,0.5994248390197754,0.9269401431083679,2023-10-21T15:56:28.954194Z,1697903788954
3.0482070446014404,0.5427548885345459,0.9876009821891785,2023-10-21T15:56:28.960994Z,1697903788960
3.154097557067871,0.47224992513656616,1.0426746606826782,2023-10-21T15:56:28.972159Z,1697903788972
3.2211437225341797,0.39163488149642944,1.0888354778289795,2023-10-21T15:56:28.981222Z,1697903788981
3.244290590286255,0.30543264746665955,1.1244869232177734,2023-10-21T15:56:28.992425Z,1697903788992
3.2208776473999023,0.21803313493728638,1.148698091506958,2023-10-21T15:56:29.003774Z,1697903789003
3.1527671813964844,0.13435843586921692,1.160537600517273,2023-10-21T15:56:29.012435Z,1697903789012
3.0484731197357178,0.057867247611284256,1.1585421562194824,2023-10-21T15:56:29.021819Z,1697903789021
2.919435739517212,-0.01050922367721796,1.141913652420044,2023-10-21T15:56:29.032610Z,1697903789032
2.775233268737793,-0.07210125774145126,1.1131795644760132,2023-10-21T15:56:29.042202Z,1697903789042
2.623448133468628,-0.1283721625804901,1.0765968561172485,2023-10-21T15:56:29.054113Z,1697903789054
2.471130847930908,-0.18065223097801208,1.0368213653564453,2023-10-21T15:56:29.062336Z,1697903789062
2.3263962268829346,-0.2293405383825302,0.9963808655738831,2023-10-21T15:56:29.073389Z,1697903789073
2.1949644088745117,-0.2756343185901642,0.9562063813209534,2023-10-21T15:56:29.082515Z,1697903789082
2.0785648822784424,-0.3194005787372589,0.9170960783958435,2023-10-21T15:56:29.093755Z,1697903789093
1.9769313335418701,-0.359575092792511,0.8799812197685242,2023-10-21T15:56:29.103832Z,1697903789103
1.8903300762176514,-0.39376333355903625,0.84592604637146,2023-10-21T15:56:29.113735Z,1697903789113
1.8186278343200684,-0.42130014300346375,0.8151965141296387,2023-10-21T15:56:29.123163Z,1697903789123
1.7584991455078125,-0.4439149498939514,0.7872605919837952,2023-10-21T15:56:29.137719Z,1697903789137
1.7047557830810547,-0.46413522958755493,0.7619852423667908,2023-10-21T15:56:29.143408Z,1697903789143
1.6534068584442139,-0.4835573434829712,0.7393704652786255,2023-10-21T15:56:29.154403Z,1697903789154
1.6024571657180786,-0.5013831257820129,0.7183520197868347,2023-10-21T15:56:29.163637Z,1697903789163
1.5508421659469604,-0.5162822604179382,0.696801483631134,2023-10-21T15:56:29.174712Z,1697903789174
1.496965765953064,-0.5269244909286499,0.6729894280433655,2023-10-21T15:56:29.186889Z,1697903789186
1.4401627779006958,-0.5326447486877441,0.6465167999267578,2023-10-21T15:56:29.194753Z,1697903789194
1.3816304206848145,-0.5334429144859314,0.6167185306549072,2023-10-21T15:56:29.204186Z,1697903789204
1.3234970569610596,-0.5297181010246277,0.5831954479217529,2023-10-21T15:56:29.215059Z,1697903789215
1.2665610313415527,-0.5225346088409424,0.5452824234962463,2023-10-21T15:56:29.224558Z,1697903789224
1.209625005722046,-0.5126904845237732,0.50324547290802,2023-10-21T15:56:29.237353Z,1697903789237
1.148698091506958,-0.5001858472824097,0.45695170760154724,2023-10-21T15:56:29.244704Z,1697903789244
1.0788582563400269,-0.48448851704597473,0.4062679708003998,2023-10-21T15:56:29.255787Z,1697903789255
0.9966469407081604,-0.46347007155418396,0.3497309982776642,2023-10-21T15:56:29.264939Z,1697903789264
0.9019308686256409,-0.4346029758453369,0.28454720973968506,2023-10-21T15:56:29.276059Z,1697903789276
0.7973707318305969,-0.3957587480545044,0.20832209289073944,2023-10-21T15:56:29.286840Z,1697903789286
0.6861591935157776,-0.34560713171958923,0.12092258781194687,2023-10-21T15:56:29.296368Z,1697903789296
0.570956826210022,-0.2828178405761719,0.02474323660135269,2023-10-21T15:56:29.305501Z,1697903789305
0.4532269239425659,-0.2068587690591812,-0.07728935778141022,2023-10-21T15:56:29.316256Z,1697903789316
0.3360291123390198,-0.11706477403640747,-0.18291370570659637,2023-10-21T15:56:29.325858Z,1697903789325
0.22268912196159363,-0.01476612500846386,-0.289336234331131,2023-10-21T15:56:29.336703Z,1697903789336
0.11653266102075577,0.09631238132715225,-0.3928321301937103,2023-10-21T15:56:29.346015Z,1697903789345
0.01888999715447426,0.21084962785243988,-0.4895435869693756,2023-10-21T15:56:29.356967Z,1697903789356
-0.0707709789276123,0.32299235463142395,-0.5765439867973328,2023-10-21T15:56:29.366175Z,1697903789366
-0.1525832861661911,0.4282176196575165,-0.6510397791862488,2023-10-21T15:56:29.377285Z,1697903789377
-0.22521665692329407,0.5246630311012268,-0.7095721364021301,2023-10-21T15:56:29.386824Z,1697903789386
-0.2844142019748688,0.6129937171936035,-0.7504118084907532,2023-10-21T15:56:29.397415Z,1697903789397
-0.32365748286247253,0.6982647776603699,-0.7735586762428284,2023-10-21T15:56:29.406853Z,1697903789406
-0.33456578850746155,0.7871275544166565,-0.7796779870986938,2023-10-21T15:56:29.420350Z,1697903789420
-0.311152845621109,0.885568380355835,-0.7686366438865662,2023-10-21T15:56:29.427111Z,1697903789427
-0.25115716457366943,0.9962478280067444,-0.7392374277114868,2023-10-21T15:56:29.437990Z,1697903789437
-0.1564411073923111,1.1170374155044556,-0.6912142634391785,2023-10-21T15:56:29.447280Z,1697903789447
-0.029266193509101868,1.2435472011566162,-0.6258974671363831,2023-10-21T15:56:29.458351Z,1697903789458
0.12491343170404434,1.3696578741073608,-0.5467457175254822,2023-10-21T15:56:29.470149Z,1697903789470
0.29638671875,1.4889841079711914,-0.4566856324672699,2023-10-21T15:56:29.478407Z,1697903789478
0.4715847969055176,1.5966038703918457,-0.35824480652809143,2023-10-21T15:56:29.487899Z,1697903789487
0.6388011574745178,1.6890584230422974,-0.25488194823265076,2023-10-21T15:56:29.498595Z,1697903789498
0.7884578704833984,1.7639533281326294,-0.15085391700267792,2023-10-21T15:56:29.508189Z,1697903789508
0.9095134735107422,1.8192930221557617,-0.050683725625276566,2023-10-21T15:56:29.520248Z,1697903789520
0.9921239614486694,1.8533482551574707,0.04110569879412651,2023-10-21T15:56:29.528416Z,1697903789528
1.0311012268066406,1.8662519454956055,0.11959230899810791,2023-10-21T15:56:29.539343Z,1697903789539
1.0232524871826172,1.859999656677246,0.1799870878458023,2023-10-21T15:56:29.548550Z,1697903789548
0.9659174084663391,1.8379169702529907,0.21816617250442505,2023-10-21T15:56:29.559708Z,1697903789559
0.8609582185745239,1.804792881011963,0.23279926180839539,2023-10-21T15:56:29.570032Z,1697903789569
0.7168887257575989,1.7648844718933105,0.22534969449043274,2023-10-21T15:56:29.579753Z,1697903789579
0.5448833107948303,1.7229806184768677,0.1992761790752411,2023-10-21T15:56:29.589211Z,1697903789589
0.35531818866729736,1.6830722093582153,0.15777139365673065,2023-10-21T15:56:29.603902Z,1697903789603
0.15550990402698517,1.6479527950286865,0.10296379029750824,2023-10-21T15:56:29.609538Z,1697903789609
-0.049752529710531235,1.618686556816101,0.03432126343250275,2023-10-21T15:56:29.620702Z,1697903789620
-0.2600700259208679,1.596869945526123,-0.052945204079151154,2023-10-21T15:56:29.629698Z,1697903789629
-0.47770410776138306,1.5852965116500854,-0.16708335280418396,2023-10-21T15:56:29.640743Z,1697903789640
-0.7123657464981079,1.5876909494400024,-0.3209969401359558,2023-10-21T15:56:29.653292Z,1697903789653
-0.9845413565635681,1.6080442667007446,-0.5291860103607178,2023-10-21T15:56:29.660741Z,1697903789660
-1.3088639974594116,1.6500811576843262,-0.7998982667922974,2023-10-21T15:56:29.670228Z,1697903789670
-1.680145502090454,1.7167283296585083,-1.1259503364562988,2023-10-21T15:56:29.681043Z,1697903789681
-2.0717804431915283,1.8090498447418213,-1.4811354875564575,2023-10-21T15:56:29.690548Z,1697903789690
-2.4541032314300537,1.923720121383667,-1.8353893756866455,2023-10-21T15:56:29.703946Z,1697903789703
-2.816472053527832,2.0507619380950928,-2.175143241882324,2023-10-21T15:56:29.710779Z,1697903789710
-3.1732535362243652,2.176473617553711,-2.5119705200195312,2023-10-21T15:56:29.721688Z,1697903789721
-3.572338104248047,2.282496929168701,-2.8884403705596924,2023-10-21T15:56:29.730941Z,1697903789730
-4.103253364562988,2.3361074924468994,-3.3809103965759277,2023-10-21T15:56:29.742009Z,1697903789741
-4.920977592468262,2.260148286819458,-4.116955280303955,2023-10-21T15:56:29.753180Z,1697903789753
-5.834481716156006,1.886073112487793,-5.0227437019348145,2023-10-21T15:56:29.762100Z,1697903789762
-7.295130729675293,1.0789912939071655,-6.45758581161499,2023-10-21T15:56:29.771632Z,1697903789771
-8.618361473083496,-0.172404482960701,-8.089974403381348,2023-10-21T15:56:29.782341Z,1697903789782
-9.16617202758789,-1.5057456493377686,-9.475861549377441,2023-10-21T15:56:29.791934Z,1697903789791
-8.758706092834473,-2.509310007095337,-10.249154090881348,2023-10-21T15:56:29.803778Z,1697903789803
-7.727472305297852,-2.761531352996826,-10.347861289978027,2023-10-21T15:56:29.812044Z,1697903789812
-6.464237213134766,-2.518488883972168,-9.916716575622559,2023-10-21T15:56:29.823079Z,1697903789823
-5.213240146636963,-2.312960386276245,-9.17136001586914,2023-10-21T15:56:29.832273Z,1697903789832
-4.0847625732421875,-2.2791712284088135,-8.299759864807129,2023-10-21T15:56:29.843395Z,1697903789843
-3.1015512943267822,-2.390249729156494,-7.416452407836914,2023-10-21T15:56:29.853154Z,1697903789853
-2.2385976314544678,-2.482438325881958,-6.563476085662842,2023-10-21T15:56:29.863439Z,1697903789863
-1.4562591314315796,-2.556135892868042,-5.752270221710205,2023-10-21T15:56:29.872932Z,1697903789872
-0.7323199510574341,-2.613737106323242,-5.002922534942627,2023-10-21T15:56:29.887144Z,1697903789887
-0.07117006182670593,-2.69315505027771,-4.496484756469727,2023-10-21T15:56:29.893166Z,1697903789893
0.5100299119949341,-2.716701030731201,-3.839458465576172,2023-10-21T15:56:29.904091Z,1697903789904
1.003697395324707,-2.7298707962036133,-3.2727584838867188,2023-10-21T15:56:29.913387Z,1697903789913
1.4163507223129272,-2.7544808387756348,-2.8115499019622803,2023-10-21T15:56:29.924479Z,1697903789924
1.7491871118545532,-2.7978479862213135,-2.4590253829956055,2023-10-21T15:56:29.936815Z,1697903789936
1.9890369176864624,-2.8382885456085205,-2.17447829246521,2023-10-21T15:56:29.944562Z,1697903789944
2.1213998794555664,-2.8311052322387695,-1.8751648664474487,2023-10-21T15:56:29.953947Z,1697903789953
2.1438817977905273,-2.737187147140503,-1.4896492958068848,2023-10-21T15:56:29.964795Z,1697903789964
2.0688538551330566,-2.541369915008545,-0.9958487749099731,2023-10-21T15:56:29.974254Z,1697903789974
1.9124127626419067,-2.2528316974639893,-0.4209010601043701,2023-10-21T15:56:29.986764Z,1697903789986
1.6873290538787842,-1.8935227394104004,0.1843770146369934,2023-10-21T15:56:29.994460Z,1697903789994
1.40065336227417,-1.4798051118850708,0.7831367254257202,2023-10-21T15:56:30.005490Z,1697903790005
1.0626288652420044,-1.0248489379882812,1.3562220335006714,2023-10-21T15:56:30.014685Z,1697903790014
0.697333574295044,-0.549140214920044,1.8888667821884155,2023-10-21T15:56:30.025749Z,1697903790025
0.34041905403137207,-0.08739949762821198,2.360185384750366,2023-10-21T15:56:30.036658Z,1697903790036
0.024344151839613914,0.32512080669403076,2.74876070022583,2023-10-21T15:56:30.045810Z,1697903790045
-0.22588180005550385,0.6668701171875,3.0506014823913574,2023-10-21T15:56:30.055293Z,1697903790055
-0.39203396439552307,0.9310640096664429,3.2788779735565186,2023-10-21T15:56:30.070218Z,1697903790070
-0.470254510641098,1.116904377937317,3.440507173538208,2023-10-21T15:56:30.075631Z,1697903790075
-0.47570866346359253,1.2271846532821655,3.52777361869812,2023-10-21T15:56:30.086952Z,1697903790086
-0.4379286766052246,1.2738776206970215,3.5340259075164795,2023-10-21T15:56:30.095808Z,1697903790095
-0.38445135951042175,1.2770702838897705,3.4676449298858643,2023-10-21T15:56:30.106730Z,1697903790106
-0.3331024944782257,1.2575150728225708,3.347919464111328,2023-10-21T15:56:30.115914Z,1697903790115
-0.29452434182167053,1.2289140224456787,3.1924095153808594,2023-10-21T15:56:30.127066Z,1697903790127
-0.270446240901947,1.195523977279663,3.012289524078369,2023-10-21T15:56:30.136599Z,1697903790136
-0.25647827982902527,1.155482530593872,2.8135454654693604,2023-10-21T15:56:30.147122Z,1697903790147
-0.24503785371780396,1.1040006875991821,2.6007003784179688,2023-10-21T15:56:30.156628Z,1697903790156
-0.22973962128162384,1.038151741027832,2.3784103393554688,2023-10-21T15:56:30.170002Z,1697903790169
-0.2063266634941101,0.9592660069465637,2.152794599533081,2023-10-21T15:56:30.176838Z,1697903790176
-0.17160631716251373,0.8714674115180969,1.9298393726348877,2023-10-21T15:56:30.187797Z,1697903790187
-0.1267758309841156,0.7798110246658325,1.7143337726593018,2023-10-21T15:56:30.197052Z,1697903790197
-0.0746287927031517,0.6885536909103394,1.5098695755004883,2023-10-21T15:56:30.208152Z,1697903790208
-0.017958801239728928,0.6023514866828918,1.319107174873352,2023-10-21T15:56:30.219537Z,1697903790219
0.04243598133325577,0.5257272720336914,1.1453723907470703,2023-10-21T15:56:30.228181Z,1697903790228
0.10668858140707016,0.46293798089027405,0.993188202381134,2023-10-21T15:56:30.237658Z,1697903790237
0.17519807815551758,0.41637811064720154,0.8666784167289734,2023-10-21T15:56:30.248431Z,1697903790248
0.24995990097522736,0.3863137662410736,0.7662421464920044,2023-10-21T15:56:30.257947Z,1697903790257
0.3357630670070648,0.3716806471347809,0.6894848942756653,2023-10-21T15:56:30.269836Z,1697903790269
0.4356671869754791,0.37021735310554504,0.6317507028579712,2023-10-21T15:56:30.278169Z,1697903790278
0.5484750866889954,0.37779995799064636,0.5893146991729736,2023-10-21T15:56:30.289188Z,1697903790289
0.6678013205528259,0.3901715576648712,0.5592503547668457,2023-10-21T15:56:30.298307Z,1697903790298
0.785531222820282,0.40533676743507385,0.5391631126403809,2023-10-21T15:56:30.309481Z,1697903790309
0.8956785202026367,0.42409375309944153,0.5275896787643433,2023-10-21T15:56:30.319573Z,1697903790319
0.9942523837089539,0.4483048617839813,0.523199737071991,2023-10-21T15:56:30.329511Z,1697903790329
1.0779271125793457,0.4791674017906189,0.5241309404373169,2023-10-21T15:56:30.338971Z,1697903790338
1.1421797275543213,0.5156171321868896,0.5265254378318787,2023-10-21T15:56:30.353609Z,1697903790353
1.180092692375183,0.5551264882087708,0.5247960686683655,2023-10-21T15:56:30.359247Z,1697903790359
1.1856799125671387,0.5950348973274231,0.5132226347923279,2023-10-21T15:56:30.370151Z,1697903790370
1.152289867401123,0.6310855746269226,0.4840894341468811,2023-10-21T15:56:30.379405Z,1697903790379
1.0719408988952637,0.6560948491096497,0.42901578545570374,2023-10-21T15:56:30.390473Z,1697903790390
0.937316358089447,0.6623471975326538,0.3392217755317688,2023-10-21T15:56:30.402773Z,1697903790402
0.7430952787399292,0.6439892649650574,0.20818905532360077,2023-10-21T15:56:30.410555Z,1697903790410
0.49047479033470154,0.597296416759491,0.03285795450210571,2023-10-21T15:56:30.420048Z,1697903790420
0.18756969273090363,0.5194749236106873,-0.1861063838005066,2023-10-21T15:56:30.430756Z,1697903790430
-0.15018878877162933,0.4105248749256134,-0.4436488747596741,2023-10-21T15:56:30.440317Z,1697903790440
-0.503644585609436,0.27417102456092834,-0.7320539355278015,2023-10-21T15:56:30.453231Z,1697903790453
-0.8511140942573547,0.11945927888154984,-1.0384176969528198,2023-10-21T15:56:30.460523Z,1697903790460
-1.1707807779312134,-0.042169924825429916,-1.3461118936538696,2023-10-21T15:56:30.471449Z,1697903790471
-1.442291259765625,-0.198078915476799,-1.6354480981826782,2023-10-21T15:56:30.480732Z,1697903790480
-1.6512784957885742,-0.3376254439353943,-1.8884676694869995,2023-10-21T15:56:30.491810Z,1697903790491
-1.7925543785095215,-0.45415809750556946,-2.090803384780884,2023-10-21T15:56:30.502722Z,1697903790502
-1.868646502494812,-0.5452824234962463,-2.2339417934417725,2023-10-21T15:56:30.511906Z,1697903790511
-1.8843437433242798,-0.5428878664970398,-2.314689874649048,2023-10-21T15:56:30.521341Z,1697903790521
-1.843770146369934,-0.5241309404373169,-2.3331806659698486,2023-10-21T15:56:30.532095Z,1697903790532
-1.7547743320465088,-0.555924654006958,-2.293006181716919,2023-10-21T15:56:30.541615Z,1697903790541
-1.6307921409606934,-0.5615118145942688,-2.200152635574341,2023-10-21T15:56:30.552969Z,1697903790552
-1.485924482345581,-0.5454154014587402,-2.0630006790161133,2023-10-21T15:56:30.561838Z,1697903790561
-1.3293503522872925,-0.5114932656288147,-1.8912612199783325,2023-10-21T15:56:30.572855Z,1697903790572
-1.1658587455749512,-0.4626719057559967,-1.6966410875320435,2023-10-21T15:56:30.581963Z,1697903790581
-1.0035643577575684,-0.40307530760765076,-1.4779428243637085,2023-10-21T15:56:30.593167Z,1697903790593
-0.8419351577758789,-0.3369603157043457,-1.2733454704284668,2023-10-21T15:56:30.602643Z,1697903790602
-0.6868243217468262,-0.270712286233902,-1.0888354778289795,2023-10-21T15:56:30.613159Z,1697903790613
-0.5478099584579468,-0.20832209289073944,-0.900467574596405,2023-10-21T15:56:30.622718Z,1697903790622
-0.4203689694404602,-0.14792729914188385,-0.7250034213066101,2023-10-21T15:56:30.636416Z,1697903790636
-0.3039693236351013,-0.08739949762821198,-0.5620439648628235,2023-10-21T15:56:30.642928Z,1697903790642
-0.20060645043849945,-0.025674432516098022,-0.4094606637954712,2023-10-21T15:56:30.653823Z,1697903790653
-0.11094547808170319,0.03857816383242607,-0.2640608847141266,2023-10-21T15:56:30.663126Z,1697903790663
-0.03272492438554764,0.10695463418960571,-0.12331710010766983,2023-10-21T15:56:30.674216Z,1697903790674
0.0395093597471714,0.1789228618144989,0.012637674808502197,2023-10-21T15:56:30.685813Z,1697903790685
0.11134456098079681,0.2523544132709503,0.14021167159080505,2023-10-21T15:56:30.694242Z,1697903790694
0.18637244403362274,0.322726309299469,0.2542167901992798,2023-10-21T15:56:30.703712Z,1697903790703
0.2667214572429657,0.3848504424095154,0.34986403584480286,2023-10-21T15:56:30.714520Z,1697903790714
0.3534558117389679,0.43274056911468506,0.4219653010368347,2023-10-21T15:56:30.723997Z,1697903790723
0.4463094472885132,0.45974528789520264,0.4654655158519745,2023-10-21T15:56:30.736207Z,1697903790736
0.5452824234962463,0.4617407023906708,0.47823619842529297,2023-10-21T15:56:30.744205Z,1697903790744
0.6511728167533875,0.43779563903808594,0.4621398150920868,2023-10-21T15:56:30.755190Z,1697903790755
0.7651779055595398,0.39096975326538086,0.4226304292678833,2023-10-21T15:56:30.764383Z,1697903790764
0.8868986964225769,0.3255198895931244,0.3654283285140991,2023-10-21T15:56:30.775490Z,1697903790775
1.011945128440857,0.24556997418403625,0.29625368118286133,2023-10-21T15:56:30.785686Z,1697903790785
1.1333998441696167,0.15550990402698517,0.2200285643339157,2023-10-21T15:56:30.795648Z,1697903790795
1.2431480884552002,0.06026175245642662,0.14127589762210846,2023-10-21T15:56:30.805050Z,1697903790805
1.3326760530471802,-0.03525245934724808,0.06451865285634995,2023-10-21T15:56:30.819554Z,1697903790819
1.3938689231872559,-0.1262437105178833,-0.0047890134155750275,2023-10-21T15:56:30.825399Z,1697903790825
1.4216718673706055,-0.20845511555671692,-0.06252323091030121,2023-10-21T15:56:30.836255Z,1697903790836
1.41608464717865,-0.2760334014892578,-0.10469315201044083,2023-10-21T15:56:30.845507Z,1697903790845
1.3801671266555786,-0.32179510593414307,-0.12744097411632538,2023-10-21T15:56:30.856582Z,1697903790856
1.3173778057098389,-0.3396208584308624,-0.12637674808502197,2023-10-21T15:56:30.869202Z,1697903790869
1.2322397232055664,-0.326185017824173,-0.09910597652196884,2023-10-21T15:56:30.876642Z,1697903790876
1.1333998441696167,-0.2805563807487488,-0.04749105125665665,2023-10-21T15:56:30.886096Z,1697903790886
1.0297709703445435,-0.20499637722969055,0.025275349617004395,2023-10-21T15:56:30.896875Z,1697903790896
0.9303988814353943,-0.10442709922790527,0.11546843498945236,2023-10-21T15:56:30.906395Z,1697903790906
0.8451278209686279,0.014500068500638008,0.2200285643339157,2023-10-21T15:56:30.919298Z,1697903790919
0.7856642603874207,0.1432713270187378,0.3346988260746002,2023-10-21T15:56:30.926562Z,1697903790926
0.7638476490974426,0.27576735615730286,0.45429113507270813,2023-10-21T15:56:30.937588Z,1697903790937
0.7868615388870239,0.40586888790130615,0.5724201202392578,2023-10-21T15:56:30.946784Z,1697903790946
0.855504035949707,0.5278556942939758,0.6827004551887512,2023-10-21T15:56:30.957872Z,1697903790957
0.9633898735046387,0.6350764036178589,0.7792789340019226,2023-10-21T15:56:30.968993Z,1697903790968
1.100009799003601,0.722342848777771,0.8577654957771301,2023-10-21T15:56:30.977955Z,1697903790977
1.2512627840042114,0.7536044716835022,0.8757243156433105,2023-10-21T15:56:30.987406Z,1697903790987
1.401052474975586,0.7634485363960266,0.88144451379776,2023-10-21T15:56:30.998164Z,1697903790998
1.5348788499832153,0.7824715971946716,0.9173621535301208,2023-10-21T15:56:31.007724Z,1697903791007
1.6430307626724243,0.773691713809967,0.937715470790863,2023-10-21T15:56:31.019275Z,1697903791019
1.7203201055526733,0.7421640753746033,0.9456971287727356,2023-10-21T15:56:31.027941Z,1697903791027
1.763687252998352,0.6937417984008789,0.9452980756759644,2023-10-21T15:56:31.038894Z,1697903791038
1.772866129875183,0.6361406445503235,0.9403759837150574,2023-10-21T15:56:31.048044Z,1697903791048
1.7515816688537598,0.5778743028640747,0.9342567324638367,2023-10-21T15:56:31.059193Z,1697903791059
1.7052879333496094,0.5277226567268372,0.9285364747047424,2023-10-21T15:56:31.068892Z,1697903791068
1.639704942703247,0.4922041594982147,0.9226832389831543,2023-10-21T15:56:31.079239Z,1697903791079
1.559622049331665,0.4737132489681244,0.9153667092323303,2023-10-21T15:56:31.088724Z,1697903791088
1.4690299034118652,0.4710526764392853,0.9056556820869446,2023-10-21T15:56:31.102597Z,1697903791102
1.3729835748672485,0.4808967709541321,0.8946143388748169,2023-10-21T15:56:31.108980Z,1697903791108
1.278666615486145,0.49912163615226746,0.8837060332298279,2023-10-21T15:56:31.119944Z,1697903791119
1.1972533464431763,0.5238648653030396,0.8747931122779846,2023-10-21T15:56:31.129148Z,1697903791129
1.1421797275543213,0.5547273755073547,0.8704031705856323,2023-10-21T15:56:31.140301Z,1697903791140
1.1239548921585083,0.5922413468360901,0.8734628558158875,2023-10-21T15:56:31.152230Z,1697903791152
1.1488311290740967,0.6361406445503235,0.8858344554901123,2023-10-21T15:56:31.160304Z,1697903791160
1.2178727388381958,0.6842967867851257,0.9065868854522705,2023-10-21T15:56:31.169760Z,1697903791169
1.328286051750183,0.7333841919898987,0.932793378829956,2023-10-21T15:56:31.180498Z,1697903791180
1.470493197441101,0.7784807682037354,0.9605962634086609,2023-10-21T15:56:31.190064Z,1697903791190
1.6291958093643188,0.8138662576675415,0.9866697788238525,2023-10-21T15:56:31.202613Z,1697903791202
1.7888295650482178,0.8339534997940063,1.0078213214874268,2023-10-21T15:56:31.210277Z,1697903791210
1.9371559619903564,0.8355498313903809,1.0211241245269775,2023-10-21T15:56:31.221230Z,1697903791221
2.0630006790161133,0.8159946799278259,1.024183750152588,2023-10-21T15:56:31.230457Z,1697903791230
2.1517302989959717,0.7731596231460571,1.0152708292007446,2023-10-21T15:56:31.241554Z,1697903791241
2.1871159076690674,0.7061134576797485,0.9938533306121826,2023-10-21T15:56:31.252128Z,1697903791252
2.157982587814331,0.6173836588859558,0.960064172744751,2023-10-21T15:56:31.261589Z,1697903791261
2.0645968914031982,0.5130895972251892,0.9139034152030945,2023-10-21T15:56:31.271088Z,1697903791271
1.915073275566101,0.4018780589103699,0.855504035949707,2023-10-21T15:56:31.285526Z,1697903791285
1.692783236503601,0.3204648196697235,0.763182520866394,2023-10-21T15:56:31.291375Z,1697903791291
1.4698280096054077,0.21829919517040253,0.6894848942756653,2023-10-21T15:56:31.302389Z,1697903791302
1.2583132982254028,0.10961519926786423,0.6344112753868103,2023-10-21T15:56:31.311554Z,1697903791311
1.0171332359313965,0.06345442682504654,0.552731990814209,2023-10-21T15:56:31.322568Z,1697903791322
0.7944441437721252,0.05400943011045456,0.47677290439605713,2023-10-21T15:56:31.335380Z,1697903791335
0.6056771874427795,0.08420681953430176,0.41291937232017517,2023-10-21T15:56:31.342673Z,1697903791342
0.46852514147758484,0.15324842929840088,0.36702466011047363,2023-10-21T15:56:31.352088Z,1697903791352
0.4017450213432312,0.25927186012268066,0.34321263432502747,2023-10-21T15:56:31.362936Z,1697903791362
0.4203689694404602,0.3946945369243622,0.3442768454551697,2023-10-21T15:56:31.372465Z,1697903791372
0.5319795608520508,0.47770410776138306,0.37287789583206177,2023-10-21T15:56:31.385843Z,1697903791385
