ACC_X,ACC_Y,ACC_Z,DATE,UNIX_TIMESTAMP
-0.16941523551940918,0.26745128631591797,0.33341550827026367,2023-10-21T15:55:09.937115Z,1697903709937
-0.4192500114440918,0.6476049423217773,0.8123564720153809,2023-10-21T15:55:09.958339Z,1697903709958
-0.7689776420593262,1.1009817123413086,1.3296589851379395,2023-10-21T15:55:09.977625Z,1697903709977
-0.9935262203216553,1.4496088027954102,1.7758517265319824,2023-10-21T15:55:09.997980Z,1697903709997
-0.933211088180542,1.56477689743042,1.9763708114624023,2023-10-21T15:55:10.018213Z,1697903710018
-0.6988570690155029,1.5149874687194824,1.9122428894042969,2023-10-21T15:55:10.038370Z,1697903710038
-0.40275073051452637,1.2091398239135742,1.434483528137207,2023-10-21T15:55:10.058690Z,1697903710058
-0.15247786045074463,0.5240535736083984,0.5308151245117188,2023-10-21T15:55:10.078989Z,1697903710078
0.04274487495422363,-0.1504206657409668,-0.12670135498046875,2023-10-21T15:55:10.099261Z,1697903710099
0.1949007511138916,-0.6492781639099121,-0.4853549003601074,2023-10-21T15:55:10.119487Z,1697903710119
-0.30647778511047363,0.6658525466918945,0.7164163589477539,2023-10-21T15:55:10.142006Z,1697903710141
-0.21989035606384277,0.5025458335876465,0.5202293395996094,2023-10-21T15:55:10.160097Z,1697903710160
-0.11592793464660645,0.2789897918701172,0.2806124687194824,2023-10-21T15:55:10.180394Z,1697903710180
-0.003677845001220703,0.0092315673828125,0.009063720703125,2023-10-21T15:55:10.200661Z,1697903710200
0.1081993579864502,-0.27459144592285156,-0.2633204460144043,2023-10-21T15:55:10.220905Z,1697903710220
0.2235088348388672,-0.5495595932006836,-0.5164833068847656,2023-10-21T15:55:10.241839Z,1697903710241
0.3414788246154785,-0.7803802490234375,-0.7256069183349609,2023-10-21T15:55:10.261438Z,1697903710261
0.4423089027404785,-0.9288654327392578,-0.8720512390136719,2023-10-21T15:55:10.281725Z,1697903710281
0.5212113857269287,-1.0046076774597168,-0.9699301719665527,2023-10-21T15:55:10.301934Z,1697903710301
0.5714313983917236,-1.018592357635498,-1.021472454071045,2023-10-21T15:55:10.325110Z,1697903710325
0.5917294025421143,-0.990117073059082,-1.0299224853515625,2023-10-21T15:55:10.342469Z,1697903710342
0.5789759159088135,-0.9275431632995605,-0.9934573173522949,2023-10-21T15:55:10.362777Z,1697903710362
0.5420942306518555,-0.8519148826599121,-0.929532527923584,2023-10-21T15:55:10.383015Z,1697903710382
0.4926462173461914,-0.7757301330566406,-0.8532495498657227,2023-10-21T15:55:10.403251Z,1697903710403
0.4398500919342041,-0.7061920166015625,-0.7739748954772949,2023-10-21T15:55:10.425071Z,1697903710425
0.3809013366699219,-0.6274948120117188,-0.6776862144470215,2023-10-21T15:55:10.443831Z,1697903710443
0.3058624267578125,-0.5193543434143066,-0.548342227935791,2023-10-21T15:55:10.464092Z,1697903710464
0.21187615394592285,-0.3696727752685547,-0.38105344772338867,2023-10-21T15:55:10.484298Z,1697903710484
0.09945225715637207,-0.17847013473510742,-0.18044233322143555,2023-10-21T15:55:10.504526Z,1697903710504
-0.015714645385742188,0.029244422912597656,0.02923583984375,2023-10-21T15:55:10.524865Z,1697903710524
-0.11198663711547852,0.22022247314453125,0.21903610229492188,2023-10-21T15:55:10.545275Z,1697903710545
-0.16543960571289062,0.35582828521728516,0.3535776138305664,2023-10-21T15:55:10.565390Z,1697903710565
-0.17067718505859375,0.4225163459777832,0.42012596130371094,2023-10-21T15:55:10.585705Z,1697903710585
-0.14200139045715332,0.4273500442504883,0.4259834289550781,2023-10-21T15:55:10.608143Z,1697903710608
0.15197420120239258,-0.31110429763793945,-0.31531620025634766,2023-10-21T15:55:10.626173Z,1697903710626
0.15890288352966309,-0.3341865539550781,-0.3378472328186035,2023-10-21T15:55:10.646477Z,1697903710646
0.16522741317749023,-0.35913896560668945,-0.3631591796875,2023-10-21T15:55:10.666865Z,1697903710666
0.17055320739746094,-0.3859219551086426,-0.3913383483886719,2023-10-21T15:55:10.686905Z,1697903710686
0.17406058311462402,-0.4139838218688965,-0.4220447540283203,2023-10-21T15:55:10.708162Z,1697903710708
0.17500972747802734,-0.4434638023376465,-0.45545339584350586,2023-10-21T15:55:10.727487Z,1697903710727
0.1727733612060547,-0.4745197296142578,-0.4917635917663574,2023-10-21T15:55:10.747929Z,1697903710747
0.16658306121826172,-0.506528377532959,-0.5301990509033203,2023-10-21T15:55:10.768113Z,1697903710768
0.1562429666519165,-0.5393357276916504,-0.5702600479125977,2023-10-21T15:55:10.791700Z,1697903710791
0.14136135578155518,-0.5725078582763672,-0.6110353469848633,2023-10-21T15:55:10.808572Z,1697903710808
0.12157487869262695,-0.6066575050354004,-0.652550220489502,2023-10-21T15:55:10.828840Z,1697903710828
0.09640222787857056,-0.6431384086608887,-0.6957859992980957,2023-10-21T15:55:10.849335Z,1697903710849
0.06507384777069092,-0.6831035614013672,-0.7417430877685547,2023-10-21T15:55:10.869296Z,1697903710869
0.02663581073284149,-0.7273440361022949,-0.7908859252929688,2023-10-21T15:55:10.891321Z,1697903710891
-0.02014024555683136,-0.777184009552002,-0.8436999320983887,2023-10-21T15:55:10.909886Z,1697903710909
-0.07736963033676147,-0.8331665992736816,-0.9000186920166016,2023-10-21T15:55:10.930166Z,1697903710930
-0.1479966640472412,-0.8932242393493652,-0.9570083618164062,2023-10-21T15:55:10.950486Z,1697903710950
-0.2350778579711914,-0.9546952247619629,-1.011906623840332,2023-10-21T15:55:10.970739Z,1697903710970
-0.34063851833343506,-1.0130901336669922,-1.0601134300231934,2023-10-21T15:55:10.991714Z,1697903710991
-0.46500492095947266,-1.0636658668518066,-1.0960450172424316,2023-10-21T15:55:11.011437Z,1697903711011
-0.6056442260742188,-1.0995326042175293,-1.111987590789795,2023-10-21T15:55:11.031659Z,1697903711031
-0.7544386386871338,-1.111288070678711,-1.0981755256652832,2023-10-21T15:55:11.051871Z,1697903711051
-0.8971881866455078,-1.0910511016845703,-1.0473847389221191,2023-10-21T15:55:11.074709Z,1697903711074
-1.0163445472717285,-1.0353484153747559,-0.9583249092102051,2023-10-21T15:55:11.092323Z,1697903711092
-1.0936641693115234,-0.944861888885498,-0.8352832794189453,2023-10-21T15:55:11.112672Z,1697903711112
-1.1141438484191895,-0.8254642486572266,-0.6881861686706543,2023-10-21T15:55:11.132898Z,1697903711132
-1.067917823791504,-0.6859622001647949,-0.5298988819122314,2023-10-21T15:55:11.152983Z,1697903711152
-0.9510889053344727,-0.5359177589416504,-0.37412548065185547,2023-10-21T15:55:11.174390Z,1697903711174
-0.7672748565673828,-0.3841207027435303,-0.233964204788208,2023-10-21T15:55:11.193564Z,1697903711193
-0.5271854400634766,-0.23758220672607422,-0.12017297744750977,2023-10-21T15:55:11.213857Z,1697903711213
-0.2469310760498047,-0.10147786140441895,-0.039656877517700195,2023-10-21T15:55:11.234074Z,1697903711234
0.05814170837402344,0.022061824798583984,0.005901694297790527,2023-10-21T15:55:11.254256Z,1697903711254
0.3757028579711914,0.13312673568725586,0.01861351728439331,2023-10-21T15:55:11.274587Z,1697903711274
0.6969184875488281,0.23287367820739746,0.0027391426265239716,2023-10-21T15:55:11.294883Z,1697903711294
1.0132722854614258,0.32184433937072754,-0.03654393553733826,2023-10-21T15:55:11.315130Z,1697903711315
1.3153190612792969,0.3996918201446533,-0.09335339069366455,2023-10-21T15:55:11.335343Z,1697903711335
1.5937957763671875,0.4660770893096924,-0.16148579120635986,2023-10-21T15:55:11.357715Z,1697903711357
1.8417701721191406,0.5214612483978271,-0.23525547981262207,2023-10-21T15:55:11.375935Z,1697903711375
2.0562620162963867,0.5670731067657471,-0.30990827083587646,2023-10-21T15:55:11.396246Z,1697903711396
2.2362194061279297,0.6039597988128662,-0.38098108768463135,2023-10-21T15:55:11.416456Z,1697903711416
2.3782100677490234,0.6325352191925049,-0.44439268112182617,2023-10-21T15:55:11.436677Z,1697903711436
2.477463722229004,0.652674674987793,-0.4969213008880615,2023-10-21T15:55:11.457403Z,1697903711457
2.5326719284057617,0.6655452251434326,-0.537010908126831,2023-10-21T15:55:11.477239Z,1697903711477
2.547116279602051,0.6729693412780762,-0.5646369457244873,2023-10-21T15:55:11.497545Z,1697903711497
2.5242481231689453,0.6758453845977783,-0.579308271408081,2023-10-21T15:55:11.517713Z,1697903711517
2.4647321701049805,0.6739120483398438,-0.5803499221801758,2023-10-21T15:55:11.540893Z,1697903711540
2.369333267211914,0.6659715175628662,-0.5679211616516113,2023-10-21T15:55:11.558266Z,1697903711558
2.2421817779541016,0.6511850357055664,-0.543318510055542,2023-10-21T15:55:11.578602Z,1697903711578
2.0879297256469727,0.6289803981781006,-0.5081255435943604,2023-10-21T15:55:11.598844Z,1697903711598
1.909195899963379,0.5986042022705078,-0.46365904808044434,2023-10-21T15:55:11.619130Z,1697903711619
1.709000587463379,0.5592658519744873,-0.41130590438842773,2023-10-21T15:55:11.640879Z,1697903711640
1.4901762008666992,0.5099964141845703,-0.3525841236114502,2023-10-21T15:55:11.659626Z,1697903711659
1.2552509307861328,0.44965386390686035,-0.28926658630371094,2023-10-21T15:55:11.679985Z,1697903711679
1.0072994232177734,0.3778386116027832,-0.2238614559173584,2023-10-21T15:55:11.700180Z,1697903711700
0.7523193359375,0.2959461212158203,-0.1598644256591797,2023-10-21T15:55:11.720335Z,1697903711720
0.501835823059082,0.20756912231445312,-0.10132706165313721,2023-10-21T15:55:11.740682Z,1697903711740
0.2678546905517578,0.11682701110839844,-0.051209330558776855,2023-10-21T15:55:11.760932Z,1697903711760
0.05985546112060547,0.02760457992553711,-0.010840415954589844,2023-10-21T15:55:11.781225Z,1697903711781
-0.11442947387695312,-0.055947303771972656,0.01977241039276123,2023-10-21T15:55:11.801409Z,1697903711801
-0.24718284606933594,-0.12851619720458984,0.04138660430908203,2023-10-21T15:55:11.824002Z,1697903711823
-0.3301858901977539,-0.1831684112548828,0.05483520030975342,2023-10-21T15:55:11.841991Z,1697903711841
-0.3591933250427246,-0.21309328079223633,0.06072998046875,2023-10-21T15:55:11.862306Z,1697903711862
-0.33570384979248047,-0.2129216194152832,0.059076666831970215,2023-10-21T15:55:11.882553Z,1697903711882
-0.2690243721008301,-0.1817927360534668,0.04995250701904297,2023-10-21T15:55:11.902740Z,1697903711902
-0.17356157302856445,-0.12417459487915039,0.034172654151916504,2023-10-21T15:55:11.923901Z,1697903711923
-0.06387710571289062,-0.04801368713378906,0.013329148292541504,2023-10-21T15:55:11.943343Z,1697903711943
0.048145294189453125,0.037732601165771484,-0.010610580444335938,2023-10-21T15:55:11.963615Z,1697903711963
0.15353155136108398,0.1246347427368164,-0.03553617000579834,2023-10-21T15:55:11.983825Z,1697903711983
0.24644231796264648,0.20604181289672852,-0.0594940185546875,2023-10-21T15:55:12.004077Z,1697903712004
0.323789119720459,0.2772798538208008,-0.0809469223022461,2023-10-21T15:55:12.024353Z,1697903712024
0.3845815658569336,0.3355083465576172,-0.09894812107086182,2023-10-21T15:55:12.044664Z,1697903712044
0.4303922653198242,0.38072967529296875,-0.11350440979003906,2023-10-21T15:55:12.064881Z,1697903712064
0.46415233612060547,0.41514062881469727,-0.12538719177246094,2023-10-21T15:55:12.085117Z,1697903712085
0.49047374725341797,0.44325923919677734,-0.13608503341674805,2023-10-21T15:55:12.107243Z,1697903712107
0.5159096717834473,0.47161102294921875,-0.14774751663208008,2023-10-21T15:55:12.125693Z,1697903712125
0.5459613800048828,0.5056824684143066,-0.16217327117919922,2023-10-21T15:55:12.145986Z,1697903712145
0.5837340354919434,0.548607349395752,-0.18044710159301758,2023-10-21T15:55:12.166200Z,1697903712166
0.6295022964477539,0.6006507873535156,-0.20283222198486328,2023-10-21T15:55:12.186446Z,1697903712186
0.6802611351013184,0.6587457656860352,-0.22835040092468262,2023-10-21T15:55:12.207029Z,1697903712206
0.7302956581115723,0.7167496681213379,-0.2546393871307373,2023-10-21T15:55:12.227061Z,1697903712227
0.7720050811767578,0.766453742980957,-0.27825331687927246,2023-10-21T15:55:12.247308Z,1697903712247
0.7997355461120605,0.8015384674072266,-0.296311616897583,2023-10-21T15:55:12.267569Z,1697903712267
0.810704231262207,0.8184585571289062,-0.30705761909484863,2023-10-21T15:55:12.290746Z,1697903712290
0.8037075996398926,0.8150763511657715,-0.30934667587280273,2023-10-21T15:55:12.308107Z,1697903712308
0.7762241363525391,0.788001537322998,-0.30157017707824707,2023-10-21T15:55:12.328364Z,1697903712328
0.7245793342590332,0.7332963943481445,-0.28203368186950684,2023-10-21T15:55:12.348632Z,1697903712348
0.6477780342102051,0.6507911682128906,-0.25081944465637207,2023-10-21T15:55:12.368821Z,1697903712368
0.5490336418151855,0.5456719398498535,-0.21032357215881348,2023-10-21T15:55:12.390353Z,1697903712390
0.4364161491394043,0.42822980880737305,-0.16495490074157715,2023-10-21T15:55:12.409416Z,1697903712409
0.32132434844970703,0.3112764358520508,-0.11987757682800293,2023-10-21T15:55:12.429690Z,1697903712429
0.21460628509521484,0.20554018020629883,-0.07917904853820801,2023-10-21T15:55:12.449938Z,1697903712449
0.12393379211425781,0.11757469177246094,-0.0453028678894043,2023-10-21T15:55:12.470121Z,1697903712470
0.054880619049072266,0.05164527893066406,-0.019894838333129883,2023-10-21T15:55:12.490503Z,1697903712490
0.012449264526367188,0.011632442474365234,-0.004475831985473633,2023-10-21T15:55:12.510739Z,1697903712510
0.0014982223510742188,0.0013918876647949219,-5.338191986083984E-4,2023-10-21T15:55:12.531052Z,1697903712530
0.024293899536132812,0.022490501403808594,-0.008607864379882812,2023-10-21T15:55:12.551229Z,1697903712551
0.07655191421508789,0.0708613395690918,-0.026921510696411133,2023-10-21T15:55:12.573684Z,1697903712573
0.14876079559326172,0.1380462646484375,-0.05176401138305664,2023-10-21T15:55:12.591749Z,1697903712591
0.22932815551757812,0.21345901489257812,-0.0784904956817627,2023-10-21T15:55:12.612058Z,1697903712611
0.30782127380371094,0.2868180274963379,-0.10281491279602051,2023-10-21T15:55:12.632253Z,1697903712632
0.3782362937927246,0.35161685943603516,-0.12241530418395996,2023-10-21T15:55:12.652485Z,1697903712652
0.4381399154663086,0.40503931045532227,-0.13674187660217285,2023-10-21T15:55:12.673391Z,1697903712673
0.48639345169067383,0.44610023498535156,-0.14606595039367676,2023-10-21T15:55:12.693075Z,1697903712693
0.521369457244873,0.4737668037414551,-0.15073227882385254,2023-10-21T15:55:12.713374Z,1697903712713
0.5420260429382324,0.48746252059936523,-0.1512925624847412,2023-10-21T15:55:12.733647Z,1697903712733
0.5499167442321777,0.4886651039123535,-0.14891481399536133,2023-10-21T15:55:12.756563Z,1697903712756
0.5500040054321289,0.4818143844604492,-0.1454029083251953,2023-10-21T15:55:12.774121Z,1697903712774
0.5476422309875488,0.47200679779052734,-0.1423335075378418,2023-10-21T15:55:12.794427Z,1697903712794
0.5470371246337891,0.46350669860839844,-0.14075136184692383,2023-10-21T15:55:12.814672Z,1697903712814
0.550316333770752,0.45892906188964844,-0.14117646217346191,2023-10-21T15:55:12.834868Z,1697903712834
0.5576963424682617,0.45885658264160156,-0.14356684684753418,2023-10-21T15:55:12.856601Z,1697903712856
0.5670251846313477,0.4616532325744629,-0.1472158432006836,2023-10-21T15:55:12.875448Z,1697903712875
0.5733561515808105,0.46321821212768555,-0.15058255195617676,2023-10-21T15:55:12.895761Z,1697903712895
0.5721569061279297,0.4595327377319336,-0.15208101272583008,2023-10-21T15:55:12.916012Z,1697903712915
0.5609235763549805,0.4483656883239746,-0.15071868896484375,2023-10-21T15:55:12.936262Z,1697903712936
0.5391674041748047,0.42923831939697266,-0.14623475074768066,2023-10-21T15:55:12.956855Z,1697903712956
0.5060396194458008,0.40155792236328125,-0.13848018646240234,2023-10-21T15:55:12.976762Z,1697903712976
0.45974254608154297,0.3640880584716797,-0.127091646194458,2023-10-21T15:55:12.997025Z,1697903712996
0.39698266983032227,0.3142857551574707,-0.11115002632141113,2023-10-21T15:55:13.017303Z,1697903713017
0.314882755279541,0.24953985214233398,-0.08951163291931152,2023-10-21T15:55:13.040298Z,1697903713040
0.2145376205444336,0.1702127456665039,-0.06202507019042969,2023-10-21T15:55:13.057825Z,1697903713057
0.10324287414550781,0.08187341690063477,-0.030405044555664062,2023-10-21T15:55:13.078111Z,1697903713078
-0.008649349212646484,-0.006842136383056641,0.002601146697998047,2023-10-21T15:55:13.098353Z,1697903713098
-0.11130857467651367,-0.08771753311157227,0.03431391716003418,2023-10-21T15:55:13.118597Z,1697903713118
-0.198486328125,-0.1559758186340332,0.0629572868347168,2023-10-21T15:55:13.139858Z,1697903713139
-0.266573429107666,-0.20933961868286133,0.08721280097961426,2023-10-21T15:55:13.159185Z,1697903713159
-0.31275415420532227,-0.24602365493774414,0.10558605194091797,2023-10-21T15:55:13.179570Z,1697903713179
-0.3353400230407715,-0.26481008529663086,0.11666727066040039,2023-10-21T15:55:13.199648Z,1697903713199
-0.3334922790527344,-0.264829158782959,0.11919903755187988,2023-10-21T15:55:13.223099Z,1697903713223
-0.3077540397644043,-0.24617290496826172,0.11254596710205078,2023-10-21T15:55:13.240180Z,1697903713240
-0.26139068603515625,-0.21105051040649414,0.09735584259033203,2023-10-21T15:55:13.260472Z,1697903713260
-0.2010650634765625,-0.16427135467529297,0.07590818405151367,2023-10-21T15:55:13.280721Z,1697903713280
-0.13382244110107422,-0.1108407974243164,0.05097842216491699,2023-10-21T15:55:13.300933Z,1697903713300
-0.06630277633666992,-0.05573558807373047,0.025387287139892578,2023-10-21T15:55:13.322954Z,1697903713322
-0.003991127014160156,-0.0034027099609375,0.0015311241149902344,2023-10-21T15:55:13.341613Z,1697903713341
0.04835844039916992,0.04178810119628906,-0.018517255783081055,2023-10-21T15:55:13.361812Z,1697903713361
0.08902168273925781,0.07782745361328125,-0.03393721580505371,2023-10-21T15:55:13.382031Z,1697903713381
0.1209859848022461,0.10688352584838867,-0.04584670066833496,2023-10-21T15:55:13.402228Z,1697903713402
0.1485896110534668,0.13263368606567383,-0.056006431579589844,2023-10-21T15:55:13.422885Z,1697903713422
0.17650413513183594,0.15938091278076172,-0.06639385223388672,2023-10-21T15:55:13.442843Z,1697903713442
0.2063136100769043,0.18888187408447266,-0.0778651237487793,2023-10-21T15:55:13.463232Z,1697903713463
0.23977947235107422,0.22310876846313477,-0.09129953384399414,2023-10-21T15:55:13.483309Z,1697903713483
0.2769780158996582,0.262636661529541,-0.1069643497467041,2023-10-21T15:55:13.506152Z,1697903713506
0.31730127334594727,0.3071565628051758,-0.12465524673461914,2023-10-21T15:55:13.523899Z,1697903713523
0.3606443405151367,0.35698413848876953,-0.1444542407989502,2023-10-21T15:55:13.544191Z,1697903713544
0.407623291015625,0.4132080078125,-0.16685914993286133,2023-10-21T15:55:13.564467Z,1697903713564
0.45594120025634766,0.4741177558898926,-0.19131255149841309,2023-10-21T15:55:13.584628Z,1697903713584
0.5006132125854492,0.5347914695739746,-0.215958833694458,2023-10-21T15:55:13.605989Z,1697903713605
0.5369300842285156,0.5894508361816406,-0.23852133750915527,2023-10-21T15:55:13.625215Z,1697903713625
0.5614776611328125,0.6325483322143555,-0.2567586898803711,2023-10-21T15:55:13.645494Z,1697903713645
0.5743966102600098,0.6619453430175781,-0.2697577476501465,2023-10-21T15:55:13.665710Z,1697903713665
0.5751404762268066,0.6753993034362793,-0.2766571044921875,2023-10-21T15:55:13.685892Z,1697903713685
0.564793586730957,0.6729450225830078,-0.27751874923706055,2023-10-21T15:55:13.706229Z,1697903713706
0.5463619232177734,0.6579675674438477,-0.2739741802215576,2023-10-21T15:55:13.726528Z,1697903713726
0.5231056213378906,0.634422779083252,-0.2676851749420166,2023-10-21T15:55:13.746777Z,1697903713746
0.4967522621154785,0.6047277450561523,-0.2594778537750244,2023-10-21T15:55:13.767020Z,1697903713766
0.46811580657958984,0.5700640678405762,-0.2494363784790039,2023-10-21T15:55:13.789317Z,1697903713789
0.4375462532043457,0.5311684608459473,-0.23729562759399414,2023-10-21T15:55:13.807551Z,1697903713807
0.4060211181640625,0.48962831497192383,-0.22323966026306152,2023-10-21T15:55:13.827899Z,1697903713827
0.37513017654418945,0.4479851722717285,-0.20808839797973633,2023-10-21T15:55:13.848090Z,1697903713848
0.3460693359375,0.40841054916381836,-0.19288849830627441,2023-10-21T15:55:13.868349Z,1697903713868
0.3197460174560547,0.3722829818725586,-0.17855572700500488,2023-10-21T15:55:13.889188Z,1697903713889
0.29486703872680664,0.33828115463256836,-0.16456103324890137,2023-10-21T15:55:13.909103Z,1697903713909
0.2693901062011719,0.3040494918823242,-0.14971637725830078,2023-10-21T15:55:13.929267Z,1697903713929
0.2398529052734375,0.2656974792480469,-0.13202667236328125,2023-10-21T15:55:13.949419Z,1697903713949
0.20607328414916992,0.22336673736572266,-0.1115875244140625,2023-10-21T15:55:13.972556Z,1697903713972
0.17036914825439453,0.1801609992980957,-0.09018754959106445,2023-10-21T15:55:13.990087Z,1697903713990
0.13653945922851562,0.1404261589050293,-0.07030272483825684,2023-10-21T15:55:14.010232Z,1697903714010
0.10809183120727539,0.10786056518554688,-0.05399823188781738,2023-10-21T15:55:14.030507Z,1697903714030
0.08588695526123047,0.08298873901367188,-0.041599273681640625,2023-10-21T15:55:14.050846Z,1697903714050
0.06852912902832031,0.06402254104614258,-0.03215503692626953,2023-10-21T15:55:14.072716Z,1697903714072
0.054378509521484375,0.04907512664794922,-0.024663209915161133,2023-10-21T15:55:14.091276Z,1697903714091
0.04387855529785156,0.03822803497314453,-0.019170284271240234,2023-10-21T15:55:14.111536Z,1697903714111
0.037259578704833984,0.03133583068847656,-0.015627384185791016,2023-10-21T15:55:14.131798Z,1697903714131
0.035950660705566406,0.029222965240478516,-0.014440059661865234,2023-10-21T15:55:14.151982Z,1697903714151
0.038290977478027344,0.03016185760498047,-0.014718294143676758,2023-10-21T15:55:14.172332Z,1697903714172
0.04209089279174805,0.03223133087158203,-0.01547551155090332,2023-10-21T15:55:14.192677Z,1697903714192
0.04463529586791992,0.033349037170410156,-0.015680313110351562,2023-10-21T15:55:14.212861Z,1697903714212
0.04323291778564453,0.031612396240234375,-0.01446986198425293,2023-10-21T15:55:14.233072Z,1697903714233
0.037488460540771484,0.026900291442871094,-0.01189732551574707,2023-10-21T15:55:14.255619Z,1697903714255
0.030388832092285156,0.02144765853881836,-0.009094715118408203,2023-10-21T15:55:14.273644Z,1697903714273
0.025865554809570312,0.017998218536376953,-0.007264137268066406,2023-10-21T15:55:14.293981Z,1697903714293
0.026957988739013672,0.018544673919677734,-0.007086515426635742,2023-10-21T15:55:14.314126Z,1697903714314
0.03393411636352539,0.023136615753173828,-0.008355021476745605,2023-10-21T15:55:14.334349Z,1697903714334
0.045035362243652344,0.030502796173095703,-0.010426163673400879,2023-10-21T15:55:14.355212Z,1697903714355
0.059886932373046875,0.04034614562988281,-0.013107657432556152,2023-10-21T15:55:14.374931Z,1697903714374
0.0775909423828125,0.05205059051513672,-0.016155004501342773,2023-10-21T15:55:14.395217Z,1697903714395
0.09838676452636719,0.06575298309326172,-0.019623279571533203,2023-10-21T15:55:14.415438Z,1697903714415
0.12147331237792969,0.08090591430664062,-0.023406028747558594,2023-10-21T15:55:14.438869Z,1697903714438
0.14587116241455078,0.09685277938842773,-0.02742469310760498,2023-10-21T15:55:14.456205Z,1697903714456
0.16975784301757812,0.11238479614257812,-0.031469106674194336,2023-10-21T15:55:14.476302Z,1697903714476
0.19000911712646484,0.12540674209594727,-0.035044312477111816,2023-10-21T15:55:14.496536Z,1697903714496
0.20385456085205078,0.13411569595336914,-0.037623047828674316,2023-10-21T15:55:14.516751Z,1697903714516
0.2108325958251953,0.13824701309204102,-0.03902566432952881,2023-10-21T15:55:14.538846Z,1697903714538
0.21400833129882812,0.1398468017578125,-0.03969407081604004,2023-10-21T15:55:14.557354Z,1697903714557
0.21661949157714844,0.1410541534423828,-0.0401989221572876,2023-10-21T15:55:14.577646Z,1697903714577
0.22119998931884766,0.14351701736450195,-0.04101920127868652,2023-10-21T15:55:14.597855Z,1697903714597
0.22719573974609375,0.14693546295166016,-0.042086243629455566,2023-10-21T15:55:14.618174Z,1697903714618
0.2335672378540039,0.15068864822387695,-0.0432276725769043,2023-10-21T15:55:14.638967Z,1697903714638
0.2385845184326172,0.15366029739379883,-0.044141173362731934,2023-10-21T15:55:14.658637Z,1697903714658
0.24105072021484375,0.15503454208374023,-0.044615745544433594,2023-10-21T15:55:14.678947Z,1697903714678
0.24125003814697266,0.1549539566040039,-0.044768571853637695,2023-10-21T15:55:14.699118Z,1697903714699
0.23959064483642578,0.15370464324951172,-0.04476630687713623,2023-10-21T15:55:14.722064Z,1697903714722
0.23767566680908203,0.1523294448852539,-0.044976115226745605,2023-10-21T15:55:14.739723Z,1697903714739
0.23343658447265625,0.14955949783325195,-0.045044541358947754,2023-10-21T15:55:14.759998Z,1697903714759
0.22304534912109375,0.14298343658447266,-0.044164180755615234,2023-10-21T15:55:14.780243Z,1697903714780
0.20286273956298828,0.13023662567138672,-0.04147458076477051,2023-10-21T15:55:14.800457Z,1697903714800
0.17195510864257812,0.11065053939819336,-0.036509156227111816,2023-10-21T15:55:14.821787Z,1697903714821
0.13541030883789062,0.08734893798828125,-0.03000056743621826,2023-10-21T15:55:14.841090Z,1697903714841
0.09981060028076172,0.06452322006225586,-0.0231626033782959,2023-10-21T15:55:14.861321Z,1697903714861
0.07010364532470703,0.04541349411010742,-0.017091751098632812,2023-10-21T15:55:14.881710Z,1697903714881
0.049126625061035156,0.03189277648925781,-0.012599468231201172,2023-10-21T15:55:14.901878Z,1697903714901
0.03757286071777344,0.02445220947265625,-0.010134696960449219,2023-10-21T15:55:14.922210Z,1697903714922
0.034148216247558594,0.022297382354736328,-0.009685277938842773,2023-10-21T15:55:14.942523Z,1697903714942
0.038671016693115234,0.025362491607666016,-0.011522054672241211,2023-10-21T15:55:14.962773Z,1697903714962
0.05096864700317383,0.033603668212890625,-0.015927553176879883,2023-10-21T15:55:14.982823Z,1697903714982
0.07141590118408203,0.04734516143798828,-0.023354291915893555,2023-10-21T15:55:15.005126Z,1697903715005
0.09923887252807617,0.06611347198486328,-0.03385138511657715,2023-10-21T15:55:15.023525Z,1697903715023
0.12947797775268555,0.0866556167602539,-0.04595947265625,2023-10-21T15:55:15.043852Z,1697903715043
0.15582704544067383,0.10478782653808594,-0.05746769905090332,2023-10-21T15:55:15.064049Z,1697903715064
0.17309284210205078,0.11697912216186523,-0.0662846565246582,2023-10-21T15:55:15.084114Z,1697903715084
0.17889881134033203,0.12152099609375,-0.07114887237548828,2023-10-21T15:55:15.104992Z,1697903715104
0.17388200759887695,0.11867237091064453,-0.07182836532592773,2023-10-21T15:55:15.124948Z,1697903715124
0.16089916229248047,0.1102142333984375,-0.0690159797668457,2023-10-21T15:55:15.145161Z,1697903715145
0.14318084716796875,0.09830999374389648,-0.06372570991516113,2023-10-21T15:55:15.165376Z,1697903715165
0.12396621704101562,0.08524227142333984,-0.05721640586853027,2023-10-21T15:55:15.188549Z,1697903715188
0.10579204559326172,0.0728297233581543,-0.05060601234436035,2023-10-21T15:55:15.205897Z,1697903715205
0.0909266471862793,0.0626516342163086,-0.04503178596496582,2023-10-21T15:55:15.226208Z,1697903715226
0.0813441276550293,0.05608034133911133,-0.0416412353515625,2023-10-21T15:55:15.246471Z,1697903715246
0.0801239013671875,0.055248260498046875,-0.04229617118835449,2023-10-21T15:55:15.266659Z,1697903715266
0.08973550796508789,0.06188631057739258,-0.048714399337768555,2023-10-21T15:55:15.288486Z,1697903715288
0.11129331588745117,0.07679224014282227,-0.06191539764404297,2023-10-21T15:55:15.307108Z,1697903715307
0.14341354370117188,0.09904861450195312,-0.08144044876098633,2023-10-21T15:55:15.327392Z,1697903715327
0.1802959442138672,0.12475204467773438,-0.10408353805541992,2023-10-21T15:55:15.347585Z,1697903715347
0.2151927947998047,0.1493058204650879,-0.12573814392089844,2023-10-21T15:55:15.367829Z,1697903715367
0.24221515655517578,0.16856670379638672,-0.14252662658691406,2023-10-21T15:55:15.388328Z,1697903715388
0.25792551040649414,0.18004655838012695,-0.15204143524169922,2023-10-21T15:55:15.408614Z,1697903715408
0.26090097427368164,0.18267583847045898,-0.15326976776123047,2023-10-21T15:55:15.428838Z,1697903715428
0.25197649002075195,0.17692184448242188,-0.14676904678344727,2023-10-21T15:55:15.449129Z,1697903715449
0.2329120635986328,0.16392850875854492,-0.133880615234375,2023-10-21T15:55:15.471268Z,1697903715471
0.20698165893554688,0.14598846435546875,-0.11694145202636719,2023-10-21T15:55:15.489587Z,1697903715489
0.17780065536499023,0.1257166862487793,-0.09843873977661133,2023-10-21T15:55:15.509913Z,1697903715509
0.14852571487426758,0.1054229736328125,-0.0804293155670166,2023-10-21T15:55:15.530188Z,1697903715530
0.12379169464111328,0.0883626937866211,-0.06546950340270996,2023-10-21T15:55:15.550220Z,1697903715550
0.10790109634399414,0.0776071548461914,-0.05568671226501465,2023-10-21T15:55:15.571271Z,1697903715571
0.10414505004882812,0.07564210891723633,-0.05243635177612305,2023-10-21T15:55:15.590810Z,1697903715590
0.11385250091552734,0.08367252349853516,-0.05592608451843262,2023-10-21T15:55:15.611217Z,1697903715611
0.13612747192382812,0.10141897201538086,-0.0652627944946289,2023-10-21T15:55:15.631455Z,1697903715631
0.16804170608520508,0.12713146209716797,-0.07865786552429199,2023-10-21T15:55:15.654859Z,1697903715654
0.20459604263305664,0.15741586685180664,-0.09352469444274902,2023-10-21T15:55:15.671845Z,1697903715671
0.23911714553833008,0.18729162216186523,-0.10669088363647461,2023-10-21T15:55:15.692128Z,1697903715692
0.26387882232666016,0.21050024032592773,-0.11477041244506836,2023-10-21T15:55:15.712365Z,1697903715712
0.2725062370300293,0.22129535675048828,-0.11527490615844727,2023-10-21T15:55:15.732552Z,1697903715732
0.26095151901245117,0.21548032760620117,-0.10705256462097168,2023-10-21T15:55:15.754583Z,1697903715754
0.22942304611206055,0.1923222541809082,-0.09094882011413574,2023-10-21T15:55:15.773186Z,1697903715773
0.18139982223510742,0.15413331985473633,-0.0692589282989502,2023-10-21T15:55:15.793607Z,1697903715793
0.12192201614379883,0.10488271713256836,-0.044722557067871094,2023-10-21T15:55:15.813844Z,1697903715813
0.05720329284667969,0.04976606369018555,-0.02013707160949707,2023-10-21T15:55:15.834020Z,1697903715833
-0.004986763000488281,-0.004379749298095703,0.00168609619140625,2023-10-21T15:55:15.854461Z,1697903715854
-0.056378841400146484,-0.049852848052978516,0.018337726593017578,2023-10-21T15:55:15.874617Z,1697903715874
-0.09069108963012695,-0.0804295539855957,0.02846550941467285,2023-10-21T15:55:15.894758Z,1697903715894
-0.10564041137695312,-0.09356212615966797,0.032122135162353516,2023-10-21T15:55:15.915117Z,1697903715915
-0.10112524032592773,-0.08902645111083984,0.029926061630249023,2023-10-21T15:55:15.937811Z,1697903715937
-0.07880926132202148,-0.06860923767089844,0.022799015045166016,2023-10-21T15:55:15.955514Z,1697903715955
-0.04333209991455078,-0.03708648681640625,0.012292623519897461,2023-10-21T15:55:15.975851Z,1697903715975
-0.0023250579833984375,-0.0019435882568359375,6.468296051025391E-4,2023-10-21T15:55:15.996107Z,1697903715996
0.03620290756225586,0.029331207275390625,-0.00985264778137207,2023-10-21T15:55:16.016285Z,1697903716016
0.06625699996948242,0.05163431167602539,-0.017538785934448242,2023-10-21T15:55:16.037658Z,1697903716037
0.08265924453735352,0.061480045318603516,-0.021132588386535645,2023-10-21T15:55:16.056894Z,1697903716056
0.08095073699951172,0.05704164505004883,-0.01985323429107666,2023-10-21T15:55:16.077168Z,1697903716077
0.05918407440185547,0.039234161376953125,-0.013845086097717285,2023-10-21T15:55:16.097337Z,1697903716097
0.020819664001464844,0.0128936767578125,-0.004627346992492676,2023-10-21T15:55:16.117539Z,1697903716117
-0.026345252990722656,-0.015132904052734375,0.00555729866027832,2023-10-21T15:55:16.137873Z,1697903716137
-0.07188987731933594,-0.03804779052734375,0.014438152313232422,2023-10-21T15:55:16.158157Z,1697903716158
-0.10401058197021484,-0.05043983459472656,0.020066261291503906,2023-10-21T15:55:16.178447Z,1697903716178
-0.10943412780761719,-0.048424482345581055,0.020582079887390137,2023-10-21T15:55:16.198620Z,1697903716198
-0.0749359130859375,-0.030166149139404297,0.013999104499816895,2023-10-21T15:55:16.220771Z,1697903716220
0.008176803588867188,0.0029914379119873047,-0.0015474557876586914,2023-10-21T15:55:16.239239Z,1697903716239
0.1426868438720703,0.04747343063354492,-0.027764439582824707,2023-10-21T15:55:16.259502Z,1697903716259
0.32407379150390625,0.09824323654174805,-0.0655219554901123,2023-10-21T15:55:16.279769Z,1697903716279
0.5448417663574219,0.1505591869354248,-0.11490893363952637,2023-10-21T15:55:16.300006Z,1697903716299
0.7944917678833008,0.1996612548828125,-0.17464494705200195,2023-10-21T15:55:16.320705Z,1697903716320
1.0587339401245117,0.24076342582702637,-0.24144792556762695,2023-10-21T15:55:16.340512Z,1697903716340
1.3197822570800781,0.26946544647216797,-0.31000685691833496,2023-10-21T15:55:16.360820Z,1697903716360
1.5596122741699219,0.28261351585388184,-0.3743011951446533,2023-10-21T15:55:16.381002Z,1697903716380
1.7649717330932617,0.27913570404052734,-0.42952752113342285,2023-10-21T15:55:16.404038Z,1697903716404
1.927734375,0.260034441947937,-0.47293710708618164,2023-10-21T15:55:16.421576Z,1697903716421
2.0423107147216797,0.22753727436065674,-0.5033059120178223,2023-10-21T15:55:16.441860Z,1697903716441
2.104611396789551,0.184950590133667,-0.5202462673187256,2023-10-21T15:55:16.462102Z,1697903716462
2.114208221435547,0.1368216872215271,-0.5247149467468262,2023-10-21T15:55:16.482346Z,1697903716482
2.0749635696411133,0.08836758136749268,-0.5192403793334961,2023-10-21T15:55:16.504076Z,1697903716504
1.9950237274169922,0.044182777404785156,-0.5073139667510986,2023-10-21T15:55:16.522890Z,1697903716522
1.8840465545654297,0.0072684623301029205,-0.4922518730163574,2023-10-21T15:55:16.543141Z,1697903716543
1.7515945434570312,-0.02097979187965393,-0.4763474464416504,2023-10-21T15:55:16.563414Z,1697903716563
1.6032180786132812,-0.04046821594238281,-0.4598872661590576,2023-10-21T15:55:16.583612Z,1697903716583
1.4366168975830078,-0.051929771900177,-0.4402763843536377,2023-10-21T15:55:16.604023Z,1697903716603
1.2459239959716797,-0.056698501110076904,-0.4130074977874756,2023-10-21T15:55:16.624213Z,1697903716624
1.0280189514160156,-0.05613607168197632,-0.37326693534851074,2023-10-21T15:55:16.644492Z,1697903716644
0.7880983352661133,-0.05125695466995239,-0.31807494163513184,2023-10-21T15:55:16.664733Z,1697903716664
0.5384931564331055,-0.042240262031555176,-0.24564599990844727,2023-10-21T15:55:16.687210Z,1697903716687
0.2918987274169922,-0.02798229455947876,-0.15313482284545898,2023-10-21T15:55:16.705260Z,1697903716705
0.06557655334472656,-0.007623016834259033,-0.04023599624633789,2023-10-21T15:55:16.725593Z,1697903716725
-0.11330986022949219,0.015212297439575195,0.08249998092651367,2023-10-21T15:55:16.745816Z,1697903716745
-0.21637916564941406,0.030863285064697266,0.18877553939819336,2023-10-21T15:55:16.766020Z,1697903716765
-0.23648595809936523,0.03134143352508545,0.24949121475219727,2023-10-21T15:55:16.787113Z,1697903716787
-0.17511653900146484,0.01667642593383789,0.2256612777709961,2023-10-21T15:55:16.806606Z,1697903716806
-0.05086231231689453,9.339600801467896E-4,0.0804901123046875,2023-10-21T15:55:16.826919Z,1697903716826
0.08644771575927734,0.00987321138381958,-0.16853809356689453,2023-10-21T15:55:16.847065Z,1697903716847
0.2146909236907959,0.06897938251495361,-0.5099515914916992,2023-10-21T15:55:16.870761Z,1697903716870
0.31426119804382324,0.19769442081451416,-0.8989343643188477,2023-10-21T15:55:16.887919Z,1697903716887
0.40177416801452637,0.4255986213684082,-1.3608369827270508,2023-10-21T15:55:16.908040Z,1697903716908
0.4843475818634033,0.7793898582458496,-1.8886394500732422,2023-10-21T15:55:16.928205Z,1697903716928
0.5591316223144531,1.2535333633422852,-2.4330501556396484,2023-10-21T15:55:16.948421Z,1697903716948
0.6224461793899536,1.8166861534118652,-2.9460811614990234,2023-10-21T15:55:16.970414Z,1697903716970
0.6787257194519043,2.4282312393188477,-3.3943309783935547,2023-10-21T15:55:16.988969Z,1697903716988
0.7341024875640869,3.052257537841797,-3.756740093231201,2023-10-21T15:55:17.009268Z,1697903717009
0.7915703058242798,3.6634364128112793,-4.033968925476074,2023-10-21T15:55:17.029515Z,1697903717029
0.8684382438659668,4.2584638595581055,-4.258100509643555,2023-10-21T15:55:17.049701Z,1697903717049
0.9526450634002686,4.835807800292969,-4.449614524841309,2023-10-21T15:55:17.070302Z,1697903717070
1.0540300607681274,5.388567924499512,-4.61991024017334,2023-10-21T15:55:17.090282Z,1697903717090
1.1657729148864746,5.893040180206299,-4.736954212188721,2023-10-21T15:55:17.110566Z,1697903717110
1.2834101915359497,6.336483001708984,-4.7878289222717285,2023-10-21T15:55:17.130806Z,1697903717130
1.4127113819122314,6.7307963371276855,-4.778781890869141,2023-10-21T15:55:17.153725Z,1697903717153
1.5579447746276855,7.091670989990234,-4.713065147399902,2023-10-21T15:55:17.171354Z,1697903717171
1.721113920211792,7.425127983093262,-4.587528228759766,2023-10-21T15:55:17.191666Z,1697903717191
1.9094462394714355,7.735861778259277,-4.403143882751465,2023-10-21T15:55:17.211920Z,1697903717211
2.123605251312256,8.015918731689453,-4.1615142822265625,2023-10-21T15:55:17.232146Z,1697903717232
2.34930157661438,8.231184959411621,-3.8623404502868652,2023-10-21T15:55:17.253487Z,1697903717253
2.566387176513672,8.349214553833008,-3.5135762691497803,2023-10-21T15:55:17.272670Z,1697903717272
2.7695083618164062,8.344518661499023,-3.126647472381592,2023-10-21T15:55:17.292971Z,1697903717292
2.9566588401794434,8.209199905395508,-2.7142860889434814,2023-10-21T15:55:17.313174Z,1697903717313
3.1167712211608887,7.938187599182129,-2.2981410026550293,2023-10-21T15:55:17.333399Z,1697903717333
3.2552056312561035,7.54207706451416,-1.9153540134429932,2023-10-21T15:55:17.353694Z,1697903717353
3.342170238494873,7.0271453857421875,-1.5919573307037354,2023-10-21T15:55:17.373997Z,1697903717373
3.3781681060791016,6.40139102935791,-1.3442561626434326,2023-10-21T15:55:17.394249Z,1697903717394
3.3380393981933594,5.666499137878418,-1.1504995822906494,2023-10-21T15:55:17.414485Z,1697903717414
3.2054643630981445,4.844812393188477,-0.9986321926116943,2023-10-21T15:55:17.436908Z,1697903717436
3.0012292861938477,4.0107011795043945,-0.8856873512268066,2023-10-21T15:55:17.455019Z,1697903717454
2.7609963417053223,3.2368264198303223,-0.8052027225494385,2023-10-21T15:55:17.475336Z,1697903717475
2.5032739639282227,2.56211519241333,-0.7479879856109619,2023-10-21T15:55:17.495562Z,1697903717495
2.242450714111328,1.9978060722351074,-0.7072360515594482,2023-10-21T15:55:17.515776Z,1697903717515
1.9960012435913086,1.5445785522460938,-0.6757071018218994,2023-10-21T15:55:17.536450Z,1697903717536
1.7465543746948242,1.1756205558776855,-0.6358232498168945,2023-10-21T15:55:17.556539Z,1697903717556
1.517782211303711,0.8848319053649902,-0.5872337818145752,2023-10-21T15:55:17.576629Z,1697903717576
1.2950248718261719,0.6524291038513184,-0.5254275798797607,2023-10-21T15:55:17.596871Z,1697903717596
1.1051759719848633,0.4795501232147217,-0.46921396255493164,2023-10-21T15:55:17.619732Z,1697903717619
0.9693698883056641,0.3616323471069336,-0.4312314987182617,2023-10-21T15:55:17.637397Z,1697903717637
0.8811550140380859,0.28211116790771484,-0.4112386703491211,2023-10-21T15:55:17.657710Z,1697903717657
0.8326234817504883,0.22788000106811523,-0.40780115127563477,2023-10-21T15:55:17.677937Z,1697903717677
0.8216838836669922,0.19141089916229248,-0.4221663475036621,2023-10-21T15:55:17.698154Z,1697903717698
0.8372068405151367,0.16530585289001465,-0.4508686065673828,2023-10-21T15:55:17.720270Z,1697903717720
0.8708734512329102,0.14497554302215576,-0.4907689094543457,2023-10-21T15:55:17.738729Z,1697903717738
0.9191989898681641,0.1279890537261963,-0.5403156280517578,2023-10-21T15:55:17.758999Z,1697903717758
0.9736413955688477,0.11201894283294678,-0.5942749977111816,2023-10-21T15:55:17.779207Z,1697903717779
1.0208797454833984,0.09543222188949585,-0.6433687210083008,2023-10-21T15:55:17.799442Z,1697903717799
1.0515708923339844,0.07854914665222168,-0.6797323226928711,2023-10-21T15:55:17.819831Z,1697903717819
1.0590763092041016,0.06275635957717896,-0.6969571113586426,2023-10-21T15:55:17.840109Z,1697903717840
1.0418386459350586,0.04979369044303894,-0.6926813125610352,2023-10-21T15:55:17.860449Z,1697903717860
1.0000171661376953,0.04097875952720642,-0.6667346954345703,2023-10-21T15:55:17.880620Z,1697903717880
0.9360265731811523,0.03687480092048645,-0.6212444305419922,2023-10-21T15:55:17.903107Z,1697903717903
0.8567705154418945,0.03719028830528259,-0.5618705749511719,2023-10-21T15:55:17.921164Z,1697903717921
0.7711725234985352,0.04099348187446594,-0.4955716133117676,2023-10-21T15:55:17.941408Z,1697903717941
0.6874656677246094,0.047100722789764404,-0.4291701316833496,2023-10-21T15:55:17.961649Z,1697903717961
0.6151924133300781,0.05484747886657715,-0.3700728416442871,2023-10-21T15:55:17.981862Z,1697903717981
0.5650758743286133,0.06456810235977173,-0.32543087005615234,2023-10-21T15:55:18.003327Z,1697903718003
0.5428447723388672,0.07731330394744873,-0.2980175018310547,2023-10-21T15:55:18.022427Z,1697903718022
0.5507030487060547,0.09459757804870605,-0.28746843338012695,2023-10-21T15:55:18.042709Z,1697903718042
0.5828800201416016,0.11695432662963867,-0.2888336181640625,2023-10-21T15:55:18.062916Z,1697903718062
0.6304788589477539,0.1435847282409668,-0.2962007522583008,2023-10-21T15:55:18.086746Z,1697903718086
0.6836376190185547,0.17242169380187988,-0.3041713237762451,2023-10-21T15:55:18.103769Z,1697903718103
0.7320852279663086,0.20032405853271484,-0.30815887451171875,2023-10-21T15:55:18.123805Z,1697903718123
0.7656030654907227,0.22342443466186523,-0.30468249320983887,2023-10-21T15:55:18.144003Z,1697903718143
0.7760839462280273,0.23811984062194824,-0.29174065589904785,2023-10-21T15:55:18.164220Z,1697903718164
0.7570056915283203,0.2413647174835205,-0.26840806007385254,2023-10-21T15:55:18.186259Z,1697903718186
0.7055368423461914,0.2317366600036621,-0.23538732528686523,2023-10-21T15:55:18.204814Z,1697903718204
0.6248559951782227,0.21013879776000977,-0.19556832313537598,2023-10-21T15:55:18.225052Z,1697903718225
0.5240898132324219,0.17978668212890625,-0.15350079536437988,2023-10-21T15:55:18.245275Z,1697903718245
0.4165353775024414,0.14548206329345703,-0.11412739753723145,2023-10-21T15:55:18.265546Z,1697903718265
0.31385135650634766,0.11164236068725586,-0.08073711395263672,2023-10-21T15:55:18.286167Z,1697903718286
0.22315120697021484,0.08107256889343262,-0.05438709259033203,2023-10-21T15:55:18.306106Z,1697903718306
0.1457195281982422,0.054335594177246094,-0.03415346145629883,2023-10-21T15:55:18.326399Z,1697903718326
0.07984161376953125,0.03072953224182129,-0.018362760543823242,2023-10-21T15:55:18.346602Z,1697903718346
0.020723342895507812,0.008281469345092773,-0.004786968231201172,2023-10-21T15:55:18.369479Z,1697903718369
-0.04089927673339844,-0.017053604125976562,0.009687662124633789,2023-10-21T15:55:18.387177Z,1697903718387
-0.11391448974609375,-0.049733877182006836,0.028147220611572266,2023-10-21T15:55:18.407462Z,1697903718407
-0.20209980010986328,-0.09247350692749023,0.05272722244262695,2023-10-21T15:55:18.427740Z,1697903718427
-0.3073568344116211,-0.14712214469909668,0.08541083335876465,2023-10-21T15:55:18.447931Z,1697903718447
-0.4286623001098633,-0.21380186080932617,0.1275618076324463,2023-10-21T15:55:18.469405Z,1697903718469
-0.563873291015625,-0.29138660430908203,0.17982721328735352,2023-10-21T15:55:18.488526Z,1697903718488
-0.706425666809082,-0.3753504753112793,0.24030685424804688,2023-10-21T15:55:18.508777Z,1697903718508
-0.8443312644958496,-0.45670032501220703,0.3033750057220459,2023-10-21T15:55:18.528982Z,1697903718528
-0.965263843536377,-0.525242805480957,0.3613545894622803,2023-10-21T15:55:18.549164Z,1697903718549
-1.0564298629760742,-0.5701367855072021,0.40556907653808594,2023-10-21T15:55:18.569513Z,1697903718569
-1.1035542488098145,-0.581310510635376,0.42759251594543457,2023-10-21T15:55:18.589855Z,1697903718589
-1.0939922332763672,-0.5534021854400635,0.4215738773345947,2023-10-21T15:55:18.610049Z,1697903718610
-1.0202651023864746,-0.48894429206848145,0.3861844539642334,2023-10-21T15:55:18.630275Z,1697903718630
-0.8819746971130371,-0.3968231678009033,0.3243672847747803,2023-10-21T15:55:18.652589Z,1697903718652
-0.6870651245117188,-0.28890132904052734,0.243422269821167,2023-10-21T15:55:18.670847Z,1697903718670
-0.4461965560913086,-0.17495417594909668,0.1514575481414795,2023-10-21T15:55:18.691131Z,1697903718691
-0.1743021011352539,-0.06362676620483398,0.05657672882080078,2023-10-21T15:55:18.711328Z,1697903718711
0.1099691390991211,0.03729081153869629,-0.03414344787597656,2023-10-21T15:55:18.731629Z,1697903718731
0.38648509979248047,0.1213233470916748,-0.11480593681335449,2023-10-21T15:55:18.752517Z,1697903718752
0.6362600326538086,0.184004545211792,-0.1805589199066162,2023-10-21T15:55:18.772165Z,1697903718772
0.8478269577026367,0.22429752349853516,-0.2288975715637207,2023-10-21T15:55:18.792493Z,1697903718792
1.0182561874389648,0.24381709098815918,-0.25971174240112305,2023-10-21T15:55:18.812688Z,1697903718812
1.153371810913086,0.24590814113616943,-0.2754037380218506,2023-10-21T15:55:18.835782Z,1697903718835
1.2651338577270508,0.23474764823913574,-0.27997303009033203,2023-10-21T15:55:18.853197Z,1697903718853
1.3693170547485352,0.21449005603790283,-0.2779860496520996,2023-10-21T15:55:18.873498Z,1697903718873
1.483494758605957,0.18849778175354004,-0.27354884147644043,2023-10-21T15:55:18.893802Z,1697903718893
1.6220808029174805,0.15836387872695923,-0.268940806388855,2023-10-21T15:55:18.913964Z,1697903718913
1.7887344360351562,0.12386596202850342,-0.26423346996307373,2023-10-21T15:55:18.935685Z,1697903718935
1.9786100387573242,0.084561288356781,-0.25883281230926514,2023-10-21T15:55:18.954545Z,1697903718954
2.1820497512817383,0.04043292999267578,-0.252835750579834,2023-10-21T15:55:18.974808Z,1697903718974
2.38726806640625,-0.008123278617858887,-0.2479459047317505,2023-10-21T15:55:18.995002Z,1697903718994
2.581329345703125,-0.06014120578765869,-0.24699187278747559,2023-10-21T15:55:19.015205Z,1697903719015
2.7453670501708984,-0.1136811375617981,-0.2519160509109497,2023-10-21T15:55:19.035691Z,1697903719035
2.857701301574707,-0.166081964969635,-0.2633246183395386,2023-10-21T15:55:19.055925Z,1697903719055
2.8984375,-0.21392863988876343,-0.28009915351867676,2023-10-21T15:55:19.076105Z,1697903719076
2.8499765396118164,-0.25328612327575684,-0.2998690605163574,2023-10-21T15:55:19.096379Z,1697903719096
2.702267646789551,-0.2801649570465088,-0.32004785537719727,2023-10-21T15:55:19.118902Z,1697903719118
2.45697021484375,-0.29178810119628906,-0.33757591247558594,2023-10-21T15:55:19.136911Z,1697903719136
2.126439094543457,-0.28659558296203613,-0.3479747772216797,2023-10-21T15:55:19.157214Z,1697903719157
1.7330379486083984,-0.26397156715393066,-0.34430646896362305,2023-10-21T15:55:19.177443Z,1697903719177
1.3038158416748047,-0.22396564483642578,-0.31838560104370117,2023-10-21T15:55:19.197660Z,1697903719197
0.8680486679077148,-0.16787230968475342,-0.26322484016418457,2023-10-21T15:55:19.218723Z,1697903719218
0.46247005462646484,-0.10029411315917969,-0.1758124828338623,2023-10-21T15:55:19.238238Z,1697903719238
0.1315784454345703,-0.031659841537475586,-0.0631418228149414,2023-10-21T15:55:19.258564Z,1697903719258
-0.08462333679199219,0.022018909454345703,0.05135297775268555,2023-10-21T15:55:19.278758Z,1697903719278
-0.15264225006103516,0.04085659980773926,0.11640119552612305,2023-10-21T15:55:19.302056Z,1697903719302
-0.0831904411315918,0.02127397060394287,0.07885408401489258,2023-10-21T15:55:19.319317Z,1697903719319
0.07578325271606445,-0.016406655311584473,-0.08808708190917969,2023-10-21T15:55:19.339573Z,1697903719339
0.2752084732055664,-0.039734065532684326,-0.3833446502685547,2023-10-21T15:55:19.359836Z,1697903719359
0.46842288970947266,-0.016987130045890808,-0.7632913589477539,2023-10-21T15:55:19.380037Z,1697903719380
0.6462283134460449,0.06975287199020386,-1.1946659088134766,2023-10-21T15:55:19.402074Z,1697903719402
0.8068070411682129,0.23094725608825684,-1.6496715545654297,2023-10-21T15:55:19.420606Z,1697903719420
0.9560885429382324,0.474342942237854,-2.1154279708862305,2023-10-21T15:55:19.440898Z,1697903719440
1.101881742477417,0.8026063442230225,-2.575533866882324,2023-10-21T15:55:19.461119Z,1697903719461
1.2441833019256592,1.2028496265411377,-3.0031652450561523,2023-10-21T15:55:19.481285Z,1697903719481
1.3690640926361084,1.6448330879211426,-3.3646650314331055,2023-10-21T15:55:19.501875Z,1697903719501
1.4738006591796875,2.1008901596069336,-3.644216537475586,2023-10-21T15:55:19.521905Z,1697903719521
1.567622423171997,2.546067237854004,-3.8438358306884766,2023-10-21T15:55:19.542218Z,1697903719542
1.6539251804351807,2.9743967056274414,-3.9905614852905273,2023-10-21T15:55:19.562460Z,1697903719562
1.744211196899414,3.3893299102783203,-4.112640857696533,2023-10-21T15:55:19.585276Z,1697903719585
1.8303091526031494,3.795248031616211,-4.223653316497803,2023-10-21T15:55:19.602972Z,1697903719602
1.9211201667785645,4.186530113220215,-4.311018943786621,2023-10-21T15:55:19.623276Z,1697903719623
2.0220446586608887,4.548779487609863,-4.353737831115723,2023-10-21T15:55:19.643525Z,1697903719643
2.128997802734375,4.873917579650879,-4.342989444732666,2023-10-21T15:55:19.663730Z,1697903719663
2.2439675331115723,5.168312072753906,-4.283265590667725,2023-10-21T15:55:19.685148Z,1697903719685
2.37284255027771,5.442249298095703,-4.1802496910095215,2023-10-21T15:55:19.704327Z,1697903719704
2.518334150314331,5.697757720947266,-4.02956485748291,2023-10-21T15:55:19.724597Z,1697903719724
2.680756092071533,5.934999465942383,-3.8261594772338867,2023-10-21T15:55:19.744771Z,1697903719744
2.8582305908203125,6.148136615753174,-3.568049430847168,2023-10-21T15:55:19.764968Z,1697903719764
3.0425119400024414,6.3153886795043945,-3.2553086280822754,2023-10-21T15:55:19.785339Z,1697903719785
3.2075061798095703,6.401341438293457,-2.8900585174560547,2023-10-21T15:55:19.805646Z,1697903719805
3.339341640472412,6.386531829833984,-2.484527587890625,2023-10-21T15:55:19.825907Z,1697903719825
3.4376626014709473,6.259195327758789,-2.0623385906219482,2023-10-21T15:55:19.846154Z,1697903719846
3.4941887855529785,6.023028373718262,-1.6608610153198242,2023-10-21T15:55:19.868379Z,1697903719868
3.515193462371826,5.6844635009765625,-1.3093867301940918,2023-10-21T15:55:19.886683Z,1697903719886
3.4771127700805664,5.242710113525391,-1.024336338043213,2023-10-21T15:55:19.906969Z,1697903719906
3.3771181106567383,4.704269886016846,-0.8062093257904053,2023-10-21T15:55:19.927179Z,1697903719927
3.2069501876831055,4.080248832702637,-0.6485066413879395,2023-10-21T15:55:19.947456Z,1697903719947
2.9551334381103516,3.3959527015686035,-0.54437255859375,2023-10-21T15:55:19.968158Z,1697903719968
2.637972831726074,2.707099437713623,-0.48399555683135986,2023-10-21T15:55:19.988212Z,1697903719988
2.3048534393310547,2.0833964347839355,-0.455952525138855,2023-10-21T15:55:20.008288Z,1697903720008
1.9847760200500488,1.559460163116455,-0.44685816764831543,2023-10-21T15:55:20.028517Z,1697903720028
1.6915364265441895,1.1457452774047852,-0.4441254138946533,2023-10-21T15:55:20.051401Z,1697903720051
1.4455451965332031,0.8364963531494141,-0.4390132427215576,2023-10-21T15:55:20.069024Z,1697903720068
1.237797737121582,0.6073246002197266,-0.4257240295410156,2023-10-21T15:55:20.089333Z,1697903720089
1.0850839614868164,0.44504213333129883,-0.4107379913330078,2023-10-21T15:55:20.109554Z,1697903720109
0.9688119888305664,0.32729148864746094,-0.3963322639465332,2023-10-21T15:55:20.129814Z,1697903720129
0.8814458847045898,0.2416982650756836,-0.3862273693084717,2023-10-21T15:55:20.151356Z,1697903720151
0.8344821929931641,0.18215763568878174,-0.38854122161865234,2023-10-21T15:55:20.170408Z,1697903720170
0.8263568878173828,0.1395050287246704,-0.4058399200439453,2023-10-21T15:55:20.190667Z,1697903720190
0.8497695922851562,0.10614073276519775,-0.4376554489135742,2023-10-21T15:55:20.210843Z,1697903720210
0.9094343185424805,0.07864344120025635,-0.48877859115600586,2023-10-21T15:55:20.231062Z,1697903720231
1.0113201141357422,0.05411577224731445,-0.5641622543334961,2023-10-21T15:55:20.251380Z,1697903720251
1.1509971618652344,0.030205652117729187,-0.6627683639526367,2023-10-21T15:55:20.271747Z,1697903720271
1.3165206909179688,0.00632302463054657,-0.7784786224365234,2023-10-21T15:55:20.291931Z,1697903720291
1.492833137512207,-0.016315825283527374,-0.9021997451782227,2023-10-21T15:55:20.312162Z,1697903720312
1.6705121994018555,-0.035886287689208984,-1.0260977745056152,2023-10-21T15:55:20.334631Z,1697903720334
1.8390064239501953,-0.050664156675338745,-1.1409721374511719,2023-10-21T15:55:20.352719Z,1697903720352
1.9799747467041016,-0.05837985873222351,-1.2341194152832031,2023-10-21T15:55:20.373026Z,1697903720372
2.0739688873291016,-0.0566202849149704,-1.292642593383789,2023-10-21T15:55:20.393288Z,1697903720393
2.108783721923828,-0.04341866075992584,-1.3079471588134766,2023-10-21T15:55:20.413493Z,1697903720413
2.07515811920166,-0.018976114690303802,-1.274052619934082,2023-10-21T15:55:20.434641Z,1697903720434
1.9706926345825195,0.01322317123413086,-1.1911330223083496,2023-10-21T15:55:20.454076Z,1697903720454
1.7979145050048828,0.04712215065956116,-1.064042568206787,2023-10-21T15:55:20.474350Z,1697903720474
1.559469223022461,0.07611513137817383,-0.8990058898925781,2023-10-21T15:55:20.494550Z,1697903720494
1.2638235092163086,0.09408813714981079,-0.7059130668640137,2023-10-21T15:55:20.517889Z,1697903720517
0.9245824813842773,0.09545952081680298,-0.4978365898132324,2023-10-21T15:55:20.535081Z,1697903720535
0.5638628005981445,0.0762324333190918,-0.29135990142822266,2023-10-21T15:55:20.555400Z,1697903720555
0.2084674835205078,0.035417795181274414,-0.10296297073364258,2023-10-21T15:55:20.575674Z,1697903720575
-0.11306571960449219,-0.02335977554321289,0.05324983596801758,2023-10-21T15:55:20.595857Z,1697903720595
-0.3792915344238281,-0.09273719787597656,0.17052602767944336,2023-10-21T15:55:20.617917Z,1697903720617
-0.5740375518798828,-0.1624619960784912,0.24798059463500977,2023-10-21T15:55:20.636400Z,1697903720636
-0.6918492317199707,-0.22283935546875,0.2906196117401123,2023-10-21T15:55:20.656719Z,1697903720656
-0.7335047721862793,-0.2654397487640381,0.304218053817749,2023-10-21T15:55:20.677002Z,1697903720676
-0.7019271850585938,-0.28212642669677734,0.29184865951538086,2023-10-21T15:55:20.697123Z,1697903720697
-0.6049051284790039,-0.26697516441345215,0.25535106658935547,2023-10-21T15:55:20.717698Z,1697903720717
-0.45942068099975586,-0.22002768516540527,0.19864606857299805,2023-10-21T15:55:20.737742Z,1697903720737
-0.28826189041137695,-0.1479654312133789,0.1283576488494873,2023-10-21T15:55:20.758037Z,1697903720757
-0.11121845245361328,-0.060364723205566406,0.0511014461517334,2023-10-21T15:55:20.778267Z,1697903720778
0.05509233474731445,0.03119039535522461,-0.026102304458618164,2023-10-21T15:55:20.801088Z,1697903720801
0.19635295867919922,0.11440658569335938,-0.09558415412902832,2023-10-21T15:55:20.818785Z,1697903720818
0.29700803756713867,0.1759185791015625,-0.14774370193481445,2023-10-21T15:55:20.839111Z,1697903720839
0.347780704498291,0.20697879791259766,-0.17566299438476562,2023-10-21T15:55:20.859332Z,1697903720859
0.34961509704589844,0.20665931701660156,-0.17806434631347656,2023-10-21T15:55:20.879532Z,1697903720879
0.3111133575439453,0.18063068389892578,-0.15874862670898438,2023-10-21T15:55:20.901047Z,1697903720901
0.24496936798095703,0.13821792602539062,-0.12455987930297852,2023-10-21T15:55:20.920164Z,1697903720920
0.16960620880126953,0.09212589263916016,-0.08559203147888184,2023-10-21T15:55:20.940432Z,1697903720940
0.10432052612304688,0.05416440963745117,-0.0520777702331543,2023-10-21T15:55:20.960635Z,1697903720960
0.0652914047241211,0.032286882400512695,-0.0321657657623291,2023-10-21T15:55:20.980801Z,1697903720980
0.062450408935546875,0.029392242431640625,-0.03029465675354004,2023-10-21T15:55:21.001156Z,1697903721001
0.10034561157226562,0.044997453689575195,-0.04785513877868652,2023-10-21T15:55:21.021460Z,1697903721021
0.18184566497802734,0.07776498794555664,-0.08505606651306152,2023-10-21T15:55:21.041725Z,1697903721041
0.30428504943847656,0.12408280372619629,-0.13912200927734375,2023-10-21T15:55:21.061937Z,1697903721061
0.4584226608276367,0.1779947280883789,-0.20405960083007812,2023-10-21T15:55:21.083994Z,1697903721083
0.626530647277832,0.23090791702270508,-0.27030467987060547,2023-10-21T15:55:21.102496Z,1697903721102
0.7858619689941406,0.27349233627319336,-0.3269166946411133,2023-10-21T15:55:21.122799Z,1697903721122
0.9133443832397461,0.2975325584411621,-0.3640785217285156,2023-10-21T15:55:21.142985Z,1697903721142
0.9936923980712891,0.2988715171813965,-0.3767237663269043,2023-10-21T15:55:21.163183Z,1697903721163
1.021195411682129,0.2779569625854492,-0.36513757705688477,2023-10-21T15:55:21.183971Z,1697903721183
0.999333381652832,0.2396547794342041,-0.3342561721801758,2023-10-21T15:55:21.203851Z,1697903721203
0.9371128082275391,0.19132423400878906,-0.29096555709838867,2023-10-21T15:55:21.224131Z,1697903721224
0.845707893371582,0.1405794620513916,-0.2422778606414795,2023-10-21T15:55:21.244313Z,1697903721244
0.738987922668457,0.09394323825836182,-0.19457292556762695,2023-10-21T15:55:21.267414Z,1697903721267
0.6264925003051758,0.055018484592437744,-0.15153121948242188,2023-10-21T15:55:21.284855Z,1697903721284
0.5210943222045898,0.025500893592834473,-0.11621499061584473,2023-10-21T15:55:21.305154Z,1697903721305
0.4365530014038086,0.004880353808403015,-0.09064173698425293,2023-10-21T15:55:21.325410Z,1697903721325
0.383819580078125,-0.009486675262451172,-0.07540249824523926,2023-10-21T15:55:21.345617Z,1697903721345
0.3662071228027344,-0.021303176879882812,-0.0696110725402832,2023-10-21T15:55:21.367122Z,1697903721367
0.3776063919067383,-0.0335732102394104,-0.07121050357818604,2023-10-21T15:55:21.386199Z,1697903721386
0.40648746490478516,-0.047673583030700684,-0.07774507999420166,2023-10-21T15:55:21.406560Z,1697903721406
0.4420957565307617,-0.06372714042663574,-0.08725666999816895,2023-10-21T15:55:21.426659Z,1697903721426
0.4761514663696289,-0.08126068115234375,-0.09824132919311523,2023-10-21T15:55:21.446873Z,1697903721446
0.5003814697265625,-0.09895002841949463,-0.10904073715209961,2023-10-21T15:55:21.467209Z,1697903721467
0.5076608657836914,-0.11466670036315918,-0.11783027648925781,2023-10-21T15:55:21.487526Z,1697903721487
0.490264892578125,-0.12508797645568848,-0.1222076416015625,2023-10-21T15:55:21.507805Z,1697903721507
0.4433279037475586,-0.12677001953125,-0.11970043182373047,2023-10-21T15:55:21.528017Z,1697903721527
0.3675193786621094,-0.11716938018798828,-0.10860896110534668,2023-10-21T15:55:21.550483Z,1697903721550
0.26828479766845703,-0.09504175186157227,-0.08788442611694336,2023-10-21T15:55:21.568573Z,1697903721568
0.1514577865600586,-0.05945539474487305,-0.05588889122009277,2023-10-21T15:55:21.588858Z,1697903721588
0.024474143981933594,-0.010613679885864258,-0.010370969772338867,2023-10-21T15:55:21.609068Z,1697903721609
-0.09925365447998047,0.04735279083251953,0.049239397048950195,2023-10-21T15:55:21.629303Z,1697903721629
-0.19892168045043945,0.103668212890625,0.11745548248291016,2023-10-21T15:55:21.650646Z,1697903721650
-0.2499098777770996,0.14006781578063965,0.1774578094482422,2023-10-21T15:55:21.669914Z,1697903721669
-0.2345743179321289,0.13718914985656738,0.2004251480102539,2023-10-21T15:55:21.690182Z,1697903721690
-0.16385746002197266,0.09607124328613281,0.16680335998535156,2023-10-21T15:55:21.710388Z,1697903721710
-0.07534503936767578,0.042324066162109375,0.09043025970458984,2023-10-21T15:55:21.733700Z,1697903721733
0.003765106201171875,-0.0019154548645019531,-0.005270481109619141,2023-10-21T15:55:21.750941Z,1697903721750
0.07229375839233398,-0.030356407165527344,-0.11647891998291016,2023-10-21T15:55:21.771217Z,1697903721771
0.13717079162597656,-0.039471983909606934,-0.2492351531982422,2023-10-21T15:55:21.791443Z,1697903721791
0.21103572845458984,-0.023835688829421997,-0.4199562072753906,2023-10-21T15:55:21.811732Z,1697903721811
0.2893514633178711,0.02811610698699951,-0.6154193878173828,2023-10-21T15:55:21.833628Z,1697903721833
0.3753693103790283,0.12572073936462402,-0.8333730697631836,2023-10-21T15:55:21.852246Z,1697903721852
0.4695127010345459,0.2763500213623047,-1.0654382705688477,2023-10-21T15:55:21.872581Z,1697903721872
0.5635395050048828,0.477139949798584,-1.2896366119384766,2023-10-21T15:55:21.892763Z,1697903721892
0.6584634780883789,0.7271981239318848,-1.5081815719604492,2023-10-21T15:55:21.912939Z,1697903721912
0.7685608863830566,1.032303810119629,-1.7369470596313477,2023-10-21T15:55:21.933530Z,1697903721933
0.9061744213104248,1.398447036743164,-1.9864959716796875,2023-10-21T15:55:21.953591Z,1697903721953
1.0653347969055176,1.8120331764221191,-2.238877296447754,2023-10-21T15:55:21.973836Z,1697903721973
1.2342324256896973,2.2525978088378906,-2.476607322692871,2023-10-21T15:55:21.994145Z,1697903721994
1.4004883766174316,2.70542573928833,-2.686079978942871,2023-10-21T15:55:22.016678Z,1697903722016
1.575113296508789,3.1631598472595215,-2.864647388458252,2023-10-21T15:55:22.034610Z,1697903722034
1.759200096130371,3.612786293029785,-3.004237174987793,2023-10-21T15:55:22.054911Z,1697903722054
1.9476099014282227,4.042768478393555,-3.097172737121582,2023-10-21T15:55:22.075171Z,1697903722075
2.1392552852630615,4.44986629486084,-3.1391563415527344,2023-10-21T15:55:22.095364Z,1697903722095
2.337526559829712,4.829309940338135,-3.1247401237487793,2023-10-21T15:55:22.116821Z,1697903722116
2.543612241744995,5.174637794494629,-3.0509042739868164,2023-10-21T15:55:22.136020Z,1697903722135
2.755713939666748,5.481205940246582,-2.918574333190918,2023-10-21T15:55:22.156266Z,1697903722156
2.962066650390625,5.732667922973633,-2.7267353534698486,2023-10-21T15:55:22.176439Z,1697903722176
3.1363582611083984,5.899041175842285,-2.473825693130493,2023-10-21T15:55:22.196647Z,1697903722196
3.2656335830688477,5.96872615814209,-2.1762807369232178,2023-10-21T15:55:22.216987Z,1697903722216
3.3627524375915527,5.939570426940918,-1.859950065612793,2023-10-21T15:55:22.237318Z,1697903722237
3.4377150535583496,5.817004203796387,-1.5553297996520996,2023-10-21T15:55:22.257556Z,1697903722257
3.4807348251342773,5.595536231994629,-1.278226375579834,2023-10-21T15:55:22.277754Z,1697903722277
3.4732532501220703,5.273329734802246,-1.0409395694732666,2023-10-21T15:55:22.299915Z,1697903722299
3.395038604736328,4.86365270614624,-0.8479490280151367,2023-10-21T15:55:22.318321Z,1697903722318
3.2606968879699707,4.389420986175537,-0.702155590057373,2023-10-21T15:55:22.338621Z,1697903722338
3.07205867767334,3.8667116165161133,-0.6015975475311279,2023-10-21T15:55:22.358847Z,1697903722358
2.842578887939453,3.326017379760742,-0.5423436164855957,2023-10-21T15:55:22.379077Z,1697903722379
2.6092042922973633,2.8183531761169434,-0.5204288959503174,2023-10-21T15:55:22.399940Z,1697903722399
2.3963470458984375,2.371941566467285,-0.5236434936523438,2023-10-21T15:55:22.419678Z,1697903722419
2.1917920112609863,1.98577880859375,-0.5366363525390625,2023-10-21T15:55:22.439982Z,1697903722439
1.9817628860473633,1.649266242980957,-0.5436663627624512,2023-10-21T15:55:22.460185Z,1697903722460
1.7776060104370117,1.363783359527588,-0.5412571430206299,2023-10-21T15:55:22.483171Z,1697903722483
1.5957798957824707,1.1301617622375488,-0.5315158367156982,2023-10-21T15:55:22.500681Z,1697903722500
1.4517383575439453,0.9448561668395996,-0.5215468406677246,2023-10-21T15:55:22.520981Z,1697903722520
1.324244499206543,0.7909154891967773,-0.5094218254089355,2023-10-21T15:55:22.541162Z,1697903722541
1.2138481140136719,0.6653413772583008,-0.49759817123413086,2023-10-21T15:55:22.561514Z,1697903722561
1.1299448013305664,0.568634033203125,-0.4911806583404541,2023-10-21T15:55:22.583100Z,1697903722583
1.0732126235961914,0.4957084655761719,-0.49212074279785156,2023-10-21T15:55:22.601992Z,1697903722601
1.0386533737182617,0.44054579734802246,-0.5003526210784912,2023-10-21T15:55:22.622299Z,1697903722622
1.026113510131836,0.40009045600891113,-0.517397403717041,2023-10-21T15:55:22.642529Z,1697903722642
1.033371925354004,0.3704853057861328,-0.5434951782226562,2023-10-21T15:55:22.662764Z,1697903722662
1.0542211532592773,0.347362756729126,-0.5767989158630371,2023-10-21T15:55:22.683080Z,1697903722683
1.0847043991088867,0.3280670642852783,-0.6160950660705566,2023-10-21T15:55:22.703338Z,1697903722703
1.1224489212036133,0.31108641624450684,-0.6606554985046387,2023-10-21T15:55:22.723550Z,1697903722723
1.1651296615600586,0.2954277992248535,-0.7088584899902344,2023-10-21T15:55:22.743817Z,1697903722743
1.2090234756469727,0.28038644790649414,-0.7574954032897949,2023-10-21T15:55:22.766309Z,1697903722766
1.2460393905639648,0.2652862071990967,-0.8006811141967773,2023-10-21T15:55:22.784392Z,1697903722784
1.2680959701538086,0.25001728534698486,-0.8322367668151855,2023-10-21T15:55:22.804664Z,1697903722804
1.2732610702514648,0.23536217212677002,-0.8495821952819824,2023-10-21T15:55:22.824864Z,1697903722824
1.2627887725830078,0.22196388244628906,-0.8521332740783691,2023-10-21T15:55:22.845094Z,1697903722845
1.2382164001464844,0.210199236869812,-0.8396072387695312,2023-10-21T15:55:22.866220Z,1697903722866
1.1990222930908203,0.2001659870147705,-0.811039924621582,2023-10-21T15:55:22.885745Z,1697903722885
1.1429033279418945,0.19168329238891602,-0.7651138305664062,2023-10-21T15:55:22.905982Z,1697903722905
1.0670080184936523,0.1839977502822876,-0.7012801170349121,2023-10-21T15:55:22.926155Z,1697903722926
0.9715175628662109,0.17594397068023682,-0.6219329833984375,2023-10-21T15:55:22.949590Z,1697903722949
0.8613548278808594,0.16620612144470215,-0.5331306457519531,2023-10-21T15:55:22.966712Z,1697903722966
0.7441015243530273,0.15391385555267334,-0.4423508644104004,2023-10-21T15:55:22.987032Z,1697903722986
0.6291799545288086,0.1394188404083252,-0.35718727111816406,2023-10-21T15:55:23.007242Z,1697903723007
0.521510124206543,0.12333166599273682,-0.2814302444458008,2023-10-21T15:55:23.027478Z,1697903723027
0.4210548400878906,0.10585951805114746,-0.2153334617614746,2023-10-21T15:55:23.049312Z,1697903723049
0.3269977569580078,0.08715152740478516,-0.15828800201416016,2023-10-21T15:55:23.068062Z,1697903723068
0.2403125762939453,0.06772017478942871,-0.11016082763671875,2023-10-21T15:55:23.088383Z,1697903723088
0.1649951934814453,0.04898405075073242,-0.07178926467895508,2023-10-21T15:55:23.108561Z,1697903723108
0.10650253295898438,0.03314495086669922,-0.04413485527038574,2023-10-21T15:55:23.128780Z,1697903723128
0.06727981567382812,0.021830081939697266,-0.02666473388671875,2023-10-21T15:55:23.149366Z,1697903723149
0.047247886657714844,0.015914201736450195,-0.017983436584472656,2023-10-21T15:55:23.169392Z,1697903723169
0.04485034942626953,0.015635967254638672,-0.01645040512084961,2023-10-21T15:55:23.189683Z,1697903723189
0.05704212188720703,0.020557165145874023,-0.020219802856445312,2023-10-21T15:55:23.209864Z,1697903723209
0.08029651641845703,0.029900550842285156,-0.02756476402282715,2023-10-21T15:55:23.232703Z,1697903723232
0.11185359954833984,0.04302191734313965,-0.03725266456604004,2023-10-21T15:55:23.250428Z,1697903723250
0.1473836898803711,0.05848073959350586,-0.04769563674926758,2023-10-21T15:55:23.270736Z,1697903723270
0.18184280395507812,0.07427573204040527,-0.057285308837890625,2023-10-21T15:55:23.291026Z,1697903723290
0.21042156219482422,0.08826136589050293,-0.06468510627746582,2023-10-21T15:55:23.311185Z,1697903723311
0.22695350646972656,0.09759378433227539,-0.06829500198364258,2023-10-21T15:55:23.332541Z,1697903723332
0.22643566131591797,0.09976553916931152,-0.06696105003356934,2023-10-21T15:55:23.351839Z,1697903723351
0.20506763458251953,0.09260082244873047,-0.059882402420043945,2023-10-21T15:55:23.372126Z,1697903723372
0.16193771362304688,0.07498359680175781,-0.04699373245239258,2023-10-21T15:55:23.392311Z,1697903723392
0.10081768035888672,0.04787302017211914,-0.029328584671020508,2023-10-21T15:55:23.412471Z,1697903723412
0.02847766876220703,0.013860702514648438,-0.00839543342590332,2023-10-21T15:55:23.432805Z,1697903723432
-0.04658317565917969,-0.023219585418701172,0.014088630676269531,2023-10-21T15:55:23.453082Z,1697903723453
-0.11527538299560547,-0.05881452560424805,0.03617286682128906,2023-10-21T15:55:23.473361Z,1697903723473
-0.16952991485595703,-0.08854818344116211,0.05568861961364746,2023-10-21T15:55:23.493586Z,1697903723493
-0.20462608337402344,-0.10950374603271484,0.0707712173461914,2023-10-21T15:55:23.515772Z,1697903723515
-0.21815919876098633,-0.11967849731445312,0.07964110374450684,2023-10-21T15:55:23.534110Z,1697903723534
-0.20975494384765625,-0.11789655685424805,0.08079147338867188,2023-10-21T15:55:23.554400Z,1697903723554
-0.18071699142456055,-0.10387229919433594,0.07324671745300293,2023-10-21T15:55:23.574603Z,1697903723574
-0.1335458755493164,-0.07827234268188477,0.05670666694641113,2023-10-21T15:55:23.594876Z,1697903723594
-0.0735921859741211,-0.04385852813720703,0.032549381256103516,2023-10-21T15:55:23.615458Z,1697903723615
-0.007256507873535156,-0.00438690185546875,0.0033223628997802734,2023-10-21T15:55:23.635432Z,1697903723635
0.05940055847167969,0.03636360168457031,-0.02796769142150879,2023-10-21T15:55:23.655762Z,1697903723655
0.12169361114501953,0.07532548904418945,-0.05861830711364746,2023-10-21T15:55:23.675974Z,1697903723675
0.17682886123657227,0.11051750183105469,-0.08677983283996582,2023-10-21T15:55:23.698857Z,1697903723698
0.22407960891723633,0.14122390747070312,-0.11171340942382812,2023-10-21T15:55:23.716493Z,1697903723716
0.2647695541381836,0.16805171966552734,-0.13383054733276367,2023-10-21T15:55:23.736773Z,1697903723736
0.3011140823364258,0.19227981567382812,-0.1541440486907959,2023-10-21T15:55:23.756989Z,1697903723756
0.33605289459228516,0.21573972702026367,-0.17412996292114258,2023-10-21T15:55:23.777248Z,1697903723777
0.3715553283691406,0.23967552185058594,-0.19481420516967773,2023-10-21T15:55:23.798958Z,1697903723798
0.408355712890625,0.2645096778869629,-0.216552734375,2023-10-21T15:55:23.817869Z,1697903723817
0.4465951919555664,0.29018592834472656,-0.2393512725830078,2023-10-21T15:55:23.838116Z,1697903723838
0.4852743148803711,0.3158855438232422,-0.2625722885131836,2023-10-21T15:55:23.858356Z,1697903723858
0.5228071212768555,0.34040069580078125,-0.28522491455078125,2023-10-21T15:55:23.878538Z,1697903723878
0.5565247535705566,0.361879825592041,-0.3056817054748535,2023-10-21T15:55:23.898891Z,1697903723898
0.5825862884521484,0.37777042388916016,-0.3216423988342285,2023-10-21T15:55:23.919150Z,1697903723919
0.5971603393554688,0.3856058120727539,-0.33083581924438477,2023-10-21T15:55:23.939401Z,1697903723939
0.5977001190185547,0.3838310241699219,-0.33177709579467773,2023-10-21T15:55:23.959632Z,1697903723959
0.5825228691101074,0.3715782165527344,-0.32355785369873047,2023-10-21T15:55:23.982241Z,1697903723982
0.5509428977966309,0.34880638122558594,-0.30593061447143555,2023-10-21T15:55:24.000206Z,1697903724000
0.5037527084350586,0.31649017333984375,-0.27950334548950195,2023-10-21T15:55:24.020528Z,1697903724020
0.4432530403137207,0.27651405334472656,-0.24574851989746094,2023-10-21T15:55:24.040687Z,1697903724040
0.3733711242675781,0.23154878616333008,-0.20693254470825195,2023-10-21T15:55:24.060940Z,1697903724060
0.29875993728637695,0.18447494506835938,-0.1656327247619629,2023-10-21T15:55:24.082075Z,1697903724082
0.2237401008605957,0.13778924942016602,-0.12413978576660156,2023-10-21T15:55:24.101503Z,1697903724101
0.15228033065795898,0.09369802474975586,-0.08456182479858398,2023-10-21T15:55:24.121813Z,1697903724121
0.08750772476196289,0.0538935661315918,-0.048612117767333984,2023-10-21T15:55:24.142009Z,1697903724141
0.031796932220458984,0.01963329315185547,-0.017650127410888672,2023-10-21T15:55:24.165415Z,1697903724165
-0.012326717376708984,-0.007642269134521484,0.006823539733886719,2023-10-21T15:55:24.182568Z,1697903724182
-0.042467594146728516,-0.026459217071533203,0.02339029312133789,2023-10-21T15:55:24.202863Z,1697903724202
-0.05659914016723633,-0.03545236587524414,0.03092479705810547,2023-10-21T15:55:24.223067Z,1697903724223
-0.05453062057495117,-0.03433990478515625,0.029460430145263672,2023-10-21T15:55:24.243309Z,1697903724243
-0.03751993179321289,-0.02375507354736328,0.019971847534179688,2023-10-21T15:55:24.265325Z,1697903724265
-0.009293556213378906,-0.005918025970458984,0.004855155944824219,2023-10-21T15:55:24.284Z,1697903724283
0.02591228485107422,0.016595840454101562,-0.01323080062866211,2023-10-21T15:55:24.304181Z,1697903724304
0.06441831588745117,0.04150581359863281,-0.03202414512634277,2023-10-21T15:55:24.324362Z,1697903724324
0.10376787185668945,0.06724786758422852,-0.05004453659057617,2023-10-21T15:55:24.344677Z,1697903724344
0.1427173614501953,0.09298515319824219,-0.0665745735168457,2023-10-21T15:55:24.365259Z,1697903724365
0.18011140823364258,0.11791849136352539,-0.08107709884643555,2023-10-21T15:55:24.385277Z,1697903724385
0.2139878273010254,0.14074134826660156,-0.09278631210327148,2023-10-21T15:55:24.405546Z,1697903724405
0.2420797348022461,0.15994930267333984,-0.10094547271728516,2023-10-21T15:55:24.425704Z,1697903724425
0.26239919662475586,0.17419958114624023,-0.10505485534667969,2023-10-21T15:55:24.448473Z,1697903724448
0.2737388610839844,0.1826004981994629,-0.10506677627563477,2023-10-21T15:55:24.466285Z,1697903724466
0.2775611877441406,0.18600034713745117,-0.10204100608825684,2023-10-21T15:55:24.486569Z,1697903724486
0.27717018127441406,0.18650531768798828,-0.0976417064666748,2023-10-21T15:55:24.506826Z,1697903724506
0.27624082565307617,0.18659257888793945,-0.0934751033782959,2023-10-21T15:55:24.527029Z,1697903724526
0.2777247428894043,0.18834304809570312,-0.09068083763122559,2023-10-21T15:55:24.548430Z,1697903724548
0.28247785568237305,0.19250202178955078,-0.08954286575317383,2023-10-21T15:55:24.567625Z,1697903724567
0.28964710235595703,0.19864130020141602,-0.08978438377380371,2023-10-21T15:55:24.587907Z,1697903724587
0.2978949546813965,0.20593547821044922,-0.09100770950317383,2023-10-21T15:55:24.608098Z,1697903724608
0.30583667755126953,0.21338367462158203,-0.09284162521362305,2023-10-21T15:55:24.628303Z,1697903724628
0.3125476837158203,0.2202134132385254,-0.09505987167358398,2023-10-21T15:55:24.648639Z,1697903724648
0.31709957122802734,0.22563982009887695,-0.09741783142089844,2023-10-21T15:55:24.668944Z,1697903724668
0.3174610137939453,0.2281184196472168,-0.09921741485595703,2023-10-21T15:55:24.689117Z,1697903724689
0.31066036224365234,0.22541093826293945,-0.09931087493896484,2023-10-21T15:55:24.709395Z,1697903724709
0.2932109832763672,0.21481561660766602,-0.09620380401611328,2023-10-21T15:55:24.731639Z,1697903724731
0.26253700256347656,0.19412517547607422,-0.08856368064880371,2023-10-21T15:55:24.749965Z,1697903724749
0.21787786483764648,0.16239166259765625,-0.0756216049194336,2023-10-21T15:55:24.770256Z,1697903724770
0.16198301315307617,0.12143659591674805,-0.057886600494384766,2023-10-21T15:55:24.790439Z,1697903724790
0.10007429122924805,0.07527303695678711,-0.03687453269958496,2023-10-21T15:55:24.810748Z,1697903724810
0.03790140151977539,0.028553009033203125,-0.01443791389465332,2023-10-21T15:55:24.831506Z,1697903724831
-0.019074440002441406,-0.014382362365722656,0.007536649703979492,2023-10-21T15:55:24.851275Z,1697903724851
-0.06696510314941406,-0.05057382583618164,0.027545928955078125,2023-10-21T15:55:24.871563Z,1697903724871
-0.10264921188354492,-0.07778024673461914,0.04410529136657715,2023-10-21T15:55:24.891804Z,1697903724891
-0.12322854995727539,-0.09386539459228516,0.05544877052307129,2023-10-21T15:55:24.914826Z,1697903724914
-0.1263589859008789,-0.09692716598510742,0.05963921546936035,2023-10-21T15:55:24.932325Z,1697903724932
-0.11116695404052734,-0.08600187301635742,0.05505681037902832,2023-10-21T15:55:24.952627Z,1697903724952
-0.07851266860961914,-0.0613408088684082,0.040757179260253906,2023-10-21T15:55:24.972886Z,1697903724972
-0.032799720764160156,-0.025911808013916016,0.017798662185668945,2023-10-21T15:55:24.993072Z,1697903724993
0.019313812255859375,0.015442848205566406,-0.010912656784057617,2023-10-21T15:55:25.014542Z,1697903725014
0.07105398178100586,0.057498931884765625,-0.041586875915527344,2023-10-21T15:55:25.033670Z,1697903725033
0.11673307418823242,0.09549188613891602,-0.07035684585571289,2023-10-21T15:55:25.053951Z,1697903725053
0.15365123748779297,0.1267542839050293,-0.09479665756225586,2023-10-21T15:55:25.074214Z,1697903725074
0.18156051635742188,0.1505599021911621,-0.1140294075012207,2023-10-21T15:55:25.094383Z,1697903725094
0.20135116577148438,0.1672677993774414,-0.12812137603759766,2023-10-21T15:55:25.114859Z,1697903725114
0.21486139297485352,0.17828607559204102,-0.13800048828125,2023-10-21T15:55:25.135006Z,1697903725134
0.22418546676635742,0.18540239334106445,-0.1449413299560547,2023-10-21T15:55:25.155216Z,1697903725155
0.2314925193786621,0.19051218032836914,-0.1503758430480957,2023-10-21T15:55:25.175445Z,1697903725175
0.23941278457641602,0.19583749771118164,-0.15606689453125,2023-10-21T15:55:25.197937Z,1697903725197
0.2501850128173828,0.2032017707824707,-0.16355466842651367,2023-10-21T15:55:25.216111Z,1697903725216
0.2650313377380371,0.21354007720947266,-0.1736893653869629,2023-10-21T15:55:25.236307Z,1697903725236
0.2835392951965332,0.22645139694213867,-0.18622064590454102,2023-10-21T15:55:25.256524Z,1697903725256
0.30373382568359375,0.24030542373657227,-0.19982004165649414,2023-10-21T15:55:25.276754Z,1697903725276
0.32282543182373047,0.2528839111328125,-0.21261119842529297,2023-10-21T15:55:25.297766Z,1697903725297
0.3381471633911133,0.2621121406555176,-0.22278070449829102,2023-10-21T15:55:25.317344Z,1697903725317
0.34732770919799805,0.2661862373352051,-0.2286982536315918,2023-10-21T15:55:25.337633Z,1697903725337
0.34842967987060547,0.2637462615966797,-0.2290358543395996,2023-10-21T15:55:25.357816Z,1697903725357
0.3407754898071289,0.2544722557067871,-0.22331476211547852,2023-10-21T15:55:25.381009Z,1697903725380
0.3245706558227539,0.23881816864013672,-0.21169281005859375,2023-10-21T15:55:25.398362Z,1697903725398
0.3012275695800781,0.2181563377380371,-0.19519662857055664,2023-10-21T15:55:25.418705Z,1697903725418
0.2726931571960449,0.19426345825195312,-0.1752614974975586,2023-10-21T15:55:25.438930Z,1697903725438
0.24135303497314453,0.16910409927368164,-0.15361690521240234,2023-10-21T15:55:25.459134Z,1697903725459
0.20936155319213867,0.14432191848754883,-0.13176679611206055,2023-10-21T15:55:25.481132Z,1697903725481
0.17815780639648438,0.12091541290283203,-0.11069536209106445,2023-10-21T15:55:25.499761Z,1697903725499
0.14871501922607422,0.09946584701538086,-0.09104633331298828,2023-10-21T15:55:25.519999Z,1697903725519
0.1219935417175293,0.08049488067626953,-0.0734395980834961,2023-10-21T15:55:25.540179Z,1697903725540
0.09992074966430664,0.06512212753295898,-0.05902528762817383,2023-10-21T15:55:25.560419Z,1697903725560
0.08377456665039062,0.05401039123535156,-0.04847002029418945,2023-10-21T15:55:25.580928Z,1697903725580
0.07396125793457031,0.047254085540771484,-0.04183530807495117,2023-10-21T15:55:25.601074Z,1697903725601
0.0701146125793457,0.04448986053466797,-0.03869485855102539,2023-10-21T15:55:25.621328Z,1697903725621
0.0715785026550293,0.04520988464355469,-0.03846168518066406,2023-10-21T15:55:25.641501Z,1697903725641
0.07814693450927734,0.04923868179321289,-0.04078984260559082,2023-10-21T15:55:25.664336Z,1697903725664
0.08919620513916016,0.056177616119384766,-0.04512667655944824,2023-10-21T15:55:25.682082Z,1697903725682
0.10339927673339844,0.06522369384765625,-0.05060410499572754,2023-10-21T15:55:25.702403Z,1697903725702
0.11913061141967773,0.0753936767578125,-0.05630230903625488,2023-10-21T15:55:25.722578Z,1697903725722
0.13464927673339844,0.08562183380126953,-0.06135392189025879,2023-10-21T15:55:25.742821Z,1697903725742
0.1483473777770996,0.09491300582885742,-0.06508898735046387,2023-10-21T15:55:25.764056Z,1697903725764
0.15920066833496094,0.1025996208190918,-0.06719326972961426,2023-10-21T15:55:25.783439Z,1697903725783
0.1667485237121582,0.10834407806396484,-0.06764507293701172,2023-10-21T15:55:25.803744Z,1697903725803
0.17044639587402344,0.11170816421508789,-0.06639981269836426,2023-10-21T15:55:25.823923Z,1697903725823
0.17038869857788086,0.11264514923095703,-0.06366777420043945,2023-10-21T15:55:25.844120Z,1697903725844
0.1661825180053711,0.11078882217407227,-0.059485435485839844,2023-10-21T15:55:25.864463Z,1697903725864
0.15787792205810547,0.10609149932861328,-0.05407452583312988,2023-10-21T15:55:25.884737Z,1697903725884
0.14600658416748047,0.09885597229003906,-0.047827720642089844,2023-10-21T15:55:25.904949Z,1697903725904
0.13160943984985352,0.08975982666015625,-0.041251420974731445,2023-10-21T15:55:25.925228Z,1697903725925
0.11725759506225586,0.08054113388061523,-0.03522992134094238,2023-10-21T15:55:25.947471Z,1697903725947
0.10603475570678711,0.0733499526977539,-0.030647993087768555,2023-10-21T15:55:25.965787Z,1697903725965
0.10082292556762695,0.07027053833007812,-0.028185606002807617,2023-10-21T15:55:25.986091Z,1697903725986
0.10305404663085938,0.07244396209716797,-0.02805638313293457,2023-10-21T15:55:26.006289Z,1697903726006
0.1126718521118164,0.08000993728637695,-0.03010392189025879,2023-10-21T15:55:26.026502Z,1697903726026
0.12707042694091797,0.09129762649536133,-0.03354930877685547,2023-10-21T15:55:26.047345Z,1697903726047
0.14309263229370117,0.10412073135375977,-0.0375213623046875,2023-10-21T15:55:26.067092Z,1697903726067
0.15775632858276367,0.1162419319152832,-0.041199445724487305,2023-10-21T15:55:26.087405Z,1697903726087
0.16947126388549805,0.1263117790222168,-0.04412698745727539,2023-10-21T15:55:26.107646Z,1697903726107
0.17670297622680664,0.13299798965454102,-0.0458829402923584,2023-10-21T15:55:26.130622Z,1697903726130
0.1764392852783203,0.13390398025512695,-0.04565143585205078,2023-10-21T15:55:26.148295Z,1697903726148
0.16461753845214844,0.12581586837768555,-0.042360544204711914,2023-10-21T15:55:26.168474Z,1697903726168
0.1381988525390625,0.10624170303344727,-0.035256266593933105,2023-10-21T15:55:26.188689Z,1697903726188
0.0975956916809082,0.07533454895019531,-0.024599432945251465,2023-10-21T15:55:26.208874Z,1697903726208
0.04686260223388672,0.03623771667480469,-0.011642098426818848,2023-10-21T15:55:26.230567Z,1697903726230
-0.007055759429931641,-0.005451679229736328,0.0017287731170654297,2023-10-21T15:55:26.249524Z,1697903726249
-0.056893348693847656,-0.04384040832519531,0.013782143592834473,2023-10-21T15:55:26.269724Z,1697903726269
-0.09735918045043945,-0.07472991943359375,0.023468971252441406,2023-10-21T15:55:26.289948Z,1697903726289
-0.1255345344543457,-0.09590816497802734,0.030293703079223633,2023-10-21T15:55:26.310186Z,1697903726310
-0.13930702209472656,-0.10580778121948242,0.03383135795593262,2023-10-21T15:55:26.330488Z,1697903726330
-0.13633346557617188,-0.10268974304199219,0.03345298767089844,2023-10-21T15:55:26.350838Z,1697903726350
-0.11299610137939453,-0.08404874801635742,0.02808380126953125,2023-10-21T15:55:26.371055Z,1697903726371
-0.06570720672607422,-0.04799461364746094,0.016561031341552734,2023-10-21T15:55:26.391272Z,1697903726391
0.00811767578125,0.005787372589111328,-0.002074122428894043,2023-10-21T15:55:26.413596Z,1697903726413
0.10840749740600586,0.07500839233398438,-0.028057336807250977,2023-10-21T15:55:26.431872Z,1697903726431
0.23044204711914062,0.15407085418701172,-0.06029009819030762,2023-10-21T15:55:26.452169Z,1697903726452
0.36728572845458984,0.23649024963378906,-0.09689140319824219,2023-10-21T15:55:26.472364Z,1697903726472
0.5114040374755859,0.3161911964416504,-0.1357107162475586,2023-10-21T15:55:26.492557Z,1697903726492
0.6575088500976562,0.3893556594848633,-0.1752631664276123,2023-10-21T15:55:26.513629Z,1697903726513
0.8002357482910156,0.45301103591918945,-0.2142186164855957,2023-10-21T15:55:26.533153Z,1697903726533
0.93402099609375,0.5050935745239258,-0.2513000965118408,2023-10-21T15:55:26.553458Z,1697903726553
1.0521364212036133,0.5438671112060547,-0.2848634719848633,2023-10-21T15:55:26.573659Z,1697903726573
1.1481361389160156,0.5682811737060547,-0.3130366802215576,2023-10-21T15:55:26.596891Z,1697903726596
1.2164192199707031,0.5775547027587891,-0.33370447158813477,2023-10-21T15:55:26.614249Z,1697903726614
1.2555818557739258,0.5722341537475586,-0.34559154510498047,2023-10-21T15:55:26.634502Z,1697903726634
1.2708806991577148,0.5551702976226807,-0.3494579792022705,2023-10-21T15:55:26.654780Z,1697903726654
1.273545265197754,0.5314910411834717,-0.34828972816467285,2023-10-21T15:55:26.674967Z,1697903726674
1.2757291793823242,0.5067524909973145,-0.34552812576293945,2023-10-21T15:55:26.696735Z,1697903726696
1.2845373153686523,0.48390960693359375,-0.3428628444671631,2023-10-21T15:55:26.715458Z,1697903726715
1.3017244338989258,0.46300387382507324,-0.3401682376861572,2023-10-21T15:55:26.735825Z,1697903726735
1.325556755065918,0.4420125484466553,-0.33660078048706055,2023-10-21T15:55:26.755991Z,1697903726755
1.3535852432250977,0.41842031478881836,-0.3319995403289795,2023-10-21T15:55:26.776221Z,1697903726776
1.3834819793701172,0.39025163650512695,-0.3272254467010498,2023-10-21T15:55:26.796724Z,1697903726796
1.4107551574707031,0.3558213710784912,-0.3232121467590332,2023-10-21T15:55:26.816855Z,1697903726816
1.427175521850586,0.31390810012817383,-0.320171594619751,2023-10-21T15:55:26.837121Z,1697903726837
1.4203243255615234,0.2639174461364746,-0.3171555995941162,2023-10-21T15:55:26.857336Z,1697903726857
1.3713798522949219,0.2058011293411255,-0.31119656562805176,2023-10-21T15:55:26.880197Z,1697903726880
1.2602806091308594,0.14153659343719482,-0.2976706027984619,2023-10-21T15:55:26.897878Z,1697903726897
1.0746545791625977,0.0770367980003357,-0.2715308666229248,2023-10-21T15:55:26.918170Z,1697903726918
0.8155603408813477,0.022606194019317627,-0.22731280326843262,2023-10-21T15:55:26.938388Z,1697903726938
0.4978475570678711,-0.009791299700737,-0.1576709747314453,2023-10-21T15:55:26.958681Z,1697903726958
0.14469146728515625,-0.010181725025177002,-0.05334925651550293,2023-10-21T15:55:26.980122Z,1697903726980
-0.21806049346923828,0.027055740356445312,0.09556365013122559,2023-10-21T15:55:26.999222Z,1697903726999
-0.5536856651306152,0.09894084930419922,0.2948112487792969,2023-10-21T15:55:27.019502Z,1697903727019
-0.7959756851196289,0.1830967664718628,0.525118350982666,2023-10-21T15:55:27.039741Z,1697903727039
-0.887336254119873,0.2397768497467041,0.732090950012207,2023-10-21T15:55:27.059902Z,1697903727059
-0.8159503936767578,0.2361663579940796,0.837376594543457,2023-10-21T15:55:27.080253Z,1697903727080
-0.6438412666320801,0.17883145809173584,0.808866024017334,2023-10-21T15:55:27.100543Z,1697903727100
-0.4501023292541504,0.1027834415435791,0.682279109954834,2023-10-21T15:55:27.120758Z,1697903727120
-0.26301145553588867,0.03563195466995239,0.4732379913330078,2023-10-21T15:55:27.140980Z,1697903727140
-0.09188175201416016,-4.947669804096222E-4,0.1914806365966797,2023-10-21T15:55:27.163400Z,1697903727163
0.08105707168579102,0.01534658670425415,-0.18978309631347656,2023-10-21T15:55:27.181586Z,1697903727181
0.25692296028137207,0.10389399528503418,-0.6543827056884766,2023-10-21T15:55:27.201874Z,1697903727201
0.4245157241821289,0.2676517963409424,-1.141958236694336,2023-10-21T15:55:27.222116Z,1697903727222
0.5777325630187988,0.4914419651031494,-1.6042594909667969,2023-10-21T15:55:27.242363Z,1697903727242
0.7097029685974121,0.7521157264709473,-2.010883331298828,2023-10-21T15:55:27.263103Z,1697903727263
0.8066935539245605,1.0280251502990723,-2.3418378829956055,2023-10-21T15:55:27.283021Z,1697903727282
0.8748898506164551,1.3105406761169434,-2.6123924255371094,2023-10-21T15:55:27.303199Z,1697903727303
0.945314884185791,1.605146884918213,-2.858633041381836,2023-10-21T15:55:27.323405Z,1697903727323
1.0308210849761963,1.915104866027832,-3.091366767883301,2023-10-21T15:55:27.346532Z,1697903727346
1.1300010681152344,2.242277145385742,-3.313840389251709,2023-10-21T15:55:27.364033Z,1697903727363
1.2303519248962402,2.581422805786133,-3.4976987838745117,2023-10-21T15:55:27.384272Z,1697903727384
1.3392348289489746,2.935548782348633,-3.640653610229492,2023-10-21T15:55:27.404508Z,1697903727404
1.4797289371490479,3.3205857276916504,-3.7599563598632812,2023-10-21T15:55:27.424676Z,1697903727424
1.659142255783081,3.738440990447998,-3.8509702682495117,2023-10-21T15:55:27.446358Z,1697903727446
1.8740274906158447,4.180239677429199,-3.90268611907959,2023-10-21T15:55:27.465292Z,1697903727465
2.1268796920776367,4.634525299072266,-3.9113311767578125,2023-10-21T15:55:27.485581Z,1697903727485
2.420846700668335,5.088151931762695,-3.875514030456543,2023-10-21T15:55:27.505797Z,1697903727505
2.7474758625030518,5.5109663009643555,-3.7832517623901367,2023-10-21T15:55:27.525990Z,1697903727525
3.079730749130249,5.8649444580078125,-3.6206560134887695,2023-10-21T15:55:27.546324Z,1697903727546
3.377880573272705,6.112464427947998,-3.384355068206787,2023-10-21T15:55:27.566622Z,1697903727566
3.6029419898986816,6.227619171142578,-3.0814783573150635,2023-10-21T15:55:27.586912Z,1697903727586
3.749002456665039,6.199993133544922,-2.7404866218566895,2023-10-21T15:55:27.607113Z,1697903727607
3.845043182373047,6.039617538452148,-2.402359962463379,2023-10-21T15:55:27.629639Z,1697903727629
3.8938064575195312,5.764904022216797,-2.092594623565674,2023-10-21T15:55:27.647693Z,1697903727647
3.8801183700561523,5.3925042152404785,-1.825559377670288,2023-10-21T15:55:27.667956Z,1697903727667
3.7810630798339844,4.935231685638428,-1.5851702690124512,2023-10-21T15:55:27.688200Z,1697903727688
3.5958809852600098,4.406529426574707,-1.369267225265503,2023-10-21T15:55:27.708446Z,1697903727708
3.3506007194519043,3.8482136726379395,-1.1940937042236328,2023-10-21T15:55:27.729687Z,1697903727729
3.0767135620117188,3.3056392669677734,-1.066896915435791,2023-10-21T15:55:27.749004Z,1697903727748
2.8120298385620117,2.820566177368164,-0.986271858215332,2023-10-21T15:55:27.769285Z,1697903727769
2.601457118988037,2.422852039337158,-0.9505269527435303,2023-10-21T15:55:27.789548Z,1697903727789
2.4488611221313477,2.1139888763427734,-0.9481937885284424,2023-10-21T15:55:27.812666Z,1697903727812
2.305882453918457,1.8623886108398438,-0.9549832344055176,2023-10-21T15:55:27.830813Z,1697903727830
2.155808925628662,1.648514747619629,-0.9576857089996338,2023-10-21T15:55:27.850362Z,1697903727850
2.008347988128662,1.4667048454284668,-0.951805830001831,2023-10-21T15:55:27.870560Z,1697903727870
1.889021873474121,1.3198518753051758,-0.9523441791534424,2023-10-21T15:55:27.890775Z,1697903727890
1.7941765785217285,1.2016077041625977,-0.9603540897369385,2023-10-21T15:55:27.912730Z,1697903727912
1.693568229675293,1.0920143127441406,-0.959876537322998,2023-10-21T15:55:27.931325Z,1697903727931
1.5825004577636719,0.9851984977722168,-0.9460253715515137,2023-10-21T15:55:27.951667Z,1697903727951
1.4722228050231934,0.8839678764343262,-0.9227466583251953,2023-10-21T15:55:27.971915Z,1697903727971
1.361997127532959,0.7868256568908691,-0.8899846076965332,2023-10-21T15:55:27.992056Z,1697903727992
1.2486810684204102,0.6913394927978516,-0.8459577560424805,2023-10-21T15:55:28.012473Z,1697903728012
1.1353931427001953,0.5984630584716797,-0.7923092842102051,2023-10-21T15:55:28.032671Z,1697903728032
1.0233526229858398,0.5093965530395508,-0.7309169769287109,2023-10-21T15:55:28.052967Z,1697903728052
0.9115128517150879,0.4252340793609619,-0.6628837585449219,2023-10-21T15:55:28.073188Z,1697903728073
0.8000335693359375,0.3480708599090576,-0.5901656150817871,2023-10-21T15:55:28.096048Z,1697903728096
0.6928024291992188,0.2809007167816162,-0.5168666839599609,2023-10-21T15:55:28.113740Z,1697903728113
0.5960960388183594,0.22617077827453613,-0.44843244552612305,2023-10-21T15:55:28.134021Z,1697903728133
0.5162448883056641,0.18504953384399414,-0.3903841972351074,2023-10-21T15:55:28.154244Z,1697903728154
0.45551443099975586,0.15643596649169922,-0.34525060653686523,2023-10-21T15:55:28.174465Z,1697903728174
0.41277027130126953,0.13811492919921875,-0.31263065338134766,2023-10-21T15:55:28.195866Z,1697903728195
0.38591480255126953,0.12807083129882812,-0.2910442352294922,2023-10-21T15:55:28.215059Z,1697903728215
0.37006282806396484,0.12405896186828613,-0.2767152786254883,2023-10-21T15:55:28.235333Z,1697903728235
0.36164188385009766,0.12447929382324219,-0.2667069435119629,2023-10-21T15:55:28.255504Z,1697903728255
0.3610405921936035,0.129241943359375,-0.2609424591064453,2023-10-21T15:55:28.275740Z,1697903728275
0.3723268508911133,0.1397266387939453,-0.2617502212524414,2023-10-21T15:55:28.296106Z,1697903728296
0.3990449905395508,0.15734434127807617,-0.27060794830322266,2023-10-21T15:55:28.316404Z,1697903728316
0.4400901794433594,0.18190646171569824,-0.2855048179626465,2023-10-21T15:55:28.336615Z,1697903728336
0.4866619110107422,0.20980048179626465,-0.29994726181030273,2023-10-21T15:55:28.356861Z,1697903728356
0.530421257019043,0.2369997501373291,-0.30889368057250977,2023-10-21T15:55:28.379081Z,1697903728379
0.5667028427124023,0.2606203556060791,-0.3105897903442383,2023-10-21T15:55:28.397395Z,1697903728397
0.5913295745849609,0.2778513431549072,-0.30420589447021484,2023-10-21T15:55:28.417747Z,1697903728417
0.6015110015869141,0.2862124443054199,-0.289961576461792,2023-10-21T15:55:28.437912Z,1697903728437
0.5933609008789062,0.28307342529296875,-0.2678101062774658,2023-10-21T15:55:28.458123Z,1697903728458
0.5614547729492188,0.2658233642578125,-0.23731684684753418,2023-10-21T15:55:28.478954Z,1697903728478
0.5016412734985352,0.2336130142211914,-0.19894719123840332,2023-10-21T15:55:28.498730Z,1697903728498
0.41428089141845703,0.18854856491088867,-0.1547081470489502,2023-10-21T15:55:28.519075Z,1697903728519
0.30780029296875,0.13624882698059082,-0.10873079299926758,2023-10-21T15:55:28.539213Z,1697903728539
0.19939136505126953,0.08544158935546875,-0.06690192222595215,2023-10-21T15:55:28.562382Z,1697903728562
0.10913562774658203,0.045037269592285156,-0.03489851951599121,2023-10-21T15:55:28.579801Z,1697903728579
0.056499481201171875,0.02234506607055664,-0.01727890968322754,2023-10-21T15:55:28.600077Z,1697903728600
0.05204200744628906,0.01966547966003418,-0.01528024673461914,2023-10-21T15:55:28.620389Z,1697903728620
0.09871482849121094,0.035601139068603516,-0.027944087982177734,2023-10-21T15:55:28.640547Z,1697903728640
0.18734073638916016,0.06449246406555176,-0.051329851150512695,2023-10-21T15:55:28.662239Z,1697903728662
0.3069334030151367,0.10084891319274902,-0.0816948413848877,2023-10-21T15:55:28.681128Z,1697903728681
0.44820117950439453,0.1402585506439209,-0.11636900901794434,2023-10-21T15:55:28.701396Z,1697903728701
0.5969057083129883,0.1771073341369629,-0.1519155502319336,2023-10-21T15:55:28.721629Z,1697903728721
0.7407970428466797,0.20659255981445312,-0.18567514419555664,2023-10-21T15:55:28.741848Z,1697903728741
0.8641672134399414,0.22378778457641602,-0.21428966522216797,2023-10-21T15:55:28.762156Z,1697903728762
0.9488534927368164,0.22429656982421875,-0.23357391357421875,2023-10-21T15:55:28.782417Z,1697903728782
0.9764623641967773,0.20552515983581543,-0.23913002014160156,2023-10-21T15:55:28.802673Z,1697903728802
0.9379415512084961,0.16944217681884766,-0.22892189025878906,2023-10-21T15:55:28.822898Z,1697903728822
0.8390741348266602,0.12299442291259766,-0.20478034019470215,2023-10-21T15:55:28.845379Z,1697903728845
0.7023077011108398,0.07628202438354492,-0.17237544059753418,2023-10-21T15:55:28.863467Z,1697903728863
0.5508108139038086,0.03722792863845825,-0.13693857192993164,2023-10-21T15:55:28.883766Z,1697903728883
0.4025707244873047,0.009872108697891235,-0.10206437110900879,2023-10-21T15:55:28.903970Z,1697903728903
0.27741146087646484,-0.00540827214717865,-0.07213735580444336,2023-10-21T15:55:28.924203Z,1697903728924
0.1891326904296875,-0.011875152587890625,-0.05073046684265137,2023-10-21T15:55:28.945432Z,1697903728945
0.14672470092773438,-0.0151902437210083,-0.04085493087768555,2023-10-21T15:55:28.964876Z,1697903728964
0.1517486572265625,-0.021216869354248047,-0.04419994354248047,2023-10-21T15:55:28.985114Z,1697903728985
0.20053482055664062,-0.034171223640441895,-0.06157326698303223,2023-10-21T15:55:29.005288Z,1697903729005
0.28627872467041016,-0.055817246437072754,-0.0933084487915039,2023-10-21T15:55:29.028670Z,1697903729028
0.3949136734008789,-0.08452224731445312,-0.13736557960510254,2023-10-21T15:55:29.045834Z,1697903729045
0.5053586959838867,-0.11565876007080078,-0.18844890594482422,2023-10-21T15:55:29.066131Z,1697903729066
0.5944633483886719,-0.14336514472961426,-0.2387251853942871,2023-10-21T15:55:29.086383Z,1697903729086
0.6417436599731445,-0.16240382194519043,-0.2791736125946045,2023-10-21T15:55:29.106580Z,1697903729106
0.6373710632324219,-0.16994953155517578,-0.3027935028076172,2023-10-21T15:55:29.128542Z,1697903729128
0.5811014175415039,-0.16469907760620117,-0.30489158630371094,2023-10-21T15:55:29.147207Z,1697903729147
0.4844017028808594,-0.14710688591003418,-0.28452491760253906,2023-10-21T15:55:29.167461Z,1697903729167
0.36611461639404297,-0.11908507347106934,-0.2441091537475586,2023-10-21T15:55:29.187727Z,1697903729187
0.2515225410461426,-0.0860910415649414,-0.19246673583984375,2023-10-21T15:55:29.207963Z,1697903729207
0.17143964767456055,-0.05933737754821777,-0.1511383056640625,2023-10-21T15:55:29.228437Z,1697903729228
0.12070226669311523,-0.03983187675476074,-0.12291145324707031,2023-10-21T15:55:29.248541Z,1697903729248
0.08518314361572266,-0.024485111236572266,-0.10014867782592773,2023-10-21T15:55:29.268770Z,1697903729268
0.06772041320800781,-0.014363646507263184,-0.09145450592041016,2023-10-21T15:55:29.289238Z,1697903729289
0.08004188537597656,-0.007573723793029785,-0.12267208099365234,2023-10-21T15:55:29.310562Z,1697903729310
0.14247703552246094,0.009744226932525635,-0.24245357513427734,2023-10-21T15:55:29.329558Z,1697903729329
0.25166893005371094,0.06920456886291504,-0.4656505584716797,2023-10-21T15:55:29.349842Z,1697903729349
0.3960080146789551,0.20504450798034668,-0.7807464599609375,2023-10-21T15:55:29.370080Z,1697903729370
0.5677328109741211,0.44432592391967773,-1.1676692962646484,2023-10-21T15:55:29.390335Z,1697903729390
0.754124641418457,0.79364013671875,-1.5894966125488281,2023-10-21T15:55:29.411315Z,1697903729411
0.9324855804443359,1.232553482055664,-1.9993491172790527,2023-10-21T15:55:29.430911Z,1697903729430
1.0979762077331543,1.7362771034240723,-2.376418113708496,2023-10-21T15:55:29.451182Z,1697903729451
1.2594687938690186,2.287257671356201,-2.7258644104003906,2023-10-21T15:55:29.471380Z,1697903729471
1.4226665496826172,2.872182846069336,-3.0549063682556152,2023-10-21T15:55:29.491572Z,1697903729491
1.5821404457092285,3.469175338745117,-3.3603672981262207,2023-10-21T15:55:29.511946Z,1697903729511
1.7213895320892334,4.061902046203613,-3.63038969039917,2023-10-21T15:55:29.532229Z,1697903729532
1.8468279838562012,4.6351518630981445,-3.8531174659729004,2023-10-21T15:55:29.552480Z,1697903729552
1.9686298370361328,5.180227279663086,-4.026637077331543,2023-10-21T15:55:29.572678Z,1697903729572
2.0885019302368164,5.686060905456543,-4.145869255065918,2023-10-21T15:55:29.594984Z,1697903729594
2.2072043418884277,6.145042896270752,-4.206404685974121,2023-10-21T15:55:29.613243Z,1697903729613
2.3293509483337402,6.554721832275391,-4.2077531814575195,2023-10-21T15:55:29.633534Z,1697903729633
2.459914445877075,6.9111328125,-4.147448539733887,2023-10-21T15:55:29.653769Z,1697903729653
2.5987815856933594,7.207611083984375,-4.023530006408691,2023-10-21T15:55:29.674048Z,1697903729674
2.738701105117798,7.429880142211914,-3.834245204925537,2023-10-21T15:55:29.694687Z,1697903729694
2.862072467803955,7.5511627197265625,-3.579835891723633,2023-10-21T15:55:29.714596Z,1697903729714
2.9432151317596436,7.546537399291992,-3.2672340869903564,2023-10-21T15:55:29.734860Z,1697903729734
2.9862685203552246,7.412191390991211,-2.9158737659454346,2023-10-21T15:55:29.755056Z,1697903729755
3.0050997734069824,7.161136627197266,-2.560274839401245,2023-10-21T15:55:29.778237Z,1697903729778
3.0032575130462646,6.817819595336914,-2.2306385040283203,2023-10-21T15:55:29.795645Z,1697903729795
2.97039794921875,6.39167594909668,-1.9424595832824707,2023-10-21T15:55:29.815949Z,1697903729815
2.8862342834472656,5.896353721618652,-1.6960821151733398,2023-10-21T15:55:29.836155Z,1697903729836
2.75846529006958,5.343830108642578,-1.4888029098510742,2023-10-21T15:55:29.856396Z,1697903729856
2.597531795501709,4.754238128662109,-1.3232665061950684,2023-10-21T15:55:29.878131Z,1697903729878
2.408954620361328,4.15269660949707,-1.1979494094848633,2023-10-21T15:55:29.896994Z,1697903729896
2.211172580718994,3.579583168029785,-1.1100215911865234,2023-10-21T15:55:29.917246Z,1697903729917
2.036069869995117,3.0780434608459473,-1.0586674213409424,2023-10-21T15:55:29.937613Z,1697903729937
1.886732578277588,2.659749984741211,-1.037250280380249,2023-10-21T15:55:29.957648Z,1697903729957
1.7514972686767578,2.312638282775879,-1.0294559001922607,2023-10-21T15:55:29.977957Z,1697903729977
1.6195440292358398,2.0143041610717773,-1.0195233821868896,2023-10-21T15:55:29.998286Z,1697903729998
1.4937596321105957,1.7569236755371094,-1.0015578269958496,2023-10-21T15:55:30.018536Z,1697903730018
1.3873577117919922,1.5377287864685059,-0.9809370040893555,2023-10-21T15:55:30.038735Z,1697903730038
1.2920937538146973,1.348616600036621,-0.9595236778259277,2023-10-21T15:55:30.061198Z,1697903730061
1.199235439300537,1.1809325218200684,-0.9337716102600098,2023-10-21T15:55:30.079292Z,1697903730079
1.112851619720459,1.0355329513549805,-0.9066205024719238,2023-10-21T15:55:30.099625Z,1697903730099
1.0390625,0.9141497611999512,-0.8828377723693848,2023-10-21T15:55:30.119837Z,1697903730119
0.9781994819641113,0.8142046928405762,-0.8634819984436035,2023-10-21T15:55:30.140043Z,1697903730140
0.9284553527832031,0.7323288917541504,-0.8482918739318848,2023-10-21T15:55:30.161162Z,1697903730161
0.8904104232788086,0.6667032241821289,-0.8386721611022949,2023-10-21T15:55:30.180740Z,1697903730180
0.8648090362548828,0.6153750419616699,-0.8361735343933105,2023-10-21T15:55:30.201068Z,1697903730201
0.8497986793518066,0.5753417015075684,-0.8404555320739746,2023-10-21T15:55:30.221292Z,1697903730221
0.8409647941589355,0.542635440826416,-0.848473072052002,2023-10-21T15:55:30.244495Z,1697903730244
0.8339271545410156,0.5136981010437012,-0.856173038482666,2023-10-21T15:55:30.261723Z,1697903730261
0.8234319686889648,0.4848752021789551,-0.8580870628356934,2023-10-21T15:55:30.281986Z,1697903730281
0.8063688278198242,0.45418477058410645,-0.850287914276123,2023-10-21T15:55:30.302249Z,1697903730302
0.7829442024230957,0.42168188095092773,-0.8323178291320801,2023-10-21T15:55:30.322395Z,1697903730322
0.755638599395752,0.3889734745025635,-0.8065304756164551,2023-10-21T15:55:30.344186Z,1697903730344
0.7277240753173828,0.3581075668334961,-0.7761697769165039,2023-10-21T15:55:30.363153Z,1697903730363
0.6991701126098633,0.3293478488922119,-0.7408871650695801,2023-10-21T15:55:30.383341Z,1697903730383
0.668581485748291,0.30213212966918945,-0.698728084564209,2023-10-21T15:55:30.403512Z,1697903730403
0.6345381736755371,0.27536702156066895,-0.647676944732666,2023-10-21T15:55:30.423755Z,1697903730423
0.596168041229248,0.24846220016479492,-0.5873270034790039,2023-10-21T15:55:30.444319Z,1697903730444
0.5528421401977539,0.22135519981384277,-0.519066333770752,2023-10-21T15:55:30.464338Z,1697903730464
0.505399227142334,0.1949446201324463,-0.4469890594482422,2023-10-21T15:55:30.484594Z,1697903730484
0.45584583282470703,0.1703026294708252,-0.37598419189453125,2023-10-21T15:55:30.504880Z,1697903730504
0.4070010185241699,0.14819979667663574,-0.31038427352905273,2023-10-21T15:55:30.527572Z,1697903730527
0.35950565338134766,0.12815618515014648,-0.2515525817871094,2023-10-21T15:55:30.545353Z,1697903730545
0.31434106826782227,0.10979819297790527,-0.2003941535949707,2023-10-21T15:55:30.565661Z,1697903730565
0.2745246887207031,0.09373950958251953,-0.15846633911132812,2023-10-21T15:55:30.585907Z,1697903730585
0.24205875396728516,0.08049440383911133,-0.1260089874267578,2023-10-21T15:55:30.606117Z,1697903730606
0.2174701690673828,0.07025790214538574,-0.10206794738769531,2023-10-21T15:55:30.627452Z,1697903730627
0.2036447525024414,0.06384634971618652,-0.08651852607727051,2023-10-21T15:55:30.646697Z,1697903730646
0.20984745025634766,0.06377315521240234,-0.08136129379272461,2023-10-21T15:55:30.666992Z,1697903730666
0.2481842041015625,0.07292938232421875,-0.0887603759765625,2023-10-21T15:55:30.687208Z,1697903730687
0.32808685302734375,0.09290480613708496,-0.10956645011901855,2023-10-21T15:55:30.707376Z,1697903730707
0.4500570297241211,0.12247896194458008,-0.14203953742980957,2023-10-21T15:55:30.727714Z,1697903730727
0.6107769012451172,0.1595172882080078,-0.18414020538330078,2023-10-21T15:55:30.748003Z,1697903730747
0.8056697845458984,0.20173120498657227,-0.23417305946350098,2023-10-21T15:55:30.768416Z,1697903730768
1.0285320281982422,0.24670100212097168,-0.29061460494995117,2023-10-21T15:55:30.788648Z,1697903730788
1.270792007446289,0.29186058044433594,-0.3516499996185303,2023-10-21T15:55:30.810781Z,1697903730810
1.518996238708496,0.3339109420776367,-0.41386985778808594,2023-10-21T15:55:30.829052Z,1697903730829
1.7560348510742188,0.36869096755981445,-0.4722750186920166,2023-10-21T15:55:30.849324Z,1697903730849
1.9632034301757812,0.3914971351623535,-0.5209031105041504,2023-10-21T15:55:30.869547Z,1697903730869
2.124713897705078,0.39861810207366943,-0.5550696849822998,2023-10-21T15:55:30.889833Z,1697903730889
2.228475570678711,0.3879382610321045,-0.5725398063659668,2023-10-21T15:55:30.910526Z,1697903730910
2.267536163330078,0.3602735996246338,-0.5744566917419434,2023-10-21T15:55:30.930508Z,1697903730930
2.2414932250976562,0.3186922073364258,-0.5638577938079834,2023-10-21T15:55:30.950647Z,1697903730950
2.156614303588867,0.26791632175445557,-0.5440528392791748,2023-10-21T15:55:30.970892Z,1697903730970
2.0262861251831055,0.21288859844207764,-0.5178136825561523,2023-10-21T15:55:30.993843Z,1697903730993
1.8676300048828125,0.1579778790473938,-0.48801112174987793,2023-10-21T15:55:31.011411Z,1697903731011
1.6967105865478516,0.10686689615249634,-0.4580225944519043,2023-10-21T15:55:31.031735Z,1697903731031
1.5291757583618164,0.06260430812835693,-0.4318842887878418,2023-10-21T15:55:31.052032Z,1697903731051
1.374643325805664,0.026837825775146484,-0.41235923767089844,2023-10-21T15:55:31.072205Z,1697903731072
1.2363033294677734,-5.226186476647854E-4,-0.40032291412353516,2023-10-21T15:55:31.093612Z,1697903731093
1.1127662658691406,-0.02051384747028351,-0.3949706554412842,2023-10-21T15:55:31.112751Z,1697903731112
1.001969337463379,-0.03496047854423523,-0.3949861526489258,2023-10-21T15:55:31.133094Z,1697903731133
0.9001436233520508,-0.04555043578147888,-0.39849233627319336,2023-10-21T15:55:31.153257Z,1697903731153
0.7982282638549805,-0.05305957794189453,-0.40050315856933594,2023-10-21T15:55:31.173450Z,1697903731173
0.6890144348144531,-0.05729210376739502,-0.3954281806945801,2023-10-21T15:55:31.193814Z,1697903731193
0.577448844909668,-0.05783480405807495,-0.3832864761352539,2023-10-21T15:55:31.214091Z,1697903731214
0.487701416015625,-0.05589240789413452,-0.37885141372680664,2023-10-21T15:55:31.234320Z,1697903731234
0.45569562911987305,-0.05489164590835571,-0.41761255264282227,2023-10-21T15:55:31.254529Z,1697903731254
0.48695802688598633,-0.05425715446472168,-0.5275545120239258,2023-10-21T15:55:31.277057Z,1697903731277
0.5438852310180664,-0.04389995336532593,-0.6980681419372559,2023-10-21T15:55:31.295100Z,1697903731295
0.604461669921875,-0.012996628880500793,-0.9178562164306641,2023-10-21T15:55:31.315407Z,1697903731315
0.649686336517334,0.048880696296691895,-1.1630496978759766,2023-10-21T15:55:31.335692Z,1697903731335
0.6876120567321777,0.1497957706451416,-1.4308795928955078,2023-10-21T15:55:31.355854Z,1697903731355
0.7306976318359375,0.29900670051574707,-1.7263174057006836,2023-10-21T15:55:31.376946Z,1697903731376
0.7777087688446045,0.5069429874420166,-2.0465898513793945,2023-10-21T15:55:31.396443Z,1697903731396
0.8368589878082275,0.7868983745574951,-2.393503189086914,2023-10-21T15:55:31.416743Z,1697903731416
0.9047250747680664,1.140486717224121,-2.7452430725097656,2023-10-21T15:55:31.436961Z,1697903731436
0.9680545330047607,1.5468358993530273,-3.0636234283447266,2023-10-21T15:55:31.460270Z,1697903731460
1.0209338665008545,1.9862184524536133,-3.335947036743164,2023-10-21T15:55:31.477444Z,1697903731477
1.0770986080169678,2.445439338684082,-3.571190357208252,2023-10-21T15:55:31.497778Z,1697903731497
1.1438665390014648,2.9180407524108887,-3.7829813957214355,2023-10-21T15:55:31.518049Z,1697903731518
1.2293152809143066,3.400792121887207,-3.985720634460449,2023-10-21T15:55:31.538256Z,1697903731538
1.3186309337615967,3.888937473297119,-4.179387092590332,2023-10-21T15:55:31.560031Z,1697903731559
1.4000022411346436,4.377223014831543,-4.3535356521606445,2023-10-21T15:55:31.578829Z,1697903731578
1.489485740661621,4.857490062713623,-4.491831302642822,2023-10-21T15:55:31.599114Z,1697903731599
1.5862455368041992,5.3104352951049805,-4.574925899505615,2023-10-21T15:55:31.619287Z,1697903731619
1.6972627639770508,5.725849151611328,-4.593916416168213,2023-10-21T15:55:31.639519Z,1697903731639
1.8276495933532715,6.110722541809082,-4.550632476806641,2023-10-21T15:55:31.660223Z,1697903731660
1.9819583892822266,6.46954345703125,-4.446902275085449,2023-10-21T15:55:31.680187Z,1697903731680
2.1634631156921387,6.804680824279785,-4.284911155700684,2023-10-21T15:55:31.700433Z,1697903731700
2.3700945377349854,7.107856750488281,-4.061629295349121,2023-10-21T15:55:31.720655Z,1697903731720
2.591395616531372,7.3535308837890625,-3.770531177520752,2023-10-21T15:55:31.743342Z,1697903731743
2.8013784885406494,7.502796173095703,-3.4086289405822754,2023-10-21T15:55:31.761206Z,1697903731761
2.9799914360046387,7.534600257873535,-2.9918036460876465,2023-10-21T15:55:31.781503Z,1697903731781
3.1347827911376953,7.445058822631836,-2.550008535385132,2023-10-21T15:55:31.801708Z,1697903731801
3.259665012359619,7.242307662963867,-2.11580228805542,2023-10-21T15:55:31.821919Z,1697903731821
3.3503990173339844,6.936113357543945,-1.7181611061096191,2023-10-21T15:55:31.843056Z,1697903731843
3.3775787353515625,6.53218936920166,-1.3731176853179932,2023-10-21T15:55:31.862517Z,1697903731862
3.3206777572631836,6.03884220123291,-1.0831849575042725,2023-10-21T15:55:31.882798Z,1697903731882
3.1968607902526855,5.473299980163574,-0.8450579643249512,2023-10-21T15:55:31.903002Z,1697903731902
3.0026111602783203,4.844113349914551,-0.6580252647399902,2023-10-21T15:55:31.923218Z,1697903731923
2.7574377059936523,4.1875,-0.5258265733718872,2023-10-21T15:55:31.943551Z,1697903731943
2.502865791320801,3.5680665969848633,-0.45047926902770996,2023-10-21T15:55:31.963857Z,1697903731963
2.2703475952148438,3.0267820358276367,-0.42192888259887695,2023-10-21T15:55:31.984146Z,1697903731984
2.0589938163757324,2.5732288360595703,-0.42363476753234863,2023-10-21T15:55:32.004308Z,1697903732004
1.8733339309692383,2.204657554626465,-0.4408780336380005,2023-10-21T15:55:32.026434Z,1697903732026
1.7122411727905273,1.9090604782104492,-0.46202945709228516,2023-10-21T15:55:32.044897Z,1697903732044
1.5948190689086914,1.6828813552856445,-0.4851360321044922,2023-10-21T15:55:32.065203Z,1697903732065
1.5302457809448242,1.517310619354248,-0.5142836570739746,2023-10-21T15:55:32.085505Z,1697903732085
1.493424415588379,1.3872876167297363,-0.5496890544891357,2023-10-21T15:55:32.105580Z,1697903732105
1.488534927368164,1.2931013107299805,-0.596177339553833,2023-10-21T15:55:32.126384Z,1697903732126
1.507584571838379,1.2260594367980957,-0.6532361507415771,2023-10-21T15:55:32.146237Z,1697903732146
1.5395331382751465,1.172584056854248,-0.7161827087402344,2023-10-21T15:55:32.166504Z,1697903732166
1.5745582580566406,1.1236610412597656,-0.78053879737854,2023-10-21T15:55:32.186814Z,1697903732186
1.6071062088012695,1.0747647285461426,-0.8435978889465332,2023-10-21T15:55:32.209761Z,1697903732209
1.6383676528930664,1.0258469581604004,-0.9055652618408203,2023-10-21T15:55:32.227218Z,1697903732227
1.6698060035705566,0.9782247543334961,-0.9677224159240723,2023-10-21T15:55:32.247554Z,1697903732247
1.7021455764770508,0.933835506439209,-1.0312137603759766,2023-10-21T15:55:32.267810Z,1697903732267
1.733841896057129,0.8938124179840088,-1.0954461097717285,2023-10-21T15:55:32.288008Z,1697903732287
1.7664384841918945,0.8588404655456543,-1.1601476669311523,2023-10-21T15:55:32.309675Z,1697903732309
1.8050422668457031,0.8298497200012207,-1.2269248962402344,2023-10-21T15:55:32.328565Z,1697903732328
1.8540048599243164,0.8062303066253662,-1.2968921661376953,2023-10-21T15:55:32.348824Z,1697903732348
1.9134225845336914,0.7859482765197754,-1.3690099716186523,2023-10-21T15:55:32.369057Z,1697903732369
1.9793434143066406,0.7655904293060303,-1.4391322135925293,2023-10-21T15:55:32.389306Z,1697903732389
2.046133041381836,0.7418625354766846,-1.5018467903137207,2023-10-21T15:55:32.409563Z,1697903732409
2.103610038757324,0.7113022804260254,-1.5485210418701172,2023-10-21T15:55:32.429903Z,1697903732429
2.138760566711426,0.6709556579589844,-1.5689387321472168,2023-10-21T15:55:32.450156Z,1697903732450
2.1402387619018555,0.6194427013397217,-1.554865837097168,2023-10-21T15:55:32.470406Z,1697903732470
2.105593681335449,0.5586895942687988,-1.505228042602539,2023-10-21T15:55:32.492794Z,1697903732492
2.0366315841674805,0.49262869358062744,-1.423757553100586,2023-10-21T15:55:32.510899Z,1697903732510
1.930511474609375,0.42488622665405273,-1.312678337097168,2023-10-21T15:55:32.531233Z,1697903732531
1.7811822891235352,0.35828089714050293,-1.1732206344604492,2023-10-21T15:55:32.551455Z,1697903732551
1.5912456512451172,0.295870304107666,-1.011469841003418,2023-10-21T15:55:32.571698Z,1697903732571
1.3752641677856445,0.24071907997131348,-0.8400335311889648,2023-10-21T15:55:32.592547Z,1697903732592
1.1497859954833984,0.19411695003509521,-0.6714668273925781,2023-10-21T15:55:32.612278Z,1697903732612
0.9288215637207031,0.15572917461395264,-0.5161051750183105,2023-10-21T15:55:32.632565Z,1697903732632
0.7250661849975586,0.12445998191833496,-0.3818068504333496,2023-10-21T15:55:32.652746Z,1697903732652
0.5509424209594727,0.09956002235412598,-0.2741518020629883,2023-10-21T15:55:32.676015Z,1697903732675
0.41551685333251953,0.08069753646850586,-0.1949906349182129,2023-10-21T15:55:32.693294Z,1697903732693
0.320709228515625,0.06773519515991211,-0.14168643951416016,2023-10-21T15:55:32.713609Z,1697903732713
0.26494884490966797,0.061023712158203125,-0.1099700927734375,2023-10-21T15:55:32.733840Z,1697903732733
0.2448596954345703,0.061255455017089844,-0.09522747993469238,2023-10-21T15:55:32.754050Z,1697903732754
0.2508411407470703,0.06760358810424805,-0.09116768836975098,2023-10-21T15:55:32.775919Z,1697903732775
0.2701740264892578,0.07768130302429199,-0.09156918525695801,2023-10-21T15:55:32.794634Z,1697903732794
0.29122066497802734,0.08857536315917969,-0.09194660186767578,2023-10-21T15:55:32.814922Z,1697903732814
0.30707359313964844,0.09810662269592285,-0.09023118019104004,2023-10-21T15:55:32.835113Z,1697903732835
0.31542205810546875,0.10532164573669434,-0.0861971378326416,2023-10-21T15:55:32.855341Z,1697903732855
0.3166980743408203,0.11012935638427734,-0.08049130439758301,2023-10-21T15:55:32.876011Z,1697903732875
0.3133268356323242,0.11329460144042969,-0.07425856590270996,2023-10-21T15:55:32.896081Z,1697903732896
0.3097848892211914,0.11654043197631836,-0.0688631534576416,2023-10-21T15:55:32.916260Z,1697903732916
0.3130064010620117,0.12270450592041016,-0.0658484697341919,2023-10-21T15:55:32.936461Z,1697903732936
0.32868480682373047,0.13451766967773438,-0.06609582901000977,2023-10-21T15:55:32.959479Z,1697903732959
0.3583965301513672,0.15340590476989746,-0.06953060626983643,2023-10-21T15:55:32.977006Z,1697903732976
0.39348411560058594,0.1764991283416748,-0.07408905029296875,2023-10-21T15:55:32.997302Z,1697903732997
0.4259767532348633,0.20035076141357422,-0.07799279689788818,2023-10-21T15:55:33.017699Z,1697903733017
0.4557771682739258,0.22425222396850586,-0.08107554912567139,2023-10-21T15:55:33.037901Z,1697903733037
0.48519134521484375,0.24848127365112305,-0.08369302749633789,2023-10-21T15:55:33.059035Z,1697903733058
0.5108566284179688,0.27083539962768555,-0.08544635772705078,2023-10-21T15:55:33.078382Z,1697903733078
0.5206451416015625,0.28465795516967773,-0.08450555801391602,2023-10-21T15:55:33.098607Z,1697903733098
0.5057611465454102,0.2844862937927246,-0.07982230186462402,2023-10-21T15:55:33.118836Z,1697903733118
0.46790409088134766,0.27017927169799805,-0.07201910018920898,2023-10-21T15:55:33.139026Z,1697903733138
0.4151172637939453,0.2453627586364746,-0.06266129016876221,2023-10-21T15:55:33.159380Z,1697903733159
0.3554811477661133,0.21441030502319336,-0.05307960510253906,2023-10-21T15:55:33.179705Z,1697903733179
0.2976245880126953,0.1827230453491211,-0.0445709228515625,2023-10-21T15:55:33.199938Z,1697903733199
0.24712371826171875,0.1543130874633789,-0.037766218185424805,2023-10-21T15:55:33.220162Z,1697903733220
0.20465850830078125,0.13024473190307617,-0.03251004219055176,2023-10-21T15:55:33.242305Z,1697903733242
0.16991043090820312,0.11062049865722656,-0.028514742851257324,2023-10-21T15:55:33.260676Z,1697903733260
0.14511489868164062,0.09699153900146484,-0.02599477767944336,2023-10-21T15:55:33.280981Z,1697903733280
0.13502025604248047,0.092742919921875,-0.025936603546142578,2023-10-21T15:55:33.301213Z,1697903733301
0.14020586013793945,0.09882116317749023,-0.028850078582763672,2023-10-21T15:55:33.321549Z,1697903733321
0.1537795066833496,0.11093664169311523,-0.03374648094177246,2023-10-21T15:55:33.342264Z,1697903733342
0.16687536239624023,0.12290143966674805,-0.03882396221160889,2023-10-21T15:55:33.362147Z,1697903733362
0.1733236312866211,0.13002490997314453,-0.04250049591064453,2023-10-21T15:55:33.382317Z,1697903733382
0.17058801651000977,0.13005447387695312,-0.043851613998413086,2023-10-21T15:55:33.402548Z,1697903733402
0.1578226089477539,0.12199115753173828,-0.042362213134765625,2023-10-21T15:55:33.425545Z,1697903733425
0.1362133026123047,0.10648822784423828,-0.03807640075683594,2023-10-21T15:55:33.443069Z,1697903733443
0.10842418670654297,0.08551549911499023,-0.031519174575805664,2023-10-21T15:55:33.463378Z,1697903733463
0.07892942428588867,0.06263208389282227,-0.02384471893310547,2023-10-21T15:55:33.483834Z,1697903733483
0.05279970169067383,0.04203987121582031,-0.016575336456298828,2023-10-21T15:55:33.504045Z,1697903733504
0.033972740173339844,0.027091503143310547,-0.011089563369750977,2023-10-21T15:55:33.525453Z,1697903733525
0.025315284729003906,0.02021169662475586,-0.008608102798461914,2023-10-21T15:55:33.544560Z,1697903733544
0.028624534606933594,0.02290964126586914,-0.010170221328735352,2023-10-21T15:55:33.564639Z,1697903733564
0.044779300689697266,0.035997867584228516,-0.016671419143676758,2023-10-21T15:55:33.584894Z,1697903733584
0.0733799934387207,0.059389591217041016,-0.028697729110717773,2023-10-21T15:55:33.605096Z,1697903733605
0.11243343353271484,0.0917959213256836,-0.04622459411621094,2023-10-21T15:55:33.625416Z,1697903733625
0.1567845344543457,0.1293354034423828,-0.0677022933959961,2023-10-21T15:55:33.645747Z,1697903733645
0.19941139221191406,0.16641569137573242,-0.09022784233093262,2023-10-21T15:55:33.665971Z,1697903733665
0.2322835922241211,0.1962890625,-0.10979056358337402,2023-10-21T15:55:33.686196Z,1697903733686
0.2497115135192871,0.21375560760498047,-0.12287473678588867,2023-10-21T15:55:33.708666Z,1697903733708
0.2506856918334961,0.2172098159790039,-0.12796401977539062,2023-10-21T15:55:33.726737Z,1697903733726
0.23713016510009766,0.20755767822265625,-0.12510895729064941,2023-10-21T15:55:33.747060Z,1697903733747
0.21346044540405273,0.18815851211547852,-0.11597418785095215,2023-10-21T15:55:33.767290Z,1697903733767
0.1848587989807129,0.1634979248046875,-0.10305523872375488,2023-10-21T15:55:33.787500Z,1697903733787
0.1571669578552246,0.13896465301513672,-0.08959078788757324,2023-10-21T15:55:33.808638Z,1697903733808
0.13591289520263672,0.11976814270019531,-0.07895374298095703,2023-10-21T15:55:33.828064Z,1697903733828
0.1259622573852539,0.11040258407592773,-0.07433819770812988,2023-10-21T15:55:33.848387Z,1697903733848
0.13036251068115234,0.11354875564575195,-0.07794332504272461,2023-10-21T15:55:33.868583Z,1697903733868
0.15016555786132812,0.12999391555786133,-0.09071874618530273,2023-10-21T15:55:33.891722Z,1697903733891
