ACC_X,ACC_Y,ACC_Z,DATE,UNIX_TIMESTAMP
0.1722555160522461,0.25937509536743164,0.4018073081970215,2023-10-21T15:56:19.528119Z,1697903779528
-0.03689455986022949,-0.05364370346069336,-0.07835531234741211,2023-10-21T15:56:19.548433Z,1697903779548
-0.09032464027404785,-0.1278829574584961,-0.18936491012573242,2023-10-21T15:56:19.568705Z,1697903779568
0.033421993255615234,0.049108028411865234,0.07714605331420898,2023-10-21T15:56:19.588824Z,1697903779588
0.0869133472442627,0.1387486457824707,0.22065210342407227,2023-10-21T15:56:19.609209Z,1697903779609
0.07024765014648438,0.11589813232421875,0.18500804901123047,2023-10-21T15:56:19.629462Z,1697903779629
0.03860187530517578,0.06728219985961914,0.10598564147949219,2023-10-21T15:56:19.649770Z,1697903779649
-0.016622304916381836,-0.027737140655517578,-0.042925357818603516,2023-10-21T15:56:19.669964Z,1697903779669
-0.0714867115020752,-0.11616039276123047,-0.17624568939208984,2023-10-21T15:56:19.692988Z,1697903779692
-0.11262726783752441,-0.17719221115112305,-0.26544666290283203,2023-10-21T15:56:19.710512Z,1697903779710
-0.021828651428222656,-0.03424501419067383,-0.05252265930175781,2023-10-21T15:56:19.730901Z,1697903779730
-0.03089141845703125,-0.048851966857910156,-0.07509088516235352,2023-10-21T15:56:19.751170Z,1697903779751
-0.034894704818725586,-0.055861473083496094,-0.08600854873657227,2023-10-21T15:56:19.771328Z,1697903779771
-0.04938340187072754,-0.08001422882080078,-0.12279987335205078,2023-10-21T15:56:19.792922Z,1697903779792
-0.0684819221496582,-0.11185407638549805,-0.17120838165283203,2023-10-21T15:56:19.811966Z,1697903779811
-0.08396601676940918,-0.13862323760986328,-0.2120356559753418,2023-10-21T15:56:19.832236Z,1697903779832
-0.09426522254943848,-0.1575174331665039,-0.24169206619262695,2023-10-21T15:56:19.852463Z,1697903779852
-0.10147833824157715,-0.1732778549194336,-0.2673220634460449,2023-10-21T15:56:19.872621Z,1697903779872
-0.10917234420776367,-0.1922597885131836,-0.2984199523925781,2023-10-21T15:56:19.893168Z,1697903779893
-0.12193775177001953,-0.223907470703125,-0.34929513931274414,2023-10-21T15:56:19.913270Z,1697903779913
-0.14035320281982422,-0.27216100692749023,-0.4257216453552246,2023-10-21T15:56:19.933599Z,1697903779933
-0.16448402404785156,-0.34146738052368164,-0.5353398323059082,2023-10-21T15:56:19.953754Z,1697903779953
-0.19528961181640625,-0.44103002548217773,-0.6914567947387695,2023-10-21T15:56:19.976523Z,1697903779976
-0.23427176475524902,-0.5815529823303223,-0.9113016128540039,2023-10-21T15:56:19.994291Z,1697903779994
-0.2781407833099365,-0.7569456100463867,-1.187150478363037,2023-10-21T15:56:20.014584Z,1697903780014
-0.3338756561279297,-0.962712287902832,-1.5123462677001953,2023-10-21T15:56:20.034854Z,1697903780034
-0.4128669500350952,-1.1867461204528809,-1.865962028503418,2023-10-21T15:56:20.055059Z,1697903780055
-0.5184322595596313,-1.4277300834655762,-2.2231922149658203,2023-10-21T15:56:20.076452Z,1697903780076
-0.6210412979125977,-1.6975691318511963,-2.5607781410217285,2023-10-21T15:56:20.096230Z,1697903780096
-0.7652508020401001,-2.006671905517578,-2.8263206481933594,2023-10-21T15:56:20.115922Z,1697903780115
-1.0206166505813599,-2.3522984981536865,-2.948955535888672,2023-10-21T15:56:20.136130Z,1697903780136
-1.4572445154190063,-2.663273572921753,-2.804255485534668,2023-10-21T15:56:20.159297Z,1697903780159
-1.979945421218872,-2.768882989883423,-2.315476894378662,2023-10-21T15:56:20.176690Z,1697903780176
-2.2874858379364014,-2.5458016395568848,-1.6283726692199707,2023-10-21T15:56:20.196988Z,1697903780196
-0.5142827033996582,-0.9293017387390137,-1.3195571899414062,2023-10-21T15:56:20.217228Z,1697903780217
-0.6020622253417969,-1.0428814888000488,-1.4287981986999512,2023-10-21T15:56:20.237417Z,1697903780237
-0.7054445743560791,-1.158205509185791,-1.5189595222473145,2023-10-21T15:56:20.259357Z,1697903780259
-0.8266851902008057,-1.2726383209228516,-1.5842008590698242,2023-10-21T15:56:20.278018Z,1697903780277
-0.9663410186767578,-1.3791284561157227,-1.6155314445495605,2023-10-21T15:56:20.298284Z,1697903780298
-1.1209807395935059,-1.4693198204040527,-1.605379581451416,2023-10-21T15:56:20.318544Z,1697903780318
-1.2834458351135254,-1.534989833831787,-1.5496487617492676,2023-10-21T15:56:20.338704Z,1697903780338
-1.442945957183838,-1.5693316459655762,-1.449223518371582,2023-10-21T15:56:20.359149Z,1697903780359
-1.5861968994140625,-1.566657543182373,-1.3086185455322266,2023-10-21T15:56:20.379372Z,1697903780379
-1.6986451148986816,-1.5226140022277832,-1.1347887516021729,2023-10-21T15:56:20.399636Z,1697903780399
-1.7647132873535156,-1.4350461959838867,-0.9374485015869141,2023-10-21T15:56:20.419852Z,1697903780419
-1.7698097229003906,-1.3060970306396484,-0.7299849987030029,2023-10-21T15:56:20.442390Z,1697903780442
-1.7034306526184082,-1.1429057121276855,-0.5280435085296631,2023-10-21T15:56:20.460379Z,1697903780460
-1.5628724098205566,-0.9564609527587891,-0.3471940755844116,2023-10-21T15:56:20.480675Z,1697903780480
-1.353318214416504,-0.7588894367218018,-0.19951379299163818,2023-10-21T15:56:20.500884Z,1697903780500
-1.0858111381530762,-0.5608658790588379,-0.0915037989616394,2023-10-21T15:56:20.521095Z,1697903780521
-0.7739200592041016,-0.37035560607910156,-0.02423742413520813,2023-10-21T15:56:20.542418Z,1697903780542
-0.43187618255615234,-0.19270896911621094,0.005554378032684326,2023-10-21T15:56:20.561764Z,1697903780561
-0.0726156234741211,-0.030409574508666992,0.0036011040210723877,2023-10-21T15:56:20.581989Z,1697903780581
0.2952461242675781,0.11671733856201172,-0.023688137531280518,2023-10-21T15:56:20.602203Z,1697903780602
0.6612071990966797,0.24802565574645996,-0.07000160217285156,2023-10-21T15:56:20.622393Z,1697903780622
1.0144891738891602,0.3626112937927246,-0.12922298908233643,2023-10-21T15:56:20.642728Z,1697903780642
1.3429441452026367,0.45874762535095215,-0.19527065753936768,2023-10-21T15:56:20.663032Z,1697903780662
1.6352128982543945,0.5351061820983887,-0.26265132427215576,2023-10-21T15:56:20.683265Z,1697903780683
1.8857269287109375,0.5924675464630127,-0.32794439792633057,2023-10-21T15:56:20.703476Z,1697903780703
2.0934104919433594,0.6330437660217285,-0.3894195556640625,2023-10-21T15:56:20.725679Z,1697903780725
2.258180618286133,0.6593594551086426,-0.4459710121154785,2023-10-21T15:56:20.744104Z,1697903780744
2.3799962997436523,0.6735334396362305,-0.4960803985595703,2023-10-21T15:56:20.764420Z,1697903780764
2.4555282592773438,0.6770646572113037,-0.5376684665679932,2023-10-21T15:56:20.784661Z,1697903780784
2.477593421936035,0.6704926490783691,-0.5676403045654297,2023-10-21T15:56:20.804882Z,1697903780804
2.445376396179199,0.6551179885864258,-0.5842587947845459,2023-10-21T15:56:20.825774Z,1697903780825
2.363252639770508,0.6328239440917969,-0.5870523452758789,2023-10-21T15:56:20.845398Z,1697903780845
2.2421016693115234,0.6063723564147949,-0.5774815082550049,2023-10-21T15:56:20.865656Z,1697903780865
2.0939254760742188,0.5780086517333984,-0.5578420162200928,2023-10-21T15:56:20.885895Z,1697903780885
1.9245872497558594,0.5476887226104736,-0.528980016708374,2023-10-21T15:56:20.909109Z,1697903780909
1.7359209060668945,0.5137085914611816,-0.49089908599853516,2023-10-21T15:56:20.926389Z,1697903780926
1.5315942764282227,0.47434282302856445,-0.44440340995788574,2023-10-21T15:56:20.946699Z,1697903780946
1.3194141387939453,0.42917704582214355,-0.3918895721435547,2023-10-21T15:56:20.966954Z,1697903780966
1.111536979675293,0.3800351619720459,-0.33727002143859863,2023-10-21T15:56:20.987150Z,1697903780987
0.9200448989868164,0.3302483558654785,-0.2847468852996826,2023-10-21T15:56:21.008717Z,1697903781008
0.7530441284179688,0.283233642578125,-0.23751163482666016,2023-10-21T15:56:21.027830Z,1697903781027
0.6132240295410156,0.24120664596557617,-0.19705843925476074,2023-10-21T15:56:21.048090Z,1697903781048
0.4995441436767578,0.2050316333770752,-0.16355419158935547,2023-10-21T15:56:21.068268Z,1697903781068
0.4094676971435547,0.1749105453491211,-0.136552095413208,2023-10-21T15:56:21.088506Z,1697903781088
0.3414955139160156,0.1513361930847168,-0.11585330963134766,2023-10-21T15:56:21.108808Z,1697903781108
0.2959909439086914,0.13557052612304688,-0.10190677642822266,2023-10-21T15:56:21.129090Z,1697903781129
0.2716789245605469,0.12816667556762695,-0.0946192741394043,2023-10-21T15:56:21.149357Z,1697903781149
0.2647275924682617,0.12833166122436523,-0.09294891357421875,2023-10-21T15:56:21.169567Z,1697903781169
0.2682008743286133,0.13344240188598633,-0.09463167190551758,2023-10-21T15:56:21.192149Z,1697903781192
0.2747011184692383,0.14015722274780273,-0.09707427024841309,2023-10-21T15:56:21.210106Z,1697903781210
0.2784433364868164,0.1454939842224121,-0.09816217422485352,2023-10-21T15:56:21.230386Z,1697903781230
0.27791786193847656,0.14835071563720703,-0.0973050594329834,2023-10-21T15:56:21.250648Z,1697903781250
0.27377891540527344,0.14876890182495117,-0.09474682807922363,2023-10-21T15:56:21.270855Z,1697903781270
0.2674732208251953,0.1473402976989746,-0.09105277061462402,2023-10-21T15:56:21.292024Z,1697903781291
0.26089954376220703,0.14508390426635742,-0.08699345588684082,2023-10-21T15:56:21.311425Z,1697903781311
0.25516223907470703,0.14272689819335938,-0.08304643630981445,2023-10-21T15:56:21.331742Z,1697903781331
0.25146961212158203,0.14101696014404297,-0.07967400550842285,2023-10-21T15:56:21.351957Z,1697903781351
0.2504148483276367,0.14032888412475586,-0.07707691192626953,2023-10-21T15:56:21.375177Z,1697903781375
0.2526702880859375,0.14100933074951172,-0.07545042037963867,2023-10-21T15:56:21.392484Z,1697903781392
0.2608022689819336,0.14445114135742188,-0.07554411888122559,2023-10-21T15:56:21.412772Z,1697903781412
0.2779855728149414,0.1523580551147461,-0.07825326919555664,2023-10-21T15:56:21.433073Z,1697903781433
0.30518531799316406,0.16520214080810547,-0.08382320404052734,2023-10-21T15:56:21.453226Z,1697903781453
0.34027767181396484,0.1817789077758789,-0.09168720245361328,2023-10-21T15:56:21.475144Z,1697903781475
0.37734317779541016,0.19896888732910156,-0.10033249855041504,2023-10-21T15:56:21.493803Z,1697903781493
0.4103050231933594,0.21368741989135742,-0.10827779769897461,2023-10-21T15:56:21.514124Z,1697903781514
0.43549156188964844,0.22408628463745117,-0.11467146873474121,2023-10-21T15:56:21.534397Z,1697903781534
0.4515247344970703,0.22948026657104492,-0.1192009449005127,2023-10-21T15:56:21.554573Z,1697903781554
0.4583015441894531,0.2298426628112793,-0.12180233001708984,2023-10-21T15:56:21.575102Z,1697903781575
0.45655250549316406,0.2257223129272461,-0.12269067764282227,2023-10-21T15:56:21.595135Z,1697903781595
0.4463958740234375,0.21752357482910156,-0.12192344665527344,2023-10-21T15:56:21.615430Z,1697903781615
0.42618846893310547,0.20482873916625977,-0.1189720630645752,2023-10-21T15:56:21.635661Z,1697903781635
0.39504146575927734,0.1874852180480957,-0.11329317092895508,2023-10-21T15:56:21.658551Z,1697903781658
0.3542928695678711,0.16626787185668945,-0.10481619834899902,2023-10-21T15:56:21.676186Z,1697903781676
0.31002235412597656,0.14402437210083008,-0.09492015838623047,2023-10-21T15:56:21.696489Z,1697903781696
0.26829051971435547,0.12352848052978516,-0.08522915840148926,2023-10-21T15:56:21.716731Z,1697903781716
0.23164844512939453,0.1058807373046875,-0.07649660110473633,2023-10-21T15:56:21.736961Z,1697903781736
0.19976043701171875,0.09081721305847168,-0.06863594055175781,2023-10-21T15:56:21.758446Z,1697903781758
0.1716461181640625,0.07777571678161621,-0.06137442588806152,2023-10-21T15:56:21.777586Z,1697903781777
0.1476459503173828,0.06677556037902832,-0.05489516258239746,2023-10-21T15:56:21.797808Z,1697903781797
0.12811565399169922,0.05785632133483887,-0.049434661865234375,2023-10-21T15:56:21.818056Z,1697903781818
0.11324596405029297,0.05101180076599121,-0.045209407806396484,2023-10-21T15:56:21.838272Z,1697903781838
0.10234260559082031,0.04587745666503906,-0.0421140193939209,2023-10-21T15:56:21.858593Z,1697903781858
0.0941152572631836,0.041863203048706055,-0.039786577224731445,2023-10-21T15:56:21.878908Z,1697903781878
0.08679008483886719,0.038205862045288086,-0.03759431838989258,2023-10-21T15:56:21.899101Z,1697903781899
0.07927131652832031,0.034461259841918945,-0.03511929512023926,2023-10-21T15:56:21.919308Z,1697903781919
0.07173824310302734,0.03074336051940918,-0.032456398010253906,2023-10-21T15:56:21.941837Z,1697903781941
0.0646066665649414,0.02725696563720703,-0.029827356338500977,2023-10-21T15:56:21.959878Z,1697903781959
0.05762195587158203,0.02392578125,-0.027157068252563477,2023-10-21T15:56:21.980181Z,1697903781980
0.05084800720214844,0.020795822143554688,-0.024495363235473633,2023-10-21T15:56:22.000448Z,1697903782000
0.045078277587890625,0.018184185028076172,-0.022223472595214844,2023-10-21T15:56:22.020724Z,1697903782020
0.04093742370605469,0.0163118839263916,-0.020671844482421875,2023-10-21T15:56:22.041713Z,1697903782041
0.03829002380371094,0.015096902847290039,-0.019811153411865234,2023-10-21T15:56:22.061238Z,1697903782061
0.037273406982421875,0.014568567276000977,-0.0197601318359375,2023-10-21T15:56:22.081524Z,1697903782081
0.03789520263671875,0.014704465866088867,-0.020566940307617188,2023-10-21T15:56:22.101732Z,1697903782101
0.040576934814453125,0.015621423721313477,-0.02249908447265625,2023-10-21T15:56:22.125235Z,1697903782125
0.045691490173339844,0.0174105167388916,-0.025804996490478516,2023-10-21T15:56:22.142478Z,1697903782142
0.05276298522949219,0.0198214054107666,-0.030249595642089844,2023-10-21T15:56:22.162549Z,1697903782162
0.06202507019042969,0.022862672805786133,-0.035968780517578125,2023-10-21T15:56:22.182813Z,1697903782182
0.07250118255615234,0.026075124740600586,-0.04237794876098633,2023-10-21T15:56:22.203085Z,1697903782203
0.083221435546875,0.029021024703979492,-0.048865318298339844,2023-10-21T15:56:22.223425Z,1697903782223
0.09531974792480469,0.0320279598236084,-0.056061744689941406,2023-10-21T15:56:22.243551Z,1697903782243
0.11059093475341797,0.03559994697570801,-0.06501150131225586,2023-10-21T15:56:22.263854Z,1697903782263
0.1295614242553711,0.039752960205078125,-0.07600021362304688,2023-10-21T15:56:22.285483Z,1697903782285
0.1505756378173828,0.04384946823120117,-0.08804845809936523,2023-10-21T15:56:22.304437Z,1697903782304
0.1712665557861328,0.04718637466430664,-0.09979248046875,2023-10-21T15:56:22.325265Z,1697903782325
0.1908578872680664,0.049653053283691406,-0.11083507537841797,2023-10-21T15:56:22.345063Z,1697903782345
0.20993614196777344,0.05155038833618164,-0.12156105041503906,2023-10-21T15:56:22.365158Z,1697903782365
0.2285480499267578,0.05301797389984131,-0.1319870948791504,2023-10-21T15:56:22.385450Z,1697903782385
0.2460803985595703,0.05404019355773926,-0.14171886444091797,2023-10-21T15:56:22.408155Z,1697903782408
0.26064300537109375,0.05435466766357422,-0.14964866638183594,2023-10-21T15:56:22.425994Z,1697903782425
0.27004528045654297,0.05364799499511719,-0.15448713302612305,2023-10-21T15:56:22.446236Z,1697903782446
0.2732810974121094,0.051836490631103516,-0.15560245513916016,2023-10-21T15:56:22.466487Z,1697903782466
0.2716054916381836,0.04919111728668213,-0.1536092758178711,2023-10-21T15:56:22.486816Z,1697903782486
0.2672595977783203,0.046114444732666016,-0.14975261688232422,2023-10-21T15:56:22.507918Z,1697903782507
0.2605018615722656,0.04268848896026611,-0.1443023681640625,2023-10-21T15:56:22.527264Z,1697903782527
0.25037097930908203,0.03885924816131592,-0.13693571090698242,2023-10-21T15:56:22.547585Z,1697903782547
0.2372608184814453,0.03479588031768799,-0.12806081771850586,2023-10-21T15:56:22.567830Z,1697903782567
0.22218704223632812,0.030717134475708008,-0.11836433410644531,2023-10-21T15:56:22.590964Z,1697903782590
0.20598697662353516,0.02679896354675293,-0.10836315155029297,2023-10-21T15:56:22.608297Z,1697903782608
0.1879262924194336,0.023019909858703613,-0.09772348403930664,2023-10-21T15:56:22.628634Z,1697903782628
0.1680593490600586,0.019454598426818848,-0.08649396896362305,2023-10-21T15:56:22.648924Z,1697903782648
0.14882946014404297,0.01638716459274292,-0.07591915130615234,2023-10-21T15:56:22.669141Z,1697903782669
0.13202857971191406,0.013956785202026367,-0.0668635368347168,2023-10-21T15:56:22.691117Z,1697903782691
0.11890029907226562,0.01220613718032837,-0.05986833572387695,2023-10-21T15:56:22.709646Z,1697903782709
0.11025047302246094,0.011136949062347412,-0.055239200592041016,2023-10-21T15:56:22.729942Z,1697903782729
0.10686492919921875,0.010761260986328125,-0.05328178405761719,2023-10-21T15:56:22.750207Z,1697903782750
0.10785293579101562,0.010954141616821289,-0.05349874496459961,2023-10-21T15:56:22.770467Z,1697903782770
0.11242485046386719,0.01164180040359497,-0.0554652214050293,2023-10-21T15:56:22.790923Z,1697903782790
0.11909294128417969,0.01267099380493164,-0.05845975875854492,2023-10-21T15:56:22.811005Z,1697903782810
0.127288818359375,0.013982832431793213,-0.0622105598449707,2023-10-21T15:56:22.831286Z,1697903782831
0.13583660125732422,0.015425682067871094,-0.06616640090942383,2023-10-21T15:56:22.851512Z,1697903782851
0.1418294906616211,0.016654491424560547,-0.06895303726196289,2023-10-21T15:56:22.874417Z,1697903782874
0.14282798767089844,0.017327308654785156,-0.06942176818847656,2023-10-21T15:56:22.892090Z,1697903782892
0.13714122772216797,0.01716482639312744,-0.06678485870361328,2023-10-21T15:56:22.912360Z,1697903782912
0.1251535415649414,0.01611948013305664,-0.06121015548706055,2023-10-21T15:56:22.932599Z,1697903782932
0.10746383666992188,0.014195084571838379,-0.05291461944580078,2023-10-21T15:56:22.952851Z,1697903782952
0.08566761016845703,0.011556744575500488,-0.04254436492919922,2023-10-21T15:56:22.974038Z,1697903782974
0.06097602844238281,0.008352041244506836,-0.03056812286376953,2023-10-21T15:56:22.993380Z,1697903782993
0.035739898681640625,0.0049402713775634766,-0.01808309555053711,2023-10-21T15:56:23.013641Z,1697903783013
0.013257026672363281,0.0018382072448730469,-0.006764411926269531,2023-10-21T15:56:23.033929Z,1697903783033
-0.003973960876464844,-5.509853363037109E-4,0.002041339874267578,2023-10-21T15:56:23.054097Z,1697903783054
-0.013988494873046875,-0.0019273757934570312,0.007221221923828125,2023-10-21T15:56:23.074445Z,1697903783074
-0.014899253845214844,-0.0020362138748168945,0.007714271545410156,2023-10-21T15:56:23.094670Z,1697903783094
-0.005511283874511719,-7.457733154296875E-4,0.0028557777404785156,2023-10-21T15:56:23.114980Z,1697903783114
0.013776779174804688,0.0018466711044311523,-0.007129669189453125,2023-10-21T15:56:23.135250Z,1697903783135
0.039577484130859375,0.005242347717285156,-0.02042865753173828,2023-10-21T15:56:23.157313Z,1697903783157
0.06733417510986328,0.008790254592895508,-0.03462648391723633,2023-10-21T15:56:23.175748Z,1697903783175
0.09290409088134766,0.011925935745239258,-0.047588348388671875,2023-10-21T15:56:23.196046Z,1697903783196
0.11319828033447266,0.014272809028625488,-0.057802677154541016,2023-10-21T15:56:23.216265Z,1697903783216
0.12524986267089844,0.015492558479309082,-0.0638742446899414,2023-10-21T15:56:23.236483Z,1697903783236
0.12573909759521484,0.015205740928649902,-0.06418800354003906,2023-10-21T15:56:23.257304Z,1697903783257
0.11420631408691406,0.013441920280456543,-0.05849647521972656,2023-10-21T15:56:23.277088Z,1697903783277
0.09114265441894531,0.010394155979156494,-0.04693889617919922,2023-10-21T15:56:23.297307Z,1697903783297
0.05976104736328125,0.006574571132659912,-0.031005859375,2023-10-21T15:56:23.317564Z,1697903783317
0.02344799041748047,0.0024752020835876465,-0.012274742126464844,2023-10-21T15:56:23.340766Z,1697903783340
-0.013330459594726562,-0.001343369483947754,0.007045269012451172,2023-10-21T15:56:23.358114Z,1697903783358
-0.04593849182128906,-0.004380464553833008,0.024519920349121094,2023-10-21T15:56:23.378374Z,1697903783378
-0.07046985626220703,-0.006327986717224121,0.03794527053833008,2023-10-21T15:56:23.398658Z,1697903783398
-0.08433341979980469,-0.007097482681274414,0.0457305908203125,2023-10-21T15:56:23.418910Z,1697903783418
-0.08613204956054688,-0.0067667365074157715,0.046909332275390625,2023-10-21T15:56:23.440373Z,1697903783440
-0.07455062866210938,-0.005453586578369141,0.04065561294555664,2023-10-21T15:56:23.459455Z,1697903783459
-0.05136394500732422,-0.0034902095794677734,0.027976036071777344,2023-10-21T15:56:23.479731Z,1697903783479
-0.019867897033691406,-0.0012554526329040527,0.010789871215820312,2023-10-21T15:56:23.500086Z,1697903783499
0.014580726623535156,8.594989776611328E-4,-0.007893085479736328,2023-10-21T15:56:23.520169Z,1697903783520
0.047202110290527344,0.0026178061962127686,-0.02546548843383789,2023-10-21T15:56:23.540446Z,1697903783540
0.0755758285522461,0.003986775875091553,-0.04065418243408203,2023-10-21T15:56:23.560774Z,1697903783560
0.09749984741210938,0.004967063665390015,-0.05234050750732422,2023-10-21T15:56:23.580999Z,1697903783580
0.11072444915771484,0.005507141351699829,-0.059409141540527344,2023-10-21T15:56:23.601265Z,1697903783601
0.11407279968261719,0.005572319030761719,-0.06129169464111328,2023-10-21T15:56:23.623788Z,1697903783623
0.10764312744140625,0.005188882350921631,-0.05802774429321289,2023-10-21T15:56:23.641771Z,1697903783641
0.09420585632324219,0.004528820514678955,-0.05101585388183594,2023-10-21T15:56:23.662042Z,1697903783661
0.07653999328613281,0.0037298202514648438,-0.04166555404663086,2023-10-21T15:56:23.682332Z,1697903783682
0.05745887756347656,0.0028710365295410156,-0.031438350677490234,2023-10-21T15:56:23.702551Z,1697903783702
0.03952598571777344,0.0020323991775512695,-0.021721839904785156,2023-10-21T15:56:23.723336Z,1697903783723
0.025490760803222656,0.0013501346111297607,-0.0140533447265625,2023-10-21T15:56:23.743332Z,1697903783743
0.016977310180664062,9.286701679229736E-4,-0.00937795639038086,2023-10-21T15:56:23.763419Z,1697903783763
0.013125419616699219,7.410943508148193E-4,-0.007256984710693359,2023-10-21T15:56:23.783684Z,1697903783783
0.013708114624023438,7.961094379425049E-4,-0.007574558258056641,2023-10-21T15:56:23.806920Z,1697903783806
0.018308639526367188,0.001081705093383789,-0.01009368896484375,2023-10-21T15:56:23.824167Z,1697903783824
0.027566909790039062,0.0016416311264038086,-0.015142440795898438,2023-10-21T15:56:23.844487Z,1697903783844
0.04084014892578125,0.0024327635765075684,-0.022333145141601562,2023-10-21T15:56:23.864723Z,1697903783864
0.056038856506347656,0.00332033634185791,-0.03051280975341797,2023-10-21T15:56:23.884985Z,1697903783884
0.07059860229492188,0.004134654998779297,-0.03829050064086914,2023-10-21T15:56:23.906858Z,1697903783906
0.08216285705566406,0.004722714424133301,-0.04441976547241211,2023-10-21T15:56:23.925500Z,1697903783925
0.08900642395019531,0.004980206489562988,-0.04802703857421875,2023-10-21T15:56:23.945779Z,1697903783945
0.09077262878417969,0.0049159228801727295,-0.04895305633544922,2023-10-21T15:56:23.966050Z,1697903783966
0.0897064208984375,0.0047019124031066895,-0.04841470718383789,2023-10-21T15:56:23.986214Z,1697903783986
0.08749008178710938,0.00445285439491272,-0.047307491302490234,2023-10-21T15:56:24.006776Z,1697903784006
0.08458518981933594,0.00421944260597229,-0.04586505889892578,2023-10-21T15:56:24.026831Z,1697903784026
0.08102798461914062,0.004011482000350952,-0.04407978057861328,2023-10-21T15:56:24.047117Z,1697903784047
0.07552433013916016,0.0037443041801452637,-0.04122638702392578,2023-10-21T15:56:24.067347Z,1697903784067
0.06866741180419922,0.0034419596195220947,-0.03760242462158203,2023-10-21T15:56:24.090094Z,1697903784090
0.06152820587158203,0.003171682357788086,-0.03379249572753906,2023-10-21T15:56:24.107856Z,1697903784107
0.055919647216796875,0.0030235350131988525,-0.030778884887695312,2023-10-21T15:56:24.128141Z,1697903784128
0.05500030517578125,0.0031670331954956055,-0.03029775619506836,2023-10-21T15:56:24.148381Z,1697903784148
0.05941295623779297,0.0036523938179016113,-0.0327000617980957,2023-10-21T15:56:24.168626Z,1697903784168
0.06841468811035156,0.0044574737548828125,-0.03757810592651367,2023-10-21T15:56:24.190007Z,1697903784189
0.08040046691894531,0.005522251129150391,-0.044051170349121094,2023-10-21T15:56:24.209171Z,1697903784209
0.09366607666015625,0.006749153137207031,-0.05119514465332031,2023-10-21T15:56:24.229445Z,1697903784229
0.10672569274902344,0.00803309679031372,-0.05822038650512695,2023-10-21T15:56:24.249677Z,1697903784249
0.11874580383300781,0.009311378002166748,-0.06468629837036133,2023-10-21T15:56:24.269902Z,1697903784269
0.12949371337890625,0.010523438453674316,-0.07047748565673828,2023-10-21T15:56:24.290263Z,1697903784290
0.1390848159790039,0.011625945568084717,-0.07566642761230469,2023-10-21T15:56:24.310526Z,1697903784310
0.14719200134277344,0.012601733207702637,-0.08012866973876953,2023-10-21T15:56:24.330754Z,1697903784330
0.1511678695678711,0.013284504413604736,-0.08245134353637695,2023-10-21T15:56:24.350947Z,1697903784350
0.14880943298339844,0.013534009456634521,-0.08143424987792969,2023-10-21T15:56:24.373272Z,1697903784373
0.14033031463623047,0.013362467288970947,-0.07709741592407227,2023-10-21T15:56:24.391525Z,1697903784391
0.12832927703857422,0.012901067733764648,-0.07078981399536133,2023-10-21T15:56:24.411826Z,1697903784411
0.1164102554321289,0.012422919273376465,-0.0644526481628418,2023-10-21T15:56:24.432066Z,1697903784432
0.10633659362792969,0.012055575847625732,-0.05906105041503906,2023-10-21T15:56:24.452282Z,1697903784452
0.09793376922607422,0.011747479438781738,-0.05452728271484375,2023-10-21T15:56:24.473188Z,1697903784473
0.09031391143798828,0.011390924453735352,-0.050382137298583984,2023-10-21T15:56:24.492845Z,1697903784492
0.08401775360107422,0.011055469512939453,-0.04694032669067383,2023-10-21T15:56:24.513115Z,1697903784513
0.08052825927734375,0.010956764221191406,-0.04503154754638672,2023-10-21T15:56:24.533383Z,1697903784533
0.08026695251464844,0.011182904243469238,-0.04491090774536133,2023-10-21T15:56:24.556457Z,1697903784556
0.08358955383300781,0.011813640594482422,-0.0467839241027832,2023-10-21T15:56:24.573874Z,1697903784573
0.08858680725097656,0.0125657320022583,-0.04959678649902344,2023-10-21T15:56:24.594172Z,1697903784594
0.09415912628173828,0.013255715370178223,-0.05272626876831055,2023-10-21T15:56:24.614450Z,1697903784614
0.09970951080322266,0.013792753219604492,-0.05585193634033203,2023-10-21T15:56:24.634706Z,1697903784634
0.10296440124511719,0.013911604881286621,-0.05773019790649414,2023-10-21T15:56:24.656579Z,1697903784656
0.10294055938720703,0.013624787330627441,-0.05783510208129883,2023-10-21T15:56:24.675325Z,1697903784675
0.09993553161621094,0.013101696968078613,-0.05628490447998047,2023-10-21T15:56:24.695564Z,1697903784695
0.09460639953613281,0.012432336807250977,-0.053379058837890625,2023-10-21T15:56:24.715798Z,1697903784715
0.0882558822631836,0.011734962463378906,-0.04981517791748047,2023-10-21T15:56:24.736044Z,1697903784736
0.0824728012084961,0.011126518249511719,-0.04649543762207031,2023-10-21T15:56:24.756243Z,1697903784756
0.07736015319824219,0.010588884353637695,-0.04352569580078125,2023-10-21T15:56:24.776514Z,1697903784776
0.07503223419189453,0.010441064834594727,-0.04211711883544922,2023-10-21T15:56:24.796797Z,1697903784796
0.07424640655517578,0.010534405708312988,-0.04158163070678711,2023-10-21T15:56:24.817028Z,1697903784817
0.07348918914794922,0.010663032531738281,-0.041045188903808594,2023-10-21T15:56:24.839292Z,1697903784839
0.0737161636352539,0.010939955711364746,-0.04101228713989258,2023-10-21T15:56:24.857580Z,1697903784857
0.07645416259765625,0.01153266429901123,-0.04229736328125,2023-10-21T15:56:24.877879Z,1697903784877
0.0820169448852539,0.012437105178833008,-0.045079708099365234,2023-10-21T15:56:24.898157Z,1697903784898
0.08875560760498047,0.013407468795776367,-0.04848432540893555,2023-10-21T15:56:24.918393Z,1697903784918
0.09383869171142578,0.014041423797607422,-0.05101346969604492,2023-10-21T15:56:24.939503Z,1697903784939
0.09610557556152344,0.014250397682189941,-0.05205678939819336,2023-10-21T15:56:24.958907Z,1697903784958
0.09731006622314453,0.014337897300720215,-0.052525997161865234,2023-10-21T15:56:24.979188Z,1697903784979
0.09780216217041016,0.014345407485961914,-0.052567481994628906,2023-10-21T15:56:24.999414Z,1697903784999
0.09874629974365234,0.014459609985351562,-0.05279064178466797,2023-10-21T15:56:25.022794Z,1697903785022
0.10070228576660156,0.01477348804473877,-0.0535130500793457,2023-10-21T15:56:25.040234Z,1697903785040
0.10382366180419922,0.01532125473022461,-0.054821014404296875,2023-10-21T15:56:25.060266Z,1697903785060
0.10750102996826172,0.016028165817260742,-0.05639028549194336,2023-10-21T15:56:25.080540Z,1697903785080
0.11119937896728516,0.016826391220092773,-0.05792951583862305,2023-10-21T15:56:25.100743Z,1697903785100
0.11357879638671875,0.017497897148132324,-0.05874490737915039,2023-10-21T15:56:25.122623Z,1697903785122
0.11386394500732422,0.017880678176879883,-0.05845832824707031,2023-10-21T15:56:25.141326Z,1697903785141
0.11216163635253906,0.01793074607849121,-0.05715608596801758,2023-10-21T15:56:25.161583Z,1697903785161
0.10882186889648438,0.017621159553527832,-0.055058956146240234,2023-10-21T15:56:25.181886Z,1697903785181
0.1038055419921875,0.016905665397644043,-0.05218839645385742,2023-10-21T15:56:25.202040Z,1697903785202
0.0964059829711914,0.01569235324859619,-0.04821491241455078,2023-10-21T15:56:25.222642Z,1697903785222
0.08549213409423828,0.013848066329956055,-0.04258012771606445,2023-10-21T15:56:25.242703Z,1697903785242
0.07113838195800781,0.011451959609985352,-0.035306453704833984,2023-10-21T15:56:25.262894Z,1697903785262
0.05696296691894531,0.009099721908569336,-0.02815866470336914,2023-10-21T15:56:25.283184Z,1697903785283
0.04475879669189453,0.007076740264892578,-0.022010326385498047,2023-10-21T15:56:25.305832Z,1697903785305
0.03748798370361328,0.005849719047546387,-0.018303871154785156,2023-10-21T15:56:25.323707Z,1697903785323
0.03551959991455078,0.005460381507873535,-0.017188072204589844,2023-10-21T15:56:25.343977Z,1697903785343
0.037639617919921875,0.005699753761291504,-0.018026351928710938,2023-10-21T15:56:25.364203Z,1697903785364
0.041855812072753906,0.006272315979003906,-0.019822120666503906,2023-10-21T15:56:25.384455Z,1697903785384
0.047118186950683594,0.007046818733215332,-0.022047996520996094,2023-10-21T15:56:25.405804Z,1697903785405
0.053707122802734375,0.008076906204223633,-0.02480602264404297,2023-10-21T15:56:25.424998Z,1697903785424
0.06283760070800781,0.009560465812683105,-0.028612136840820312,2023-10-21T15:56:25.445314Z,1697903785445
0.07473945617675781,0.011541962623596191,-0.03352046012878418,2023-10-21T15:56:25.465565Z,1697903785465
0.08627986907958984,0.013576865196228027,-0.038120269775390625,2023-10-21T15:56:25.485762Z,1697903785485
0.09582901000976562,0.01545870304107666,-0.0417327880859375,2023-10-21T15:56:25.506015Z,1697903785505
0.1016855239868164,0.01691412925720215,-0.04367375373840332,2023-10-21T15:56:25.526284Z,1697903785526
0.10383987426757812,0.017886996269226074,-0.04398798942565918,2023-10-21T15:56:25.546603Z,1697903785546
0.10289955139160156,0.01840078830718994,-0.042974233627319336,2023-10-21T15:56:25.566825Z,1697903785566
0.1000518798828125,0.01857912540435791,-0.04116654396057129,2023-10-21T15:56:25.589064Z,1697903785589
0.09673786163330078,0.018646955490112305,-0.03917217254638672,2023-10-21T15:56:25.607339Z,1697903785607
0.09406852722167969,0.018808722496032715,-0.03744387626647949,2023-10-21T15:56:25.627664Z,1697903785627
0.09152030944824219,0.018964648246765137,-0.0357668399810791,2023-10-21T15:56:25.647991Z,1697903785647
0.08832168579101562,0.018954873085021973,-0.03385782241821289,2023-10-21T15:56:25.668129Z,1697903785668
0.08467864990234375,0.018796205520629883,-0.03181624412536621,2023-10-21T15:56:25.688989Z,1697903785688
0.08117389678955078,0.01860499382019043,-0.029886484146118164,2023-10-21T15:56:25.708738Z,1697903785708
0.07874870300292969,0.018596887588500977,-0.028418540954589844,2023-10-21T15:56:25.728966Z,1697903785728
0.07867240905761719,0.019109010696411133,-0.027839183807373047,2023-10-21T15:56:25.749230Z,1697903785749
0.08152484893798828,0.020345211029052734,-0.028298616409301758,2023-10-21T15:56:25.772306Z,1697903785772
0.08646965026855469,0.022167682647705078,-0.029442548751831055,2023-10-21T15:56:25.789674Z,1697903785789
0.09175777435302734,0.0241701602935791,-0.030649423599243164,2023-10-21T15:56:25.810040Z,1697903785809
0.09661579132080078,0.026160478591918945,-0.03167319297790527,2023-10-21T15:56:25.830269Z,1697903785830
0.10219097137451172,0.02843308448791504,-0.032901763916015625,2023-10-21T15:56:25.850502Z,1697903785850
0.10941410064697266,0.031243562698364258,-0.0346224308013916,2023-10-21T15:56:25.871919Z,1697903785871
0.11759376525878906,0.034407854080200195,-0.036589860916137695,2023-10-21T15:56:25.891088Z,1697903785891
0.12494087219238281,0.03738832473754883,-0.03824615478515625,2023-10-21T15:56:25.911316Z,1697903785911
0.13019275665283203,0.039778709411621094,-0.03921914100646973,2023-10-21T15:56:25.931576Z,1697903785931
0.1326885223388672,0.04132533073425293,-0.03935599327087402,2023-10-21T15:56:25.951807Z,1697903785951
0.1321849822998047,0.0419011116027832,-0.038643598556518555,2023-10-21T15:56:25.972630Z,1697903785972
0.1289215087890625,0.04153752326965332,-0.03720402717590332,2023-10-21T15:56:25.992358Z,1697903785992
0.12350273132324219,0.040392160415649414,-0.03524017333984375,2023-10-21T15:56:26.012667Z,1697903786012
0.11595726013183594,0.03845834732055664,-0.03276705741882324,2023-10-21T15:56:26.032930Z,1697903786032
0.10575103759765625,0.03555035591125488,-0.029647350311279297,2023-10-21T15:56:26.055381Z,1697903786055
0.09270000457763672,0.031584978103637695,-0.025833845138549805,2023-10-21T15:56:26.073397Z,1697903786073
0.07747459411621094,0.026750802993774414,-0.02150440216064453,2023-10-21T15:56:26.093707Z,1697903786093
0.06200218200683594,0.021683931350708008,-0.017169952392578125,2023-10-21T15:56:26.113980Z,1697903786113
0.04842948913574219,0.017132043838500977,-0.013396978378295898,2023-10-21T15:56:26.134187Z,1697903786134
0.037253379821777344,0.013309955596923828,-0.010303258895874023,2023-10-21T15:56:26.155289Z,1697903786155
0.027568817138671875,0.009936094284057617,-0.0076291561126708984,2023-10-21T15:56:26.174730Z,1697903786174
0.0171661376953125,0.006234884262084961,-0.0047571659088134766,2023-10-21T15:56:26.195013Z,1697903786194
0.0053997039794921875,0.0019762516021728516,-0.0014994144439697266,2023-10-21T15:56:26.215339Z,1697903786215
-0.004456520080566406,-0.0016412734985351562,0.0012402534484863281,2023-10-21T15:56:26.238676Z,1697903786238
-0.009799003601074219,-0.0036339759826660156,0.002731800079345703,2023-10-21T15:56:26.255809Z,1697903786255
-0.010941505432128906,-0.00408625602722168,0.0030591487884521484,2023-10-21T15:56:26.276070Z,1697903786276
-0.010694503784179688,-0.004027843475341797,0.003003835678100586,2023-10-21T15:56:26.296331Z,1697903786296
-0.010069847106933594,-0.0038366317749023438,0.002844572067260742,2023-10-21T15:56:26.316553Z,1697903786316
-0.008210182189941406,-0.0031714439392089844,0.0023419857025146484,2023-10-21T15:56:26.338554Z,1697903786338
-0.00374603271484375,-0.00147247314453125,0.0010805130004882812,2023-10-21T15:56:26.357168Z,1697903786357
0.0032472610473632812,0.0013020038604736328,-9.496212005615234E-4,2023-10-21T15:56:26.377467Z,1697903786377
0.01256561279296875,0.0051422119140625,-0.0037240982055664062,2023-10-21T15:56:26.397659Z,1697903786397
0.024392127990722656,0.010199546813964844,-0.0073299407958984375,2023-10-21T15:56:26.417857Z,1697903786417
0.03631782531738281,0.015523433685302734,-0.011065006256103516,2023-10-21T15:56:26.438455Z,1697903786438
0.0464324951171875,0.020290613174438477,-0.014329195022583008,2023-10-21T15:56:26.458543Z,1697903786458
0.055084228515625,0.02460479736328125,-0.017194747924804688,2023-10-21T15:56:26.478736Z,1697903786478
0.06504154205322266,0.02966022491455078,-0.020499229431152344,2023-10-21T15:56:26.498950Z,1697903786498
0.07715797424316406,0.03587961196899414,-0.0245053768157959,2023-10-21T15:56:26.522155Z,1697903786522
0.08936405181884766,0.042339324951171875,-0.028550386428833008,2023-10-21T15:56:26.539498Z,1697903786539
0.09974479675292969,0.04812479019165039,-0.032003164291381836,2023-10-21T15:56:26.559749Z,1697903786559
0.10866928100585938,0.05337095260620117,-0.034958600997924805,2023-10-21T15:56:26.580098Z,1697903786580
0.11902046203613281,0.05947399139404297,-0.03836369514465332,2023-10-21T15:56:26.600467Z,1697903786600
0.13197040557861328,0.06709623336791992,-0.04264664649963379,2023-10-21T15:56:26.621565Z,1697903786621
0.14628219604492188,0.07573890686035156,-0.04747891426086426,2023-10-21T15:56:26.640808Z,1697903786640
0.16078472137451172,0.0848703384399414,-0.052496910095214844,2023-10-21T15:56:26.661082Z,1697903786661
0.17496776580810547,0.0941920280456543,-0.05751848220825195,2023-10-21T15:56:26.681354Z,1697903786681
0.18977832794189453,0.10414838790893555,-0.06283211708068848,2023-10-21T15:56:26.701567Z,1697903786701
0.20532989501953125,0.11473655700683594,-0.06846165657043457,2023-10-21T15:56:26.721832Z,1697903786721
0.21903705596923828,0.12446117401123047,-0.07354855537414551,2023-10-21T15:56:26.742152Z,1697903786742
0.22864055633544922,0.13195180892944336,-0.07732868194580078,2023-10-21T15:56:26.762412Z,1697903786762
0.23357868194580078,0.13676118850708008,-0.07958602905273438,2023-10-21T15:56:26.782609Z,1697903786782
0.23455047607421875,0.13913917541503906,-0.08047080039978027,2023-10-21T15:56:26.804912Z,1697903786804
0.2314739227294922,0.13889408111572266,-0.0798642635345459,2023-10-21T15:56:26.823168Z,1697903786823
0.22422409057617188,0.13586044311523438,-0.07764744758605957,2023-10-21T15:56:26.843447Z,1697903786843
0.21295642852783203,0.1301422119140625,-0.07390427589416504,2023-10-21T15:56:26.863724Z,1697903786863
0.19890308380126953,0.12257242202758789,-0.06912422180175781,2023-10-21T15:56:26.883970Z,1697903786883
0.1832728385925293,0.11394596099853516,-0.06377673149108887,2023-10-21T15:56:26.904637Z,1697903786904
0.16693878173828125,0.10484600067138672,-0.058200836181640625,2023-10-21T15:56:26.924496Z,1697903786924
0.15224456787109375,0.09672069549560547,-0.053205013275146484,2023-10-21T15:56:26.944809Z,1697903786944
0.14153242111206055,0.09104537963867188,-0.04959535598754883,2023-10-21T15:56:26.965031Z,1697903786964
0.13594818115234375,0.08860349655151367,-0.047775983810424805,2023-10-21T15:56:26.988127Z,1697903786988
0.13419294357299805,0.08867549896240234,-0.0473175048828125,2023-10-21T15:56:27.005558Z,1697903787005
0.13495588302612305,0.09049654006958008,-0.04779386520385742,2023-10-21T15:56:27.025852Z,1697903787025
0.13791513442993164,0.09389019012451172,-0.04911494255065918,2023-10-21T15:56:27.046119Z,1697903787046
0.14335203170776367,0.09905195236206055,-0.051400184631347656,2023-10-21T15:56:27.066378Z,1697903787066
0.15157032012939453,0.10620260238647461,-0.054773807525634766,2023-10-21T15:56:27.087937Z,1697903787087
0.16004180908203125,0.113616943359375,-0.058324575424194336,2023-10-21T15:56:27.106952Z,1697903787106
0.1662125587463379,0.11943435668945312,-0.061074256896972656,2023-10-21T15:56:27.127170Z,1697903787127
0.16952037811279297,0.12313985824584961,-0.06275558471679688,2023-10-21T15:56:27.147404Z,1697903787147
0.17044401168823242,0.12498807907104492,-0.06353926658630371,2023-10-21T15:56:27.167649Z,1697903787167
0.17024469375610352,0.1259016990661621,-0.06391358375549316,2023-10-21T15:56:27.187983Z,1697903787187
0.16904401779174805,0.1259756088256836,-0.06393027305603027,2023-10-21T15:56:27.208279Z,1697903787208
0.16667413711547852,0.1250758171081543,-0.06349706649780273,2023-10-21T15:56:27.228513Z,1697903787228
0.1635279655456543,0.12347841262817383,-0.06272459030151367,2023-10-21T15:56:27.248764Z,1697903787248
0.16011571884155273,0.1215519905090332,-0.06178474426269531,2023-10-21T15:56:27.271137Z,1697903787271
0.1561126708984375,0.1190638542175293,-0.0605466365814209,2023-10-21T15:56:27.289215Z,1697903787289
0.1524033546447754,0.11667490005493164,-0.059359073638916016,2023-10-21T15:56:27.309613Z,1697903787309
0.15026092529296875,0.1153717041015625,-0.05873227119445801,2023-10-21T15:56:27.329807Z,1697903787329
0.1500391960144043,0.1154322624206543,-0.058827877044677734,2023-10-21T15:56:27.349975Z,1697903787349
0.15131473541259766,0.11652803421020508,-0.059476613998413086,2023-10-21T15:56:27.371206Z,1697903787371
0.1531987190246582,0.11795663833618164,-0.06032514572143555,2023-10-21T15:56:27.390682Z,1697903787390
0.15593338012695312,0.11987924575805664,-0.06147408485412598,2023-10-21T15:56:27.410897Z,1697903787410
0.16041278839111328,0.12292194366455078,-0.06329107284545898,2023-10-21T15:56:27.431034Z,1697903787431
0.16736698150634766,0.12760353088378906,-0.0661017894744873,2023-10-21T15:56:27.454368Z,1697903787454
0.1759624481201172,0.133270263671875,-0.06962347030639648,2023-10-21T15:56:27.471580Z,1697903787471
0.18424654006958008,0.1384873390197754,-0.07312726974487305,2023-10-21T15:56:27.491892Z,1697903787491
0.19025564193725586,0.1418309211730957,-0.07584786415100098,2023-10-21T15:56:27.512132Z,1697903787512
0.19391536712646484,0.1432361602783203,-0.07772493362426758,2023-10-21T15:56:27.532316Z,1697903787532
0.19667577743530273,0.143768310546875,-0.07932162284851074,2023-10-21T15:56:27.554743Z,1697903787554
0.20002222061157227,0.14454984664916992,-0.08126091957092285,2023-10-21T15:56:27.572931Z,1697903787572
0.20381450653076172,0.14555883407592773,-0.08352231979370117,2023-10-21T15:56:27.593217Z,1697903787593
0.20784807205200195,0.14671897888183594,-0.08605241775512695,2023-10-21T15:56:27.613463Z,1697903787613
0.2122635841369629,0.14818954467773438,-0.08893322944641113,2023-10-21T15:56:27.633650Z,1697903787633
0.21715021133422852,0.15004348754882812,-0.09221816062927246,2023-10-21T15:56:27.654183Z,1697903787654
0.22279596328735352,0.15250682830810547,-0.09604930877685547,2023-10-21T15:56:27.674376Z,1697903787674
0.22965764999389648,0.15587806701660156,-0.10064387321472168,2023-10-21T15:56:27.694550Z,1697903787694
0.23842191696166992,0.16062021255493164,-0.10634255409240723,2023-10-21T15:56:27.714701Z,1697903787714
0.24863243103027344,0.1664719581604004,-0.1130366325378418,2023-10-21T15:56:27.737470Z,1697903787737
0.2589282989501953,0.17259693145751953,-0.1201927661895752,2023-10-21T15:56:27.755286Z,1697903787755
0.26786279678344727,0.1780862808227539,-0.12716984748840332,2023-10-21T15:56:27.775622Z,1697903787775
0.27530622482299805,0.18280506134033203,-0.13385009765625,2023-10-21T15:56:27.795820Z,1697903787795
0.2809028625488281,0.18644380569458008,-0.13996601104736328,2023-10-21T15:56:27.816042Z,1697903787816
0.2837519645690918,0.18837499618530273,-0.14496207237243652,2023-10-21T15:56:27.837246Z,1697903787837
0.2829928398132324,0.18802165985107422,-0.14824938774108887,2023-10-21T15:56:27.856648Z,1697903787856
0.2789034843444824,0.18554353713989258,-0.14980792999267578,2023-10-21T15:56:27.876923Z,1697903787876
0.27261924743652344,0.18161344528198242,-0.15008831024169922,2023-10-21T15:56:27.897207Z,1697903787897
0.2652311325073242,0.17688369750976562,-0.14956998825073242,2023-10-21T15:56:27.917472Z,1697903787917
0.25716686248779297,0.17165279388427734,-0.14841794967651367,2023-10-21T15:56:27.937665Z,1697903787937
0.24868154525756836,0.16610479354858398,-0.14669513702392578,2023-10-21T15:56:27.957949Z,1697903787957
0.2403087615966797,0.16058588027954102,-0.14464235305786133,2023-10-21T15:56:27.978183Z,1697903787978
0.23284101486206055,0.1556224822998047,-0.1426849365234375,2023-10-21T15:56:27.998476Z,1697903787998
0.22791671752929688,0.15232038497924805,-0.14183759689331055,2023-10-21T15:56:28.020580Z,1697903788020
0.22714567184448242,0.15179061889648438,-0.14313030242919922,2023-10-21T15:56:28.038992Z,1697903788038
0.2306222915649414,0.15413761138916016,-0.1466355323791504,2023-10-21T15:56:28.059286Z,1697903788059
0.2359757423400879,0.15776348114013672,-0.15076541900634766,2023-10-21T15:56:28.079500Z,1697903788079
0.2399744987487793,0.16048097610473633,-0.15331745147705078,2023-10-21T15:56:28.099802Z,1697903788099
0.24063491821289062,0.16091108322143555,-0.1529531478881836,2023-10-21T15:56:28.120548Z,1697903788120
0.23801326751708984,0.15902948379516602,-0.14972972869873047,2023-10-21T15:56:28.140391Z,1697903788140
0.23248577117919922,0.15508794784545898,-0.14402008056640625,2023-10-21T15:56:28.160590Z,1697903788160
0.22423219680786133,0.14927387237548828,-0.13616418838500977,2023-10-21T15:56:28.180792Z,1697903788180
0.21325445175170898,0.14169788360595703,-0.1264324188232422,2023-10-21T15:56:28.203875Z,1697903788203
0.19974946975708008,0.1325817108154297,-0.11522531509399414,2023-10-21T15:56:28.221328Z,1697903788221
0.1844172477722168,0.12242794036865234,-0.10319995880126953,2023-10-21T15:56:28.241656Z,1697903788241
0.16899442672729492,0.11238241195678711,-0.09151172637939453,2023-10-21T15:56:28.261868Z,1697903788261
0.15645885467529297,0.1043996810913086,-0.0818185806274414,2023-10-21T15:56:28.282167Z,1697903788282
0.14967918395996094,0.10039997100830078,-0.07547330856323242,2023-10-21T15:56:28.303931Z,1697903788303
0.14970731735229492,0.10115289688110352,-0.07268691062927246,2023-10-21T15:56:28.322700Z,1697903788322
0.15551280975341797,0.10607004165649414,-0.07259893417358398,2023-10-21T15:56:28.342995Z,1697903788342
0.1654648780822754,0.11415958404541016,-0.07413792610168457,2023-10-21T15:56:28.363179Z,1697903788363
0.17815446853637695,0.124542236328125,-0.07645821571350098,2023-10-21T15:56:28.383378Z,1697903788383
0.19315147399902344,0.13695955276489258,-0.07922244071960449,2023-10-21T15:56:28.403788Z,1697903788403
0.2101459503173828,0.15123844146728516,-0.08220148086547852,2023-10-21T15:56:28.424087Z,1697903788424
0.22890996932983398,0.16722488403320312,-0.08523988723754883,2023-10-21T15:56:28.444328Z,1697903788444
0.24866008758544922,0.1843428611755371,-0.08803606033325195,2023-10-21T15:56:28.464536Z,1697903788464
0.2687673568725586,0.20210647583007812,-0.0904550552368164,2023-10-21T15:56:28.487267Z,1697903788487
0.28855180740356445,0.2199854850769043,-0.09244060516357422,2023-10-21T15:56:28.505046Z,1697903788505
0.3068385124206543,0.2370615005493164,-0.09386801719665527,2023-10-21T15:56:28.525359Z,1697903788525
0.32169580459594727,0.25176191329956055,-0.09444379806518555,2023-10-21T15:56:28.545623Z,1697903788545
0.3318033218383789,0.2628512382507324,-0.09410619735717773,2023-10-21T15:56:28.565770Z,1697903788565
0.33753442764282227,0.27040529251098633,-0.09325194358825684,2023-10-21T15:56:28.586909Z,1697903788586
0.3395557403564453,0.27478885650634766,-0.09229135513305664,2023-10-21T15:56:28.606367Z,1697903788606
0.33795166015625,0.2759404182434082,-0.09131646156311035,2023-10-21T15:56:28.626687Z,1697903788626
0.3319830894470215,0.2731609344482422,-0.09008574485778809,2023-10-21T15:56:28.646906Z,1697903788646
0.32196474075317383,0.26656293869018555,-0.08856606483459473,2023-10-21T15:56:28.670173Z,1697903788670
0.3095574378967285,0.25734806060791016,-0.08703470230102539,2023-10-21T15:56:28.687422Z,1697903788687
0.29685258865356445,0.24710655212402344,-0.08589386940002441,2023-10-21T15:56:28.707743Z,1697903788707
0.2856307029724121,0.23725652694702148,-0.0854954719543457,2023-10-21T15:56:28.728036Z,1697903788727
0.2771921157836914,0.22887086868286133,-0.08612346649169922,2023-10-21T15:56:28.748195Z,1697903788748
0.27175092697143555,0.2221531867980957,-0.08779788017272949,2023-10-21T15:56:28.770077Z,1697903788770
0.26807117462158203,0.21610069274902344,-0.09007382392883301,2023-10-21T15:56:28.788747Z,1697903788788
0.26398468017578125,0.20901250839233398,-0.09215188026428223,2023-10-21T15:56:28.809040Z,1697903788808
0.25743961334228516,0.19932842254638672,-0.09321403503417969,2023-10-21T15:56:28.829284Z,1697903788829
0.24732160568237305,0.18635892868041992,-0.0927278995513916,2023-10-21T15:56:28.849418Z,1697903788849
0.2327723503112793,0.16976118087768555,-0.0902099609375,2023-10-21T15:56:28.869977Z,1697903788869
0.21258878707885742,0.14918994903564453,-0.08501243591308594,2023-10-21T15:56:28.890087Z,1697903788890
0.18579912185668945,0.12470245361328125,-0.0765523910522461,2023-10-21T15:56:28.910372Z,1697903788910
0.1521453857421875,0.09697151184082031,-0.06450057029724121,2023-10-21T15:56:28.930600Z,1697903788930
0.11236381530761719,0.06743669509887695,-0.04895949363708496,2023-10-21T15:56:28.953303Z,1697903788953
0.06869173049926758,0.038443565368652344,-0.030735015869140625,2023-10-21T15:56:28.971163Z,1697903788971
0.02473735809326172,0.012766838073730469,-0.011358499526977539,2023-10-21T15:56:28.991422Z,1697903788991
-0.014014244079589844,-0.00658416748046875,0.0065958499908447266,2023-10-21T15:56:29.011724Z,1697903789011
-0.04143524169921875,-0.01746392250061035,0.019968271255493164,2023-10-21T15:56:29.031855Z,1697903789031
-0.052094459533691406,-0.01936817169189453,0.02567577362060547,2023-10-21T15:56:29.053228Z,1697903789053
-0.04145622253417969,-0.013327598571777344,0.020877361297607422,2023-10-21T15:56:29.072492Z,1697903789072
-0.006421089172363281,-0.0017414093017578125,0.0033020973205566406,2023-10-21T15:56:29.092780Z,1697903789092
0.054195404052734375,0.012005448341369629,-0.028446674346923828,2023-10-21T15:56:29.112979Z,1697903789112
0.14019298553466797,0.024250388145446777,-0.07506275177001953,2023-10-21T15:56:29.133132Z,1697903789133
0.2505502700805664,0.03162336349487305,-0.1367793083190918,2023-10-21T15:56:29.153472Z,1697903789153
0.38326358795166016,0.031227052211761475,-0.21319198608398438,2023-10-21T15:56:29.173766Z,1697903789173
0.5341482162475586,0.02074754238128662,-0.30251073837280273,2023-10-21T15:56:29.194006Z,1697903789193
0.6977214813232422,-0.0012982506304979324,-0.40197038650512695,2023-10-21T15:56:29.214336Z,1697903789214
0.8689641952514648,-0.03555735945701599,-0.5088319778442383,2023-10-21T15:56:29.236462Z,1697903789236
1.0441064834594727,-0.08189553022384644,-0.6208705902099609,2023-10-21T15:56:29.254813Z,1697903789254
1.2204370498657227,-0.13938474655151367,-0.736234188079834,2023-10-21T15:56:29.275119Z,1697903789275
1.3950996398925781,-0.20618069171905518,-0.8525638580322266,2023-10-21T15:56:29.296016Z,1697903789295
1.5678720474243164,-0.28001320362091064,-0.9687991142272949,2023-10-21T15:56:29.315542Z,1697903789315
1.7406034469604492,-0.35832691192626953,-1.0849132537841797,2023-10-21T15:56:29.335885Z,1697903789335
1.9167289733886719,-0.43869853019714355,-1.2016353607177734,2023-10-21T15:56:29.356122Z,1697903789356
2.099188804626465,-0.5183074474334717,-1.3196721076965332,2023-10-21T15:56:29.376417Z,1697903789376
2.2886734008789062,-0.5942227840423584,-1.438180923461914,2023-10-21T15:56:29.396691Z,1697903789396
2.484373092651367,-0.6637036800384521,-1.5545196533203125,2023-10-21T15:56:29.419511Z,1697903789419
2.684255599975586,-0.7243344783782959,-1.6641573905944824,2023-10-21T15:56:29.437181Z,1697903789437
2.886988639831543,-0.7750811576843262,-1.7625455856323242,2023-10-21T15:56:29.457478Z,1697903789457
3.091724395751953,-0.816570520401001,-1.8457341194152832,2023-10-21T15:56:29.477710Z,1697903789477
3.2989330291748047,-0.8509101867675781,-1.9116768836975098,2023-10-21T15:56:29.497917Z,1697903789497
3.5063257217407227,-0.8801865577697754,-1.9579033851623535,2023-10-21T15:56:29.519381Z,1697903789519
3.7083349227905273,-0.9057517051696777,-1.9818148612976074,2023-10-21T15:56:29.538495Z,1697903789538
3.8973007202148438,-0.9275002479553223,-1.9807672500610352,2023-10-21T15:56:29.558790Z,1697903789558
4.0663557052612305,-0.9447741508483887,-1.9527497291564941,2023-10-21T15:56:29.579048Z,1697903789578
4.214350700378418,-0.957251787185669,-1.8987176418304443,2023-10-21T15:56:29.599205Z,1697903789599
4.34348201751709,-0.9640276432037354,-1.8220360279083252,2023-10-21T15:56:29.619867Z,1697903789619
4.454954147338867,-0.9620567560195923,-1.726740837097168,2023-10-21T15:56:29.639860Z,1697903789639
4.542769432067871,-0.9442141056060791,-1.6138060092926025,2023-10-21T15:56:29.660082Z,1697903789660
4.592709541320801,-0.9008513689041138,-1.481518030166626,2023-10-21T15:56:29.680349Z,1697903789680
4.587057113647461,-0.8277652263641357,-1.3272120952606201,2023-10-21T15:56:29.703097Z,1697903789703
4.505821228027344,-0.7248244285583496,-1.1511988639831543,2023-10-21T15:56:29.720876Z,1697903789720
4.328248977661133,-0.5940357446670532,-0.9573023319244385,2023-10-21T15:56:29.741158Z,1697903789741
4.038558006286621,-0.43854498863220215,-0.7547388076782227,2023-10-21T15:56:29.761422Z,1697903789761
3.6449289321899414,-0.26775747537612915,-0.5577175617218018,2023-10-21T15:56:29.781637Z,1697903789781
3.1801557540893555,-0.10101485252380371,-0.3804614543914795,2023-10-21T15:56:29.802925Z,1697903789802
2.6740636825561523,0.04144936800003052,-0.23228240013122559,2023-10-21T15:56:29.822222Z,1697903789822
2.1395158767700195,0.14415717124938965,-0.11745297908782959,2023-10-21T15:56:29.842514Z,1697903789842
1.584580421447754,0.19548475742340088,-0.03784388303756714,2023-10-21T15:56:29.862664Z,1697903789862
1.0246248245239258,0.1873089075088501,0.005154319107532501,2023-10-21T15:56:29.886332Z,1697903789886
0.47545814514160156,0.1167612075805664,0.014460474252700806,2023-10-21T15:56:29.903219Z,1697903789903
-0.04816722869873047,-0.015014886856079102,-0.002445012331008911,2023-10-21T15:56:29.923534Z,1697903789923
-0.5336971282958984,-0.20381736755371094,-0.0347747802734375,2023-10-21T15:56:29.943831Z,1697903789943
-0.9514570236206055,-0.43222522735595703,-0.06985539197921753,2023-10-21T15:56:29.964005Z,1697903789963
-1.297410011291504,-0.6840870380401611,-0.09827709197998047,2023-10-21T15:56:29.985912Z,1697903789985
-1.5799574851989746,-0.9532632827758789,-0.11521536111831665,2023-10-21T15:56:30.004595Z,1697903790004
-1.7944188117980957,-1.2337708473205566,-0.11877578496932983,2023-10-21T15:56:30.024867Z,1697903790024
-1.9261655807495117,-1.5097894668579102,-0.10765212774276733,2023-10-21T15:56:30.045103Z,1697903790045
-1.9695086479187012,-1.7548494338989258,-0.08117245137691498,2023-10-21T15:56:30.065337Z,1697903790065
-1.9345264434814453,-1.9452366828918457,-0.042770273983478546,2023-10-21T15:56:30.086126Z,1697903790086
-1.835451602935791,-2.0628037452697754,0.0023822118528187275,2023-10-21T15:56:30.105878Z,1697903790105
-1.687406063079834,-2.09189510345459,0.046455249190330505,2023-10-21T15:56:30.126188Z,1697903790126
-1.5130577087402344,-2.0280094146728516,0.08379949629306793,2023-10-21T15:56:30.146413Z,1697903790146
-1.3382830619812012,-1.8969426155090332,0.11329185962677002,2023-10-21T15:56:30.169180Z,1697903790169
-1.182657241821289,-1.7275137901306152,0.13667607307434082,2023-10-21T15:56:30.186923Z,1697903790186
-1.0469169616699219,-1.5335922241210938,0.15636759996414185,2023-10-21T15:56:30.207226Z,1697903790207
-0.9211616516113281,-1.3168864250183105,0.171303391456604,2023-10-21T15:56:30.227454Z,1697903790227
-0.7933855056762695,-1.0762147903442383,0.17612898349761963,2023-10-21T15:56:30.247746Z,1697903790247
-0.6546893119812012,-0.8198866844177246,0.1653609275817871,2023-10-21T15:56:30.268993Z,1697903790268
-0.5024151802062988,-0.5677309036254883,0.13777625560760498,2023-10-21T15:56:30.288332Z,1697903790288
-0.33309364318847656,-0.33475208282470703,0.0957491397857666,2023-10-21T15:56:30.308598Z,1697903790308
-0.14201021194458008,-0.12604379653930664,0.04175090789794922,2023-10-21T15:56:30.328825Z,1697903790328
0.07753658294677734,0.06054878234863281,-0.02286529541015625,2023-10-21T15:56:30.348982Z,1697903790348
0.32961463928222656,0.22610712051391602,-0.0957794189453125,2023-10-21T15:56:30.369300Z,1697903790369
0.6070356369018555,0.36676502227783203,-0.1702268123626709,2023-10-21T15:56:30.389620Z,1697903790389
0.8972034454345703,0.4807443618774414,-0.23717832565307617,2023-10-21T15:56:30.409877Z,1697903790409
1.1895647048950195,0.571897029876709,-0.28914761543273926,2023-10-21T15:56:30.430082Z,1697903790430
1.4769878387451172,0.6479852199554443,-0.3227229118347168,2023-10-21T15:56:30.452381Z,1697903790452
1.7354488372802734,0.7142479419708252,-0.3356153964996338,2023-10-21T15:56:30.470605Z,1697903790470
1.9582672119140625,0.7820072174072266,-0.33155906200408936,2023-10-21T15:56:30.490902Z,1697903790490
2.156460762023926,0.8614177703857422,-0.31685662269592285,2023-10-21T15:56:30.511146Z,1697903790511
2.3375606536865234,0.9547853469848633,-0.29731833934783936,2023-10-21T15:56:30.531374Z,1697903790531
2.4989547729492188,1.0588603019714355,-0.27607953548431396,2023-10-21T15:56:30.552158Z,1697903790552
2.63173770904541,1.1691575050354004,-0.254453182220459,2023-10-21T15:56:30.571957Z,1697903790571
2.7297849655151367,1.280745029449463,-0.23464840650558472,2023-10-21T15:56:30.592269Z,1697903790592
2.7829132080078125,1.383021354675293,-0.2175004482269287,2023-10-21T15:56:30.612459Z,1697903790612
2.7723169326782227,1.4591588973999023,-0.20330798625946045,2023-10-21T15:56:30.635553Z,1697903790635
2.680692672729492,1.492800235748291,-0.19007080793380737,2023-10-21T15:56:30.652986Z,1697903790652
2.5195016860961914,1.4789142608642578,-0.17600858211517334,2023-10-21T15:56:30.673326Z,1697903790673
2.3023834228515625,1.418083667755127,-0.160086989402771,2023-10-21T15:56:30.693541Z,1697903790693
2.043032646179199,1.3140215873718262,-0.1415722370147705,2023-10-21T15:56:30.713772Z,1697903790713
1.758157730102539,1.1757307052612305,-0.12015819549560547,2023-10-21T15:56:30.735324Z,1697903790735
1.4645109176635742,1.015697956085205,-0.09773808717727661,2023-10-21T15:56:30.754336Z,1697903790754
1.1837224960327148,0.8501458168029785,-0.0770033597946167,2023-10-21T15:56:30.774620Z,1697903790774
0.9370250701904297,0.6962575912475586,-0.060381174087524414,2023-10-21T15:56:30.794883Z,1697903790794
0.7406835556030273,0.5691866874694824,-0.04870671033859253,2023-10-21T15:56:30.815052Z,1697903790815
0.6047267913818359,0.4802412986755371,-0.041889190673828125,2023-10-21T15:56:30.835375Z,1697903790835
0.5306005477905273,0.4349989891052246,-0.03978699445724487,2023-10-21T15:56:30.855726Z,1697903790855
0.5136876106262207,0.43404483795166016,-0.04259133338928223,2023-10-21T15:56:30.875946Z,1697903790875
0.5462970733642578,0.4743494987487793,-0.0506972074508667,2023-10-21T15:56:30.896176Z,1697903790896
0.6170797348022461,0.5479249954223633,-0.06424874067306519,2023-10-21T15:56:30.918474Z,1697903790918
0.7102823257446289,0.6405682563781738,-0.08257746696472168,2023-10-21T15:56:30.936741Z,1697903790936
0.808833122253418,0.7343277931213379,-0.10399699211120605,2023-10-21T15:56:30.956997Z,1697903790956
0.8954601287841797,0.8100833892822266,-0.12597215175628662,2023-10-21T15:56:30.977238Z,1697903790977
0.9574737548828125,0.8537807464599609,-0.14586198329925537,2023-10-21T15:56:30.997475Z,1697903790997
0.9868974685668945,0.857886791229248,-0.1612699031829834,2023-10-21T15:56:31.018447Z,1697903791018
0.9825515747070312,0.8236603736877441,-0.17061305046081543,2023-10-21T15:56:31.038014Z,1697903791037
0.9478654861450195,0.7582740783691406,-0.17337894439697266,2023-10-21T15:56:31.058298Z,1697903791058
0.8873977661132812,0.6711506843566895,-0.16977691650390625,2023-10-21T15:56:31.078519Z,1697903791078
0.8083686828613281,0.573516845703125,-0.16090655326843262,2023-10-21T15:56:31.101764Z,1697903791101
0.7188425064086914,0.47570371627807617,-0.14832711219787598,2023-10-21T15:56:31.119061Z,1697903791119
0.6296987533569336,0.3873329162597656,-0.13428020477294922,2023-10-21T15:56:31.139352Z,1697903791139
0.5528888702392578,0.31572771072387695,-0.121437668800354,2023-10-21T15:56:31.159616Z,1697903791159
0.4970226287841797,0.26379919052124023,-0.1120295524597168,2023-10-21T15:56:31.179831Z,1697903791179
0.46350574493408203,0.22936201095581055,-0.10676002502441406,2023-10-21T15:56:31.201765Z,1697903791201
0.44873809814453125,0.20788860321044922,-0.10513758659362793,2023-10-21T15:56:31.220396Z,1697903791220
0.4474296569824219,0.19471979141235352,-0.10616374015808105,2023-10-21T15:56:31.240690Z,1697903791240
0.4538869857788086,0.18586349487304688,-0.10858345031738281,2023-10-21T15:56:31.260918Z,1697903791260
0.4622964859008789,0.1780235767364502,-0.11104202270507812,2023-10-21T15:56:31.281102Z,1697903791281
0.4658336639404297,0.16823124885559082,-0.11186099052429199,2023-10-21T15:56:31.301569Z,1697903791301
0.45813941955566406,0.1544189453125,-0.10937738418579102,2023-10-21T15:56:31.321706Z,1697903791321
0.4329700469970703,0.1352705955505371,-0.10202264785766602,2023-10-21T15:56:31.341971Z,1697903791341
0.3858366012573242,0.11071443557739258,-0.08895206451416016,2023-10-21T15:56:31.362219Z,1697903791362
0.31840038299560547,0.0829153060913086,-0.07114458084106445,2023-10-21T15:56:31.385020Z,1697903791384
0.24106121063232422,0.056081295013427734,-0.05177044868469238,2023-10-21T15:56:31.402725Z,1697903791402
0.1679067611694336,0.034238576889038086,-0.03444790840148926,2023-10-21T15:56:31.423050Z,1697903791423
0.11125659942626953,0.019455909729003906,-0.021728157997131348,2023-10-21T15:56:31.443306Z,1697903791443
0.07940196990966797,0.011621475219726562,-0.01473844051361084,2023-10-21T15:56:31.463813Z,1697903791463
0.08009719848632812,0.009525299072265625,-0.014129996299743652,2023-10-21T15:56:31.484768Z,1697903791484
0.1207284927368164,0.011211752891540527,-0.02028477191925049,2023-10-21T15:56:31.504078Z,1697903791504
0.20801544189453125,0.014218449592590332,-0.03350472450256348,2023-10-21T15:56:31.524382Z,1697903791524
0.34607791900634766,0.01575574278831482,-0.05402874946594238,2023-10-21T15:56:31.544569Z,1697903791544
0.5327930450439453,0.013122528791427612,-0.08170175552368164,2023-10-21T15:56:31.564781Z,1697903791564
0.7610311508178711,0.0044471584260463715,-0.11607027053833008,2023-10-21T15:56:31.585130Z,1697903791585
1.0182743072509766,-0.01090606302022934,-0.15578210353851318,2023-10-21T15:56:31.605398Z,1697903791605
1.291818618774414,-0.032527655363082886,-0.1989039182662964,2023-10-21T15:56:31.625672Z,1697903791625
1.5673656463623047,-0.05942273139953613,-0.24267590045928955,2023-10-21T15:56:31.645885Z,1697903791645
1.8314847946166992,-0.09020593762397766,-0.2846052646636963,2023-10-21T15:56:31.668106Z,1697903791668
2.072737693786621,-0.12276458740234375,-0.3229027986526489,2023-10-21T15:56:31.686390Z,1697903791686
2.2855634689331055,-0.15451085567474365,-0.3571946620941162,2023-10-21T15:56:31.706650Z,1697903791706
2.4687862396240234,-0.18273824453353882,-0.38781142234802246,2023-10-21T15:56:31.726966Z,1697903791726
2.622378349304199,-0.20505160093307495,-0.41495609283447266,2023-10-21T15:56:31.747190Z,1697903791747
2.7479982376098633,-0.21952933073043823,-0.4389859437942505,2023-10-21T15:56:31.767890Z,1697903791767
2.8453245162963867,-0.2246437668800354,-0.4595043659210205,2023-10-21T15:56:31.787771Z,1697903791787
2.912163734436035,-0.21911102533340454,-0.47557520866394043,2023-10-21T15:56:31.808068Z,1697903791808
2.947439193725586,-0.20156586170196533,-0.4868931770324707,2023-10-21T15:56:31.828263Z,1697903791828
2.9592103958129883,-0.1694687008857727,-0.49598121643066406,2023-10-21T15:56:31.851174Z,1697903791851
2.963027000427246,-0.12010031938552856,-0.5070524215698242,2023-10-21T15:56:31.868777Z,1697903791868
2.976797103881836,-0.05128780007362366,-0.524991512298584,2023-10-21T15:56:31.889094Z,1697903791889
3.014026641845703,0.03769376873970032,-0.5529539585113525,2023-10-21T15:56:31.909365Z,1697903791909
3.0898218154907227,0.14603006839752197,-0.5934405326843262,2023-10-21T15:56:31.929568Z,1697903791929
3.222592353820801,0.27397865056991577,-0.6501908302307129,2023-10-21T15:56:31.951098Z,1697903791951
3.4294424057006836,0.42159879207611084,-0.7281076908111572,2023-10-21T15:56:31.970106Z,1697903791970
3.7190961837768555,0.58708655834198,-0.8322620391845703,2023-10-21T15:56:31.990440Z,1697903791990
4.074283599853516,0.7636529207229614,-0.959688663482666,2023-10-21T15:56:32.010730Z,1697903792010
4.462087631225586,0.9426465034484863,-1.1077823638916016,2023-10-21T15:56:32.030833Z,1697903792030
4.8564558029174805,1.120082139968872,-1.2765576839447021,2023-10-21T15:56:32.051144Z,1697903792051
5.244391441345215,1.2914893627166748,-1.4696407318115234,2023-10-21T15:56:32.071458Z,1697903792071
5.629469871520996,1.4503731727600098,-1.683922529220581,2023-10-21T15:56:32.091816Z,1697903792091
6.015280723571777,1.5849101543426514,-1.9058420658111572,2023-10-21T15:56:32.112Z,1697903792111
6.386063575744629,1.6898736953735352,-2.1207759380340576,2023-10-21T15:56:32.134351Z,1697903792134
6.722897529602051,1.7714414596557617,-2.3225560188293457,2023-10-21T15:56:32.152517Z,1697903792152
7.002654075622559,1.8409171104431152,-2.503661632537842,2023-10-21T15:56:32.172771Z,1697903792172
7.21851921081543,1.9114859104156494,-2.6548073291778564,2023-10-21T15:56:32.193070Z,1697903792193
7.385845184326172,1.9946980476379395,-2.7762227058410645,2023-10-21T15:56:32.213263Z,1697903792213
7.525644302368164,2.0929269790649414,-2.864137649536133,2023-10-21T15:56:32.234269Z,1697903792234
7.642902374267578,2.1920461654663086,-2.9113996028900146,2023-10-21T15:56:32.253813Z,1697903792253
7.728160858154297,2.276996612548828,-2.906214952468872,2023-10-21T15:56:32.274081Z,1697903792274
7.768230438232422,2.3396124839782715,-2.8497555255889893,2023-10-21T15:56:32.294357Z,1697903792294
7.758358001708984,2.3832550048828125,-2.759453296661377,2023-10-21T15:56:32.317911Z,1697903792317
7.708711624145508,2.407346248626709,-2.6520066261291504,2023-10-21T15:56:32.334836Z,1697903792334
7.62327766418457,2.399174690246582,-2.5292348861694336,2023-10-21T15:56:32.355118Z,1697903792355
7.503717422485352,2.3467888832092285,-2.3909857273101807,2023-10-21T15:56:32.375395Z,1697903792375
7.337041854858398,2.243755340576172,-2.2374846935272217,2023-10-21T15:56:32.395667Z,1697903792395
7.109943389892578,2.0931758880615234,-2.0712058544158936,2023-10-21T15:56:32.417501Z,1697903792417
6.812427520751953,1.9055509567260742,-1.8949291706085205,2023-10-21T15:56:32.436171Z,1697903792436
6.435790061950684,1.6945867538452148,-1.7070395946502686,2023-10-21T15:56:32.456458Z,1697903792456
5.974593162536621,1.4774131774902344,-1.506232738494873,2023-10-21T15:56:32.476679Z,1697903792476
5.427604675292969,1.2741620540618896,-1.2936012744903564,2023-10-21T15:56:32.496888Z,1697903792496
4.818625450134277,1.104583978652954,-1.0805363655090332,2023-10-21T15:56:32.517269Z,1697903792517
4.185561180114746,0.9762506484985352,-0.8740284442901611,2023-10-21T15:56:32.537479Z,1697903792537
3.5531158447265625,0.8803369998931885,-0.6767044067382812,2023-10-21T15:56:32.557791Z,1697903792557
2.932819366455078,0.802201509475708,-0.4898655414581299,2023-10-21T15:56:32.578051Z,1697903792577
2.32938289642334,0.7271640300750732,-0.3228576183319092,2023-10-21T15:56:32.600677Z,1697903792600
1.7652273178100586,0.6472001075744629,-0.18992722034454346,2023-10-21T15:56:32.618552Z,1697903792618
1.2855501174926758,0.5621936321258545,-0.09770172834396362,2023-10-21T15:56:32.638876Z,1697903792638
0.9271211624145508,0.4833645820617676,-0.04128506779670715,2023-10-21T15:56:32.659076Z,1697903792659
0.7024879455566406,0.4304828643798828,-0.010101720690727234,2023-10-21T15:56:32.679309Z,1697903792679
0.5785694122314453,0.40741729736328125,0.007129460573196411,2023-10-21T15:56:32.700576Z,1697903792700
0.4951791763305664,0.39091920852661133,0.01751801371574402,2023-10-21T15:56:32.719984Z,1697903792719
0.4041919708251953,0.3502354621887207,0.021632283926010132,2023-10-21T15:56:32.740195Z,1697903792740
0.29657745361328125,0.27785301208496094,0.01920473575592041,2023-10-21T15:56:32.760401Z,1697903792760
0.1833200454711914,0.18354272842407227,0.011979222297668457,2023-10-21T15:56:32.780613Z,1697903792780
0.07917451858520508,0.0836634635925293,0.00430259108543396,2023-10-21T15:56:32.800900Z,1697903792800
-0.013480663299560547,-0.01479482650756836,-4.7491490840911865E-4,2023-10-21T15:56:32.821262Z,1697903792821
-0.09462118148803711,-0.10620689392089844,-0.0010221302509307861,2023-10-21T15:56:32.841511Z,1697903792841
-0.15668296813964844,-0.1777486801147461,0.0029558539390563965,2023-10-21T15:56:32.861713Z,1697903792861
-0.19106769561767578,-0.21729373931884766,0.010350942611694336,2023-10-21T15:56:32.883822Z,1697903792883
-0.18691062927246094,-0.21143293380737305,0.017499029636383057,2023-10-21T15:56:32.902239Z,1697903792902
-0.13653850555419922,-0.15246105194091797,0.01839447021484375,2023-10-21T15:56:32.922551Z,1697903792922
-0.03934144973754883,-0.043116092681884766,0.006887555122375488,2023-10-21T15:56:32.942772Z,1697903792942
0.09756994247436523,0.104644775390625,-0.020864367485046387,2023-10-21T15:56:32.962998Z,1697903792962
0.26132822036743164,0.27404069900512695,-0.06545758247375488,2023-10-21T15:56:32.983658Z,1697903792983
0.43459367752075195,0.4449448585510254,-0.12324762344360352,2023-10-21T15:56:33.003570Z,1697903793003
0.5951437950134277,0.5929241180419922,-0.18550896644592285,2023-10-21T15:56:33.023893Z,1697903793023
0.7227168083190918,0.6974821090698242,-0.24133586883544922,2023-10-21T15:56:33.044100Z,1697903793044
0.8049955368041992,0.7481622695922852,-0.2816939353942871,2023-10-21T15:56:33.067042Z,1697903793067
0.837956428527832,0.7454710006713867,-0.30179882049560547,2023-10-21T15:56:33.084627Z,1697903793084
0.8221840858459473,0.6958041191101074,-0.3003056049346924,2023-10-21T15:56:33.104931Z,1697903793104
0.7577958106994629,0.6062421798706055,-0.2774972915649414,2023-10-21T15:56:33.125175Z,1697903793125
0.6501979827880859,0.48869943618774414,-0.23683977127075195,2023-10-21T15:56:33.145401Z,1697903793145
0.5109386444091797,0.3584585189819336,-0.1841897964477539,2023-10-21T15:56:33.167069Z,1697903793167
0.35685014724731445,0.23215579986572266,-0.12701964378356934,2023-10-21T15:56:33.185963Z,1697903793185
0.21271419525146484,0.12770414352416992,-0.07489323616027832,2023-10-21T15:56:33.206252Z,1697903793206
0.10737800598144531,0.059442996978759766,-0.03763389587402344,2023-10-21T15:56:33.226478Z,1697903793226
0.05906391143798828,0.030270099639892578,-0.020801305770874023,2023-10-21T15:56:33.246658Z,1697903793246
0.07048320770263672,0.03372812271118164,-0.02519822120666504,2023-10-21T15:56:33.266979Z,1697903793266
0.13136863708496094,0.05927467346191406,-0.048033714294433594,2023-10-21T15:56:33.287308Z,1697903793287
0.22679424285888672,0.09737396240234375,-0.0852193832397461,2023-10-21T15:56:33.307520Z,1697903793307
0.3459310531616211,0.1423494815826416,-0.13380002975463867,2023-10-21T15:56:33.327760Z,1697903793327
0.4757404327392578,0.18840432167053223,-0.18915748596191406,2023-10-21T15:56:33.350237Z,1697903793350
0.6007471084594727,0.22934412956237793,-0.2447969913482666,2023-10-21T15:56:33.368307Z,1697903793368
0.7050333023071289,0.2593703269958496,-0.29325389862060547,2023-10-21T15:56:33.388588Z,1697903793388
0.7751636505126953,0.2742455005645752,-0.32781386375427246,2023-10-21T15:56:33.408874Z,1697903793408
0.8032464981079102,0.27216267585754395,-0.3441660404205322,2023-10-21T15:56:33.429088Z,1697903793429
0.7900838851928711,0.2547447681427002,-0.3420560359954834,2023-10-21T15:56:33.449941Z,1697903793449
0.7429742813110352,0.2261033058166504,-0.32446718215942383,2023-10-21T15:56:33.469629Z,1697903793469
0.672337532043457,0.19147753715515137,-0.296083927154541,2023-10-21T15:56:33.489936Z,1697903793489
0.5869035720825195,0.15529537200927734,-0.2610666751861572,2023-10-21T15:56:33.510157Z,1697903793510
0.4936532974243164,0.12074637413024902,-0.22263669967651367,2023-10-21T15:56:33.533398Z,1697903793533
0.4006080627441406,0.0901937484741211,-0.18414592742919922,2023-10-21T15:56:33.550677Z,1697903793550
0.31790924072265625,0.06562983989715576,-0.14978837966918945,2023-10-21T15:56:33.570978Z,1697903793570
0.25838565826416016,0.04871249198913574,-0.1254129409790039,2023-10-21T15:56:33.591232Z,1697903793591
0.23157596588134766,0.03974020481109619,-0.1161961555480957,2023-10-21T15:56:33.611443Z,1697903793611
0.2396068572998047,0.037413597106933594,-0.12446784973144531,2023-10-21T15:56:33.633411Z,1697903793633
0.27777099609375,0.039536237716674805,-0.14922714233398438,2023-10-21T15:56:33.652011Z,1697903793651
0.33733654022216797,0.04387187957763672,-0.18683719635009766,2023-10-21T15:56:33.672320Z,1697903793672
0.4094524383544922,0.04870760440826416,-0.23271846771240234,2023-10-21T15:56:33.692515Z,1697903793692
0.48863983154296875,0.05306529998779297,-0.28330421447753906,2023-10-21T15:56:33.712727Z,1697903793712
0.5707883834838867,0.05631101131439209,-0.33524084091186523,2023-10-21T15:56:33.733229Z,1697903793733
0.653594970703125,0.05841916799545288,-0.38605451583862305,2023-10-21T15:56:33.753315Z,1697903793753
0.7359428405761719,0.05974942445755005,-0.4342212677001953,2023-10-21T15:56:33.773604Z,1697903793773
0.8150806427001953,0.06088465452194214,-0.47777795791625977,2023-10-21T15:56:33.793838Z,1697903793793
0.8882179260253906,0.06244373321533203,-0.5150494575500488,2023-10-21T15:56:33.816681Z,1697903793816
0.9541187286376953,0.06488293409347534,-0.5455002784729004,2023-10-21T15:56:33.834483Z,1697903793834
1.011850357055664,0.0684613585472107,-0.5689921379089355,2023-10-21T15:56:33.854798Z,1697903793854
1.0611495971679688,0.0732237696647644,-0.5857868194580078,2023-10-21T15:56:33.874897Z,1697903793874
1.1017789840698242,0.07890188694000244,-0.5960683822631836,2023-10-21T15:56:33.895095Z,1697903793895
1.133413314819336,0.0851062536239624,-0.5998687744140625,2023-10-21T15:56:33.916603Z,1697903793916
1.1570396423339844,0.0914069414138794,-0.5977606773376465,2023-10-21T15:56:33.935790Z,1697903793935
1.173405647277832,0.0973893404006958,-0.5901403427124023,2023-10-21T15:56:33.956009Z,1697903793955
1.1821374893188477,0.10259860754013062,-0.5767993927001953,2023-10-21T15:56:33.976238Z,1697903793976
1.1828861236572266,0.10660380125045776,-0.5576972961425781,2023-10-21T15:56:33.996369Z,1697903793996
1.1758337020874023,0.10910022258758545,-0.5332164764404297,2023-10-21T15:56:34.016746Z,1697903794016
1.1611700057983398,0.10999822616577148,-0.5039873123168945,2023-10-21T15:56:34.037056Z,1697903794037
1.1386327743530273,0.10946017503738403,-0.47067880630493164,2023-10-21T15:56:34.057307Z,1697903794057
1.106715202331543,0.10775697231292725,-0.43365931510925293,2023-10-21T15:56:34.077517Z,1697903794077
1.0625782012939453,0.10501986742019653,-0.39284682273864746,2023-10-21T15:56:34.099552Z,1697903794099
1.0029335021972656,0.10109245777130127,-0.34815287590026855,2023-10-21T15:56:34.118063Z,1697903794118
0.9252719879150391,0.09565967321395874,-0.3000767230987549,2023-10-21T15:56:34.138343Z,1697903794138
0.8275794982910156,0.08840548992156982,-0.24953413009643555,2023-10-21T15:56:34.158591Z,1697903794158
0.7069921493530273,0.0789099931716919,-0.19724178314208984,2023-10-21T15:56:34.178826Z,1697903794178
0.5604438781738281,0.06637156009674072,-0.14383363723754883,2023-10-21T15:56:34.199706Z,1697903794199
0.38811397552490234,0.04967701435089111,-0.0908350944519043,2023-10-21T15:56:34.219356Z,1697903794219
0.19625473022460938,0.0277479887008667,-0.04136013984680176,2023-10-21T15:56:34.239686Z,1697903794239
-0.005015373229980469,-8.013248443603516E-4,9.349584579467773E-4,2023-10-21T15:56:34.259938Z,1697903794259
-0.20633697509765625,-0.03820204734802246,0.03340017795562744,2023-10-21T15:56:34.282885Z,1697903794282
-0.39741039276123047,-0.08655619621276855,0.05437672138214111,2023-10-21T15:56:34.300429Z,1697903794300
-0.5609712600708008,-0.1450197696685791,0.06280648708343506,2023-10-21T15:56:34.320721Z,1697903794320
-0.6735219955444336,-0.2074751853942871,0.05920243263244629,2023-10-21T15:56:34.341006Z,1697903794340
-0.7113971710205078,-0.2614154815673828,0.04667651653289795,2023-10-21T15:56:34.361207Z,1697903794361
-0.6555471420288086,-0.2863435745239258,0.03012719750404358,2023-10-21T15:56:34.382757Z,1697903794382
-0.4906158447265625,-0.25244855880737305,0.01431041955947876,2023-10-21T15:56:34.401770Z,1697903794401
-0.2244882583618164,-0.13437700271606445,0.003387138247489929,2023-10-21T15:56:34.422056Z,1697903794422
0.1049041748046875,0.07231330871582031,-4.6125054359436035E-4,2023-10-21T15:56:34.442361Z,1697903794442
0.46982574462890625,0.36982154846191406,0.001186976209282875,2023-10-21T15:56:34.462526Z,1697903794462
0.8426351547241211,0.7527284622192383,0.004414301365613937,2023-10-21T15:56:34.482804Z,1697903794482
1.2216377258300781,1.2264270782470703,0.005444973707199097,2023-10-21T15:56:34.503124Z,1697903794503
1.5922718048095703,1.7784981727600098,0.0019139861688017845,2023-10-21T15:56:34.523399Z,1697903794523
1.9319090843200684,2.3819780349731445,-0.007286863401532173,2023-10-21T15:56:34.543565Z,1697903794543
2.2250332832336426,3.009817600250244,-0.021400578320026398,2023-10-21T15:56:34.565937Z,1697903794565
2.4644088745117188,3.6372737884521484,-0.03842625021934509,2023-10-21T15:56:34.584141Z,1697903794584
2.644252300262451,4.240578651428223,-0.05782890319824219,2023-10-21T15:56:34.604421Z,1697903794604
2.7669177055358887,4.806395530700684,-0.0816115140914917,2023-10-21T15:56:34.624682Z,1697903794624
2.849130630493164,5.328095436096191,-0.10943782329559326,2023-10-21T15:56:34.644894Z,1697903794644
2.9013280868530273,5.792806625366211,-0.13937592506408691,2023-10-21T15:56:34.665946Z,1697903794665
2.9383177757263184,6.190645217895508,-0.16762158274650574,2023-10-21T15:56:34.685446Z,1697903794685
2.9542579650878906,6.511070251464844,-0.1934792399406433,2023-10-21T15:56:34.705737Z,1697903794705
2.9502336978912354,6.7528533935546875,-0.21810543537139893,2023-10-21T15:56:34.725933Z,1697903794725
2.931515693664551,6.915240287780762,-0.2414240837097168,2023-10-21T15:56:34.749272Z,1697903794749
2.899174451828003,6.98991584777832,-0.2615455985069275,2023-10-21T15:56:34.766498Z,1697903794766
2.8525354862213135,6.973779678344727,-0.27626603841781616,2023-10-21T15:56:34.786816Z,1697903794786
2.7903876304626465,6.868696212768555,-0.28365129232406616,2023-10-21T15:56:34.807084Z,1697903794807
2.710575819015503,6.679354667663574,-0.2818567752838135,2023-10-21T15:56:34.827290Z,1697903794827
2.6083717346191406,6.4064741134643555,-0.268776535987854,2023-10-21T15:56:34.849133Z,1697903794849
2.477252244949341,6.045194625854492,-0.24192357063293457,2023-10-21T15:56:34.867878Z,1697903794867
2.311384677886963,5.594843864440918,-0.20080816745758057,2023-10-21T15:56:34.888155Z,1697903794888
2.103018283843994,5.055826187133789,-0.14857932925224304,2023-10-21T15:56:34.908380Z,1697903794908
1.8536407947540283,4.436820983886719,-0.09081944823265076,2023-10-21T15:56:34.928554Z,1697903794928
1.5791239738464355,3.7550296783447266,-0.03125608712434769,2023-10-21T15:56:34.949048Z,1697903794949
1.2877628803253174,3.026754379272461,0.02435275912284851,2023-10-21T15:56:34.969188Z,1697903794969
0.9872188568115234,2.27303409576416,0.06784063577651978,2023-10-21T15:56:34.989421Z,1697903794989
0.6718950271606445,1.5087556838989258,0.08682656288146973,2023-10-21T15:56:35.009658Z,1697903795009
0.34569644927978516,0.7537155151367188,0.06887459754943848,2023-10-21T15:56:35.032375Z,1697903795032
0.017580509185791016,0.03689384460449219,0.0048618316650390625,2023-10-21T15:56:35.050177Z,1697903795050
-0.30648279190063477,-0.6116218566894531,-0.10941767692565918,2023-10-21T15:56:35.070512Z,1697903795070
-0.6216678619384766,-1.1645636558532715,-0.2706642150878906,2023-10-21T15:56:35.090737Z,1697903795090
-0.9206953048706055,-1.5959925651550293,-0.465877890586853,2023-10-21T15:56:35.110988Z,1697903795110
-1.1964480876922607,-1.8934326171875,-0.6759974956512451,2023-10-21T15:56:35.132209Z,1697903795132
-1.4385185241699219,-2.0702199935913086,-0.8798589706420898,2023-10-21T15:56:35.151551Z,1697903795151
-1.6347668170928955,-2.1480565071105957,-1.0547490119934082,2023-10-21T15:56:35.171856Z,1697903795171
-1.7805581092834473,-2.1633639335632324,-1.1873269081115723,2023-10-21T15:56:35.192072Z,1697903795192
-1.8777704238891602,-2.125833511352539,-1.2649319171905518,2023-10-21T15:56:35.212279Z,1697903795212
-1.9308204650878906,-2.047682762145996,-1.2874398231506348,2023-10-21T15:56:35.232588Z,1697903795232
-1.9445443153381348,-1.9435081481933594,-1.262537956237793,2023-10-21T15:56:35.252866Z,1697903795252
-1.92047119140625,-1.8213958740234375,-1.1973772048950195,2023-10-21T15:56:35.273106Z,1697903795273
-1.8595147132873535,-1.6817574501037598,-1.0985653400421143,2023-10-21T15:56:35.293329Z,1697903795293
-1.7607755661010742,-1.5217056274414062,-0.9727792739868164,2023-10-21T15:56:35.315437Z,1697903795315
-1.622586727142334,-1.3408002853393555,-0.8281261920928955,2023-10-21T15:56:35.333962Z,1697903795333
-1.4454150199890137,-1.1425132751464844,-0.6742644309997559,2023-10-21T15:56:35.354200Z,1697903795354
-1.2318534851074219,-0.932253360748291,-0.5201785564422607,2023-10-21T15:56:35.374435Z,1697903795374
-0.9883632659912109,-0.7175555229187012,-0.37450528144836426,2023-10-21T15:56:35.394624Z,1697903795394
-0.7237129211425781,-0.505739688873291,-0.24390220642089844,2023-10-21T15:56:35.415375Z,1697903795415
-0.4488382339477539,-0.3031625747680664,-0.13312840461730957,2023-10-21T15:56:35.435233Z,1697903795435
-0.17384576797485352,-0.11392831802368164,-0.04470944404602051,2023-10-21T15:56:35.455508Z,1697903795455
0.0926055908203125,0.05905485153198242,0.020208239555358887,2023-10-21T15:56:35.475745Z,1697903795475
0.3431720733642578,0.21340084075927734,0.061583757400512695,2023-10-21T15:56:35.498926Z,1697903795498
0.5712594985961914,0.34702110290527344,0.0805654525756836,2023-10-21T15:56:35.516267Z,1697903795516
0.7739200592041016,0.4597158432006836,0.07980531454086304,2023-10-21T15:56:35.536582Z,1697903795536
0.9526948928833008,0.5532889366149902,0.06261593103408813,2023-10-21T15:56:35.556810Z,1697903795556
1.1106853485107422,0.6298441886901855,0.03188389539718628,2023-10-21T15:56:35.577Z,1697903795576
1.2513885498046875,0.6916699409484863,-0.010121956467628479,2023-10-21T15:56:35.598632Z,1697903795598
1.378605842590332,0.7409567832946777,-0.06144064664840698,2023-10-21T15:56:35.617596Z,1697903795617
1.497140884399414,0.7800135612487793,-0.12028747797012329,2023-10-21T15:56:35.637888Z,1697903795637
1.6080331802368164,0.8092041015625,-0.1846855878829956,2023-10-21T15:56:35.658062Z,1697903795658
1.7087583541870117,0.8277440071105957,-0.25216996669769287,2023-10-21T15:56:35.678282Z,1697903795678
1.7944631576538086,0.8341636657714844,-0.3201862573623657,2023-10-21T15:56:35.698626Z,1697903795698
1.8624601364135742,0.8282909393310547,-0.38750386238098145,2023-10-21T15:56:35.718914Z,1697903795718
1.9113121032714844,0.8112444877624512,-0.4542505741119385,2023-10-21T15:56:35.739141Z,1697903795739
1.9381790161132812,0.7839303016662598,-0.5201816558837891,2023-10-21T15:56:35.759398Z,1697903795759
1.940378189086914,0.7475149631500244,-0.5838587284088135,2023-10-21T15:56:35.781866Z,1697903795781
1.9158134460449219,0.7026975154876709,-0.642519474029541,2023-10-21T15:56:35.799978Z,1697903795799
1.8617229461669922,0.6498043537139893,-0.6924335956573486,2023-10-21T15:56:35.820249Z,1697903795820
1.777078628540039,0.5896022319793701,-0.7300617694854736,2023-10-21T15:56:35.840451Z,1697903795840
1.6657381057739258,0.5240797996520996,-0.7534096240997314,2023-10-21T15:56:35.860724Z,1697903795860
1.537332534790039,0.4563868045806885,-0.7631254196166992,2023-10-21T15:56:35.882039Z,1697903795882
1.404078483581543,0.39024853706359863,-0.7619800567626953,2023-10-21T15:56:35.901303Z,1697903795901
1.2746829986572266,0.32818150520324707,-0.752197265625,2023-10-21T15:56:35.921623Z,1697903795921
1.1522836685180664,0.27095866203308105,-0.7340021133422852,2023-10-21T15:56:35.941828Z,1697903795941
1.037468433380127,0.2185375690460205,-0.7071056365966797,2023-10-21T15:56:35.965144Z,1697903795965
0.9317388534545898,0.17098772525787354,-0.6727819442749023,2023-10-21T15:56:35.982345Z,1697903795982
0.8384323120117188,0.1286628246307373,-0.6346645355224609,2023-10-21T15:56:36.002602Z,1697903796002
0.7609043121337891,0.09169352054595947,-0.5973672866821289,2023-10-21T15:56:36.022818Z,1697903796022
0.6986198425292969,0.05962461233139038,-0.5630483627319336,2023-10-21T15:56:36.043060Z,1697903796043
0.6482434272766113,0.03165733814239502,-0.5312991142272949,2023-10-21T15:56:36.064948Z,1697903796064
0.6055774688720703,0.007122538983821869,-0.5001926422119141,2023-10-21T15:56:36.083677Z,1697903796083
0.5671796798706055,-0.014511242508888245,-0.4678468704223633,2023-10-21T15:56:36.103977Z,1697903796103
0.5289139747619629,-0.03338015079498291,-0.43192481994628906,2023-10-21T15:56:36.124169Z,1697903796124
0.48541927337646484,-0.04889941215515137,-0.38942670822143555,2023-10-21T15:56:36.144352Z,1697903796144
0.4338221549987793,-0.0600130558013916,-0.33962154388427734,2023-10-21T15:56:36.164849Z,1697903796164
0.37458038330078125,-0.06576406955718994,-0.2844529151916504,2023-10-21T15:56:36.184979Z,1697903796184
0.3083200454711914,-0.06524920463562012,-0.22589826583862305,2023-10-21T15:56:36.205257Z,1697903796205
0.23160266876220703,-0.05684852600097656,-0.16286468505859375,2023-10-21T15:56:36.225464Z,1697903796225
0.1380147933959961,-0.03812861442565918,-0.09259223937988281,2023-10-21T15:56:36.248218Z,1697903796248
0.022164344787597656,-0.0067250728607177734,-0.014082908630371094,2023-10-21T15:56:36.266014Z,1697903796265
-0.1184391975402832,0.038663625717163086,0.07065868377685547,2023-10-21T15:56:36.286314Z,1697903796286
-0.2853832244873047,0.09839034080505371,0.1583409309387207,2023-10-21T15:56:36.306549Z,1697903796306
-0.4770655632019043,0.17055487632751465,0.24355125427246094,2023-10-21T15:56:36.326772Z,1697903796326
-0.6936187744140625,0.25168657302856445,0.3219945430755615,2023-10-21T15:56:36.348024Z,1697903796347
-0.9433040618896484,0.33683061599731445,0.3930366039276123,2023-10-21T15:56:36.367354Z,1697903796367
-1.2318572998046875,0.4147017002105713,0.45315027236938477,2023-10-21T15:56:36.387655Z,1697903796387
-1.5560731887817383,0.46653079986572266,0.49366116523742676,2023-10-21T15:56:36.407853Z,1697903796407
-1.8960161209106445,0.4686703681945801,0.5009996891021729,2023-10-21T15:56:36.428117Z,1697903796428
-2.215257167816162,0.3990567922592163,0.46275484561920166,2023-10-21T15:56:36.448399Z,1697903796448
-2.4780774116516113,0.24473810195922852,0.37760651111602783,2023-10-21T15:56:36.468691Z,1697903796468
-2.6334424018859863,0.007878938689827919,0.2530056834220886,2023-10-21T15:56:36.488945Z,1697903796488
-2.62888240814209,-0.2805391550064087,0.10753399133682251,2023-10-21T15:56:36.509176Z,1697903796509
-2.4185471534729004,-0.5523966550827026,-0.03072112798690796,2023-10-21T15:56:36.531342Z,1697903796531
-2.018787384033203,-0.7262747287750244,-0.12963253259658813,2023-10-21T15:56:36.549717Z,1697903796549
-1.4842209815979004,-0.7371127605438232,-0.16822457313537598,2023-10-21T15:56:36.570005Z,1697903796569
-0.9006476402282715,-0.5738334655761719,-0.14395058155059814,2023-10-21T15:56:36.590212Z,1697903796590
-0.32239675521850586,-0.251370906829834,-0.06561291217803955,2023-10-21T15:56:36.610453Z,1697903796610
0.22003746032714844,0.20335674285888672,0.0538334846496582,2023-10-21T15:56:36.631093Z,1697903796631
0.7078566551208496,0.7592177391052246,0.20083141326904297,2023-10-21T15:56:36.651032Z,1697903796650
1.1342458724975586,1.3878517150878906,0.3638451099395752,2023-10-21T15:56:36.671362Z,1697903796671
1.495832920074463,2.0581564903259277,0.532418966293335,2023-10-21T15:56:36.691520Z,1697903796691
1.7918415069580078,2.7382984161376953,0.6974642276763916,2023-10-21T15:56:36.714578Z,1697903796714
2.0180654525756836,3.3968238830566406,0.8512346744537354,2023-10-21T15:56:36.732088Z,1697903796732
2.1855015754699707,4.012476921081543,0.9910335540771484,2023-10-21T15:56:36.752404Z,1697903796752
2.30673885345459,4.567446708679199,1.1161487102508545,2023-10-21T15:56:36.772609Z,1697903796772
2.4020090103149414,5.053471565246582,1.2287325859069824,2023-10-21T15:56:36.792846Z,1697903796792
2.4780545234680176,5.46397590637207,1.3289260864257812,2023-10-21T15:56:36.814692Z,1697903796814
2.53591251373291,5.796657562255859,1.4152812957763672,2023-10-21T15:56:36.833519Z,1697903796833
2.57792329788208,6.046053886413574,1.4866719245910645,2023-10-21T15:56:36.853742Z,1697903796853
2.601637363433838,6.192499160766602,1.5410518646240234,2023-10-21T15:56:36.873885Z,1697903796873
2.5999388694763184,6.220605850219727,1.57700777053833,2023-10-21T15:56:36.894115Z,1697903796894
2.5671515464782715,6.128171920776367,1.592956304550171,2023-10-21T15:56:36.914583Z,1697903796914
2.5008840560913086,5.927036285400391,1.587214708328247,2023-10-21T15:56:36.934769Z,1697903796934
2.3993825912475586,5.632083892822266,1.5581870079040527,2023-10-21T15:56:36.955024Z,1697903796954
2.2640700340270996,5.2509870529174805,1.505770206451416,2023-10-21T15:56:36.975254Z,1697903796975
2.093567371368408,4.792414665222168,1.4318768978118896,2023-10-21T15:56:36.997942Z,1697903796997
1.8880138397216797,4.266362190246582,1.3373653888702393,2023-10-21T15:56:37.015823Z,1697903797015
1.64520263671875,3.6826324462890625,1.220064640045166,2023-10-21T15:56:37.036113Z,1697903797036
1.3765602111816406,3.058483123779297,1.0791044235229492,2023-10-21T15:56:37.056367Z,1697903797056
1.0961785316467285,2.423032760620117,0.9160866737365723,2023-10-21T15:56:37.076542Z,1697903797076
0.8242912292480469,1.810133934020996,0.736882209777832,2023-10-21T15:56:37.097598Z,1697903797097
0.5695981979370117,1.2411823272705078,0.5455293655395508,2023-10-21T15:56:37.117106Z,1697903797117
0.335834264755249,0.7250967025756836,0.34426188468933105,2023-10-21T15:56:37.137387Z,1697903797137
0.12496089935302734,0.2663097381591797,0.13645696640014648,2023-10-21T15:56:37.157647Z,1697903797157
-0.0633995532989502,-0.13318109512329102,-0.07341957092285156,2023-10-21T15:56:37.181188Z,1697903797181
-0.22964978218078613,-0.47591733932495117,-0.28075742721557617,2023-10-21T15:56:37.198271Z,1697903797198
-0.3735988140106201,-0.7649407386779785,-0.4794316291809082,2023-10-21T15:56:37.218411Z,1697903797218
-0.49637293815612793,-0.9989385604858398,-0.659731388092041,2023-10-21T15:56:37.238716Z,1697903797238
-0.6002333164215088,-1.1843128204345703,-0.8151373863220215,2023-10-21T15:56:37.258930Z,1697903797258
-0.6857666969299316,-1.3288936614990234,-0.9398126602172852,2023-10-21T15:56:37.281043Z,1697903797281
-0.7525217533111572,-1.4490470886230469,-1.0350050926208496,2023-10-21T15:56:37.299456Z,1697903797299
-0.8006863594055176,-1.5512714385986328,-1.0991573333740234,2023-10-21T15:56:37.319781Z,1697903797319
-0.8316390514373779,-1.6354217529296875,-1.1315364837646484,2023-10-21T15:56:37.339987Z,1697903797339
-0.8464584350585938,-1.6998515129089355,-1.133634328842163,2023-10-21T15:56:37.360208Z,1697903797360
-0.8463022708892822,-1.7395539283752441,-1.105694055557251,2023-10-21T15:56:37.381461Z,1697903797381
-0.8336341381072998,-1.749152660369873,-1.0485210418701172,2023-10-21T15:56:37.400959Z,1697903797400
-0.8103737831115723,-1.7267661094665527,-0.9654393196105957,2023-10-21T15:56:37.421066Z,1697903797421
-0.7767598628997803,-1.670748233795166,-0.8610861301422119,2023-10-21T15:56:37.441369Z,1697903797441
-0.732611894607544,-1.5803942680358887,-0.7418653964996338,2023-10-21T15:56:37.464017Z,1697903797463
-0.6792025566101074,-1.4599132537841797,-0.6166222095489502,2023-10-21T15:56:37.481828Z,1697903797481
-0.6199352741241455,-1.317939281463623,-0.49460792541503906,2023-10-21T15:56:37.502138Z,1697903797502
-0.5589680671691895,-1.165250301361084,-0.38324475288391113,2023-10-21T15:56:37.522391Z,1697903797522
-0.49900031089782715,-1.0103635787963867,-0.28630590438842773,2023-10-21T15:56:37.542607Z,1697903797542
-0.4402740001678467,-0.8575954437255859,-0.2044992446899414,2023-10-21T15:56:37.563958Z,1697903797563
-0.3812241554260254,-0.7084517478942871,-0.13740622997283936,2023-10-21T15:56:37.583206Z,1697903797583
-0.3199930191040039,-0.5638041496276855,-0.08453083038330078,2023-10-21T15:56:37.603447Z,1697903797603
-0.25615596771240234,-0.42613697052001953,-0.04550015926361084,2023-10-21T15:56:37.623697Z,1697903797623
-0.19148826599121094,-0.30010175704956055,-0.019431352615356445,2023-10-21T15:56:37.643931Z,1697903797643
-0.12763690948486328,-0.1881422996520996,-0.0045008063316345215,2023-10-21T15:56:37.664192Z,1697903797664
-0.06300115585327148,-0.08719682693481445,0.0013745278120040894,2023-10-21T15:56:37.684509Z,1697903797684
0.0072460174560546875,0.009403705596923828,-5.10871410369873E-4,2023-10-21T15:56:37.704799Z,1697903797704
0.08751773834228516,0.10657978057861328,-0.009726524353027344,2023-10-21T15:56:37.724987Z,1697903797724
0.17795610427856445,0.20398950576782227,-0.02584850788116455,2023-10-21T15:56:37.747388Z,1697903797747
0.2737751007080078,0.2969388961791992,-0.04762136936187744,2023-10-21T15:56:37.765525Z,1697903797765
0.36841917037963867,0.3802018165588379,-0.07310986518859863,2023-10-21T15:56:37.785888Z,1697903797785
0.45639562606811523,0.45012378692626953,-0.10017943382263184,2023-10-21T15:56:37.806058Z,1697903797806
0.534233570098877,0.5048856735229492,-0.1269315481185913,2023-10-21T15:56:37.826310Z,1697903797826
0.5998983383178711,0.5440826416015625,-0.15187442302703857,2023-10-21T15:56:37.847153Z,1697903797847
0.6507940292358398,0.5673689842224121,-0.17370176315307617,2023-10-21T15:56:37.866865Z,1697903797866
0.6833357810974121,0.5739712715148926,-0.19095516204833984,2023-10-21T15:56:37.887133Z,1697903797887
0.6945199966430664,0.5634655952453613,-0.20220112800598145,2023-10-21T15:56:37.907345Z,1697903797907
0.6839184761047363,0.5369033813476562,-0.20637202262878418,2023-10-21T15:56:37.930449Z,1697903797930
0.6531586647033691,0.4967188835144043,-0.20315170288085938,2023-10-21T15:56:37.947940Z,1697903797947
0.6059527397155762,0.4468083381652832,-0.19315552711486816,2023-10-21T15:56:37.968233Z,1697903797968
0.5482335090637207,0.39241790771484375,-0.17811155319213867,2023-10-21T15:56:37.988444Z,1697903797988
0.48586225509643555,0.3384065628051758,-0.1601555347442627,2023-10-21T15:56:38.008666Z,1697903798008
0.422574520111084,0.28753662109375,-0.14085841178894043,2023-10-21T15:56:38.030147Z,1697903798030
0.35924339294433594,0.24003267288208008,-0.1208045482635498,2023-10-21T15:56:38.049266Z,1697903798049
0.2952737808227539,0.19475841522216797,-0.09997272491455078,2023-10-21T15:56:38.069506Z,1697903798069
0.23102378845214844,0.15115928649902344,-0.07861471176147461,2023-10-21T15:56:38.089750Z,1697903798089
0.16763830184936523,0.10930442810058594,-0.0572507381439209,2023-10-21T15:56:38.109943Z,1697903798109
0.1065225601196289,0.06953716278076172,-0.03647756576538086,2023-10-21T15:56:38.130260Z,1697903798130
0.049008846282958984,0.03217172622680664,-0.016813993453979492,2023-10-21T15:56:38.150550Z,1697903798150
-0.0043487548828125,-0.0028815269470214844,0.0014939308166503906,2023-10-21T15:56:38.170917Z,1697903798170
-0.05425405502319336,-0.036418914794921875,0.018648862838745117,2023-10-21T15:56:38.191073Z,1697903798191
-0.10068225860595703,-0.06859636306762695,0.0346224308013916,2023-10-21T15:56:38.213841Z,1697903798213
-0.14208221435546875,-0.09836244583129883,0.048871755599975586,2023-10-21T15:56:38.231659Z,1697903798231
-0.17530584335327148,-0.1233515739440918,0.06028008460998535,2023-10-21T15:56:38.251922Z,1697903798251
-0.19713068008422852,-0.1409444808959961,0.06767439842224121,2023-10-21T15:56:38.272183Z,1697903798272
-0.20658159255981445,-0.14997529983520508,0.07068228721618652,2023-10-21T15:56:38.292361Z,1697903798292
-0.20488500595092773,-0.15088558197021484,0.0697622299194336,2023-10-21T15:56:38.313426Z,1697903798313
-0.19510602951049805,-0.14557170867919922,0.06605052947998047,2023-10-21T15:56:38.332963Z,1697903798332
-0.18059158325195312,-0.13629961013793945,0.060767412185668945,2023-10-21T15:56:38.353221Z,1697903798353
-0.1630549430847168,-0.1242208480834961,0.05454564094543457,2023-10-21T15:56:38.373412Z,1697903798373
-0.1405353546142578,-0.10774850845336914,0.04680657386779785,2023-10-21T15:56:38.396697Z,1697903798396
-0.10908746719360352,-0.08388662338256836,0.03630566596984863,2023-10-21T15:56:38.414028Z,1697903798413
-0.06496667861938477,-0.04996013641357422,0.021744489669799805,2023-10-21T15:56:38.434268Z,1697903798434
-0.008996963500976562,-0.006907939910888672,0.0030519962310791016,2023-10-21T15:56:38.454509Z,1697903798454
0.05412721633911133,0.041498661041259766,-0.018782377243041992,2023-10-21T15:56:38.474746Z,1697903798474
0.11774587631225586,0.09025907516479492,-0.04208493232727051,2023-10-21T15:56:38.496935Z,1697903798496
0.17704439163208008,0.13589000701904297,-0.06553363800048828,2023-10-21T15:56:38.515269Z,1697903798515
0.22975969314575195,0.17671489715576172,-0.08837008476257324,2023-10-21T15:56:38.535560Z,1697903798535
0.27581262588500977,0.21257686614990234,-0.11046791076660156,2023-10-21T15:56:38.555936Z,1697903798555
0.31508302688598633,0.2432541847229004,-0.13157367706298828,2023-10-21T15:56:38.576009Z,1697903798575
0.3451862335205078,0.26692724227905273,-0.15034151077270508,2023-10-21T15:56:38.596402Z,1697903798596
0.3623471260070801,0.28070735931396484,-0.1644582748413086,2023-10-21T15:56:38.616624Z,1697903798616
0.3637237548828125,0.28225040435791016,-0.17170119285583496,2023-10-21T15:56:38.636900Z,1697903798636
0.35068798065185547,0.27233314514160156,-0.17178678512573242,2023-10-21T15:56:38.657095Z,1697903798657
0.3285336494445801,0.25483036041259766,-0.16665959358215332,2023-10-21T15:56:38.679781Z,1697903798679
0.3044257164001465,0.23529529571533203,-0.1597135066986084,2023-10-21T15:56:38.697650Z,1697903798697
0.28348731994628906,0.2178945541381836,-0.1537327766418457,2023-10-21T15:56:38.717934Z,1697903798717
0.2684769630432129,0.2049732208251953,-0.15047407150268555,2023-10-21T15:56:38.738235Z,1697903798738
0.25946712493896484,0.1967320442199707,-0.1502823829650879,2023-10-21T15:56:38.758412Z,1697903798758
0.25583934783935547,0.19276952743530273,-0.1530609130859375,2023-10-21T15:56:38.779696Z,1697903798779
0.2574491500854492,0.19293212890625,-0.1589188575744629,2023-10-21T15:56:38.799029Z,1697903798798
0.26491451263427734,0.1976170539855957,-0.16840124130249023,2023-10-21T15:56:38.819263Z,1697903798819
0.27948427200317383,0.20765209197998047,-0.18241214752197266,2023-10-21T15:56:38.839486Z,1697903798839
0.3016939163208008,0.22334766387939453,-0.20136213302612305,2023-10-21T15:56:38.859699Z,1697903798859
0.3295931816101074,0.2432117462158203,-0.22382736206054688,2023-10-21T15:56:38.879999Z,1697903798879
0.35831785202026367,0.26369142532348633,-0.24611902236938477,2023-10-21T15:56:38.900338Z,1697903798900
0.3811640739440918,0.2799801826477051,-0.26300668716430664,2023-10-21T15:56:38.920558Z,1697903798920
0.3925166130065918,0.2879910469055176,-0.27001190185546875,2023-10-21T15:56:38.940800Z,1697903798940
0.39141845703125,0.28673601150512695,-0.2661886215209961,2023-10-21T15:56:38.962899Z,1697903798962
0.38135623931884766,0.27846240997314453,-0.25420618057250977,2023-10-21T15:56:38.981425Z,1697903798981
0.3686695098876953,0.267667293548584,-0.2389822006225586,2023-10-21T15:56:39.001714Z,1697903799001
0.35884666442871094,0.2584967613220215,-0.22475194931030273,2023-10-21T15:56:39.021929Z,1697903799021
0.3543720245361328,0.25312232971191406,-0.21352481842041016,2023-10-21T15:56:39.042095Z,1697903799042
0.35422229766845703,0.251131534576416,-0.20482254028320312,2023-10-21T15:56:39.062796Z,1697903799062
0.3566455841064453,0.2514762878417969,-0.19771814346313477,2023-10-21T15:56:39.082715Z,1697903799082
0.36240386962890625,0.254636287689209,-0.1927015781402588,2023-10-21T15:56:39.103001Z,1697903799102
0.37511491775512695,0.2628955841064453,-0.19164276123046875,2023-10-21T15:56:39.123239Z,1697903799123
0.39954662322998047,0.27941036224365234,-0.1967628002166748,2023-10-21T15:56:39.145968Z,1697903799145
0.4370427131652832,0.30518436431884766,-0.20838165283203125,2023-10-21T15:56:39.163749Z,1697903799163
0.4844212532043457,0.33831024169921875,-0.22463202476501465,2023-10-21T15:56:39.184050Z,1697903799184
0.5344624519348145,0.3742198944091797,-0.24185919761657715,2023-10-21T15:56:39.204322Z,1697903799204
0.5788059234619141,0.407315731048584,-0.2560234069824219,2023-10-21T15:56:39.224550Z,1697903799224
0.6109027862548828,0.43267202377319336,-0.2640037536621094,2023-10-21T15:56:39.245931Z,1697903799245
0.6285004615783691,0.447878360748291,-0.26479482650756836,2023-10-21T15:56:39.265087Z,1697903799265
0.6323709487915039,0.452578067779541,-0.25892210006713867,2023-10-21T15:56:39.285356Z,1697903799285
0.6239585876464844,0.4473915100097656,-0.24741625785827637,2023-10-21T15:56:39.305552Z,1697903799305
0.6039581298828125,0.43296384811401367,-0.23122930526733398,2023-10-21T15:56:39.325770Z,1697903799325
0.5718669891357422,0.4094257354736328,-0.21099543571472168,2023-10-21T15:56:39.346113Z,1697903799346
0.5268998146057129,0.37674760818481445,-0.18726706504821777,2023-10-21T15:56:39.366434Z,1697903799366
0.4696621894836426,0.335690975189209,-0.16103386878967285,2023-10-21T15:56:39.386677Z,1697903799386
0.401731014251709,0.2874898910522461,-0.13336634635925293,2023-10-21T15:56:39.406949Z,1697903799406
0.3265562057495117,0.23444032669067383,-0.10558938980102539,2023-10-21T15:56:39.429650Z,1697903799429
0.2481074333190918,0.17911195755004883,-0.07874894142150879,2023-10-21T15:56:39.447457Z,1697903799447
0.16965723037719727,0.12353229522705078,-0.0533442497253418,2023-10-21T15:56:39.467780Z,1697903799467
0.09335565567016602,0.06880903244018555,-0.029348134994506836,2023-10-21T15:56:39.488004Z,1697903799487
0.020527362823486328,0.015375137329101562,-0.006505012512207031,2023-10-21T15:56:39.508170Z,1697903799508
-0.04787158966064453,-0.03655099868774414,0.015375375747680664,2023-10-21T15:56:39.529274Z,1697903799529
-0.11061668395996094,-0.0862574577331543,0.03610086441040039,2023-10-21T15:56:39.548784Z,1697903799548
-0.1654648780822754,-0.13181638717651367,0.0548558235168457,2023-10-21T15:56:39.569085Z,1697903799569
-0.21048879623413086,-0.17117071151733398,0.07071948051452637,2023-10-21T15:56:39.589285Z,1697903799589
-0.24477672576904297,-0.20290279388427734,0.08301568031311035,2023-10-21T15:56:39.612656Z,1697903799612
-0.26889610290527344,-0.22689390182495117,0.09157109260559082,2023-10-21T15:56:39.629793Z,1697903799629
-0.2852210998535156,-0.24470138549804688,0.09693288803100586,2023-10-21T15:56:39.650093Z,1697903799650
-0.2964754104614258,-0.25832653045654297,0.09986543655395508,2023-10-21T15:56:39.670347Z,1697903799670
-0.3047971725463867,-0.26935625076293945,0.101104736328125,2023-10-21T15:56:39.690552Z,1697903799690
-0.31034183502197266,-0.2776346206665039,0.10083794593811035,2023-10-21T15:56:39.712550Z,1697903799712
-0.31091928482055664,-0.2809877395629883,0.09865331649780273,2023-10-21T15:56:39.731113Z,1697903799731
-0.3033761978149414,-0.2764930725097656,0.0939946174621582,2023-10-21T15:56:39.751642Z,1697903799751
-0.28626394271850586,-0.2628793716430664,0.08685827255249023,2023-10-21T15:56:39.771655Z,1697903799771
-0.2606825828552246,-0.24120235443115234,0.07785820960998535,2023-10-21T15:56:39.791896Z,1697903799791
-0.22876501083374023,-0.2133502960205078,0.06769323348999023,2023-10-21T15:56:39.812456Z,1697903799812
-0.19228601455688477,-0.18074655532836914,0.05676913261413574,2023-10-21T15:56:39.832471Z,1697903799832
-0.15089130401611328,-0.14281845092773438,0.04476666450500488,2023-10-21T15:56:39.852718Z,1697903799852
-0.10219526290893555,-0.09719181060791016,0.030693769454956055,2023-10-21T15:56:39.872942Z,1697903799872
-0.043767452239990234,-0.041710853576660156,0.013406753540039062,2023-10-21T15:56:39.895819Z,1697903799895
0.024929046630859375,0.023748397827148438,-0.007842302322387695,2023-10-21T15:56:39.913478Z,1697903799913
0.10099363327026367,0.09600257873535156,-0.03281545639038086,2023-10-21T15:56:39.933770Z,1697903799933
0.17871713638305664,0.16933488845825195,-0.06019997596740723,2023-10-21T15:56:39.954097Z,1697903799954
0.25185728073120117,0.23758172988891602,-0.0880436897277832,2023-10-21T15:56:39.974245Z,1697903799974
0.3159050941467285,0.2961406707763672,-0.11454081535339355,2023-10-21T15:56:39.995642Z,1697903799995
0.3686866760253906,0.342559814453125,-0.1384291648864746,2023-10-21T15:56:40.014850Z,1697903800014
0.40955686569213867,0.37604475021362305,-0.15899395942687988,2023-10-21T15:56:40.035086Z,1697903800035
0.43851184844970703,0.39678287506103516,-0.17581677436828613,2023-10-21T15:56:40.055333Z,1697903800055
0.45441627502441406,0.40438175201416016,-0.1880345344543457,2023-10-21T15:56:40.075568Z,1697903800075
0.4567112922668457,0.399137020111084,-0.1949012279510498,2023-10-21T15:56:40.095869Z,1697903800095
0.4464297294616699,0.38272762298583984,-0.19633221626281738,2023-10-21T15:56:40.116143Z,1697903800116
0.4273190498352051,0.35889625549316406,-0.19352078437805176,2023-10-21T15:56:40.136414Z,1697903800136
0.40482234954833984,0.33258914947509766,-0.1886904239654541,2023-10-21T15:56:40.156642Z,1697903800156
0.3845863342285156,0.3086886405944824,-0.18445777893066406,2023-10-21T15:56:40.179164Z,1697903800179
0.3706068992614746,0.29047489166259766,-0.18288016319274902,2023-10-21T15:56:40.197180Z,1697903800197
0.3638167381286621,0.2786407470703125,-0.18463850021362305,2023-10-21T15:56:40.217493Z,1697903800217
0.36292552947998047,0.27199268341064453,-0.1892256736755371,2023-10-21T15:56:40.237731Z,1697903800237
0.3650517463684082,0.26813745498657227,-0.19516825675964355,2023-10-21T15:56:40.257907Z,1697903800257
0.3683762550354004,0.2655177116394043,-0.20137929916381836,2023-10-21T15:56:40.278657Z,1697903800278
0.37233400344848633,0.2635354995727539,-0.20738792419433594,2023-10-21T15:56:40.298503Z,1697903800298
0.3770260810852051,0.2621269226074219,-0.21310091018676758,2023-10-21T15:56:40.318771Z,1697903800318
0.3818173408508301,0.2608785629272461,-0.2180929183959961,2023-10-21T15:56:40.339005Z,1697903800338
0.384829044342041,0.2586841583251953,-0.2212839126586914,2023-10-21T15:56:40.362150Z,1697903800362
0.3830881118774414,0.253842830657959,-0.22100591659545898,2023-10-21T15:56:40.379496Z,1697903800379
0.374237060546875,0.24499130249023438,-0.21592187881469727,2023-10-21T15:56:40.399890Z,1697903800399
0.35776424407958984,0.23180198669433594,-0.2057814598083496,2023-10-21T15:56:40.420087Z,1697903800420
0.3352084159851074,0.21521949768066406,-0.19161748886108398,2023-10-21T15:56:40.440282Z,1697903800440
0.309783935546875,0.19725942611694336,-0.1755080223083496,2023-10-21T15:56:40.462015Z,1697903800461
0.2849454879760742,0.1801309585571289,-0.15970706939697266,2023-10-21T15:56:40.480882Z,1697903800480
0.26314306259155273,0.16538143157958984,-0.14580249786376953,2023-10-21T15:56:40.501183Z,1697903800501
0.24486112594604492,0.15326929092407227,-0.13414669036865234,2023-10-21T15:56:40.521382Z,1697903800521
0.2299203872680664,0.14358997344970703,-0.12463998794555664,2023-10-21T15:56:40.541553Z,1697903800541
0.21837997436523438,0.13624191284179688,-0.11723852157592773,2023-10-21T15:56:40.561917Z,1697903800561
0.21188592910766602,0.1321120262145996,-0.11275100708007812,2023-10-21T15:56:40.582317Z,1697903800582
0.21246337890625,0.1323847770690918,-0.11218452453613281,2023-10-21T15:56:40.602471Z,1697903800602
0.22163677215576172,0.1379857063293457,-0.1162862777709961,2023-10-21T15:56:40.622750Z,1697903800622
0.23849010467529297,0.14841127395629883,-0.12453913688659668,2023-10-21T15:56:40.645188Z,1697903800645
0.25988292694091797,0.16183185577392578,-0.13527679443359375,2023-10-21T15:56:40.663245Z,1697903800663
0.28089094161987305,0.17531967163085938,-0.14590048789978027,2023-10-21T15:56:40.683523Z,1697903800683
0.29666662216186523,0.18592357635498047,-0.1538403034210205,2023-10-21T15:56:40.703802Z,1697903800703
0.30500268936157227,0.19219017028808594,-0.15790486335754395,2023-10-21T15:56:40.723990Z,1697903800723
0.3058633804321289,0.19396162033081055,-0.15804696083068848,2023-10-21T15:56:40.745107Z,1697903800745
0.30076026916503906,0.1920785903930664,-0.15507173538208008,2023-10-21T15:56:40.764539Z,1697903800764
0.29034852981567383,0.18692302703857422,-0.1493544578552246,2023-10-21T15:56:40.784892Z,1697903800784
0.2745847702026367,0.17844057083129883,-0.14090728759765625,2023-10-21T15:56:40.805126Z,1697903800805
0.25309133529663086,0.16630792617797852,-0.12956547737121582,2023-10-21T15:56:40.828479Z,1697903800828
0.22712135314941406,0.15112972259521484,-0.11596393585205078,2023-10-21T15:56:40.845579Z,1697903800845
0.19931745529174805,0.1344008445739746,-0.10142898559570312,2023-10-21T15:56:40.865899Z,1697903800865
0.17285537719726562,0.1181020736694336,-0.08756279945373535,2023-10-21T15:56:40.886153Z,1697903800886
0.15121078491210938,0.1046142578125,-0.07610630989074707,2023-10-21T15:56:40.906366Z,1697903800906
0.1367344856262207,0.09572601318359375,-0.06821680068969727,2023-10-21T15:56:40.928298Z,1697903800928
0.1301560401916504,0.09214925765991211,-0.06417179107666016,2023-10-21T15:56:40.946934Z,1697903800946
0.13028287887573242,0.09320783615112305,-0.06323838233947754,2023-10-21T15:56:40.967238Z,1697903800967
0.13521671295166016,0.09763336181640625,-0.06432628631591797,2023-10-21T15:56:40.987457Z,1697903800987
0.1429896354675293,0.10401391983032227,-0.06633329391479492,2023-10-21T15:56:41.007750Z,1697903801007
0.15251493453979492,0.11153745651245117,-0.06865167617797852,2023-10-21T15:56:41.028164Z,1697903801028
0.16295385360717773,0.11957550048828125,-0.07084488868713379,2023-10-21T15:56:41.048281Z,1697903801048
0.17291641235351562,0.12714862823486328,-0.07234334945678711,2023-10-21T15:56:41.068543Z,1697903801068
0.18084478378295898,0.13316822052001953,-0.07260799407958984,2023-10-21T15:56:41.088796Z,1697903801088
0.1842031478881836,0.13580894470214844,-0.07082128524780273,2023-10-21T15:56:41.111363Z,1697903801111
0.18016576766967773,0.1329822540283203,-0.06621551513671875,2023-10-21T15:56:41.129294Z,1697903801129
0.1670241355895996,0.12337636947631836,-0.05858969688415527,2023-10-21T15:56:41.149589Z,1697903801149
0.14536714553833008,0.10737848281860352,-0.04862213134765625,2023-10-21T15:56:41.169856Z,1697903801169
0.11893558502197266,0.08774375915527344,-0.03793168067932129,2023-10-21T15:56:41.190082Z,1697903801190
0.09321928024291992,0.06857824325561523,-0.028390169143676758,2023-10-21T15:56:41.211273Z,1697903801211
0.07317543029785156,0.053601741790771484,-0.021342992782592773,2023-10-21T15:56:41.230668Z,1697903801230
0.06143951416015625,0.04475688934326172,-0.017236709594726562,2023-10-21T15:56:41.250921Z,1697903801250
0.05889558792114258,0.042634010314941406,-0.015973567962646484,2023-10-21T15:56:41.271153Z,1697903801271
0.06611061096191406,0.04752540588378906,-0.017437458038330078,2023-10-21T15:56:41.291325Z,1697903801291
0.08350944519042969,0.05958080291748047,-0.021581172943115234,2023-10-21T15:56:41.311713Z,1697903801311
0.11135149002075195,0.07879638671875,-0.02841663360595703,2023-10-21T15:56:41.331979Z,1697903801331
0.14826488494873047,0.10402250289916992,-0.0376889705657959,2023-10-21T15:56:41.352253Z,1697903801352
0.19082975387573242,0.13275766372680664,-0.0487360954284668,2023-10-21T15:56:41.372488Z,1697903801372
0.2333974838256836,0.16109895706176758,-0.06032395362854004,2023-10-21T15:56:41.394628Z,1697903801394
0.2686448097229004,0.1841144561767578,-0.07065296173095703,2023-10-21T15:56:41.413065Z,1697903801413
0.29043149948120117,0.1977095603942871,-0.07803797721862793,2023-10-21T15:56:41.433341Z,1697903801433
0.2968015670776367,0.2005782127380371,-0.0817570686340332,2023-10-21T15:56:41.453579Z,1697903801453
0.29013729095458984,0.19440507888793945,-0.08225107192993164,2023-10-21T15:56:41.473755Z,1697903801473
0.27440547943115234,0.18203496932983398,-0.08041715621948242,2023-10-21T15:56:41.494434Z,1697903801494
0.2536163330078125,0.16638469696044922,-0.07717514038085938,2023-10-21T15:56:41.514325Z,1697903801514
0.23097753524780273,0.14982318878173828,-0.07327604293823242,2023-10-21T15:56:41.534755Z,1697903801534
0.20933818817138672,0.13433027267456055,-0.06945109367370605,2023-10-21T15:56:41.554867Z,1697903801554
0.19188976287841797,0.1219334602355957,-0.0667111873626709,2023-10-21T15:56:41.578242Z,1697903801578
0.18160247802734375,0.11437225341796875,-0.0662226676940918,2023-10-21T15:56:41.595362Z,1697903801595
0.18167924880981445,0.11346864700317383,-0.06950020790100098,2023-10-21T15:56:41.615677Z,1697903801615
0.19373559951782227,0.12002754211425781,-0.07768630981445312,2023-10-21T15:56:41.635921Z,1697903801635
0.2168264389038086,0.13325262069702148,-0.09099531173706055,2023-10-21T15:56:41.656153Z,1697903801656
0.24669313430786133,0.15027570724487305,-0.10808825492858887,2023-10-21T15:56:41.677795Z,1697903801677
0.2767491340637207,0.1668233871459961,-0.12620210647583008,2023-10-21T15:56:41.696718Z,1697903801696
0.3003392219543457,0.17862319946289062,-0.14206480979919434,2023-10-21T15:56:41.716999Z,1697903801716
0.3125467300415039,0.18258333206176758,-0.1528763771057129,2023-10-21T15:56:41.737243Z,1697903801737
0.3124856948852539,0.17820501327514648,-0.15764951705932617,2023-10-21T15:56:41.757423Z,1697903801757
0.3021564483642578,0.16689109802246094,-0.1569061279296875,2023-10-21T15:56:41.777748Z,1697903801777
0.2840542793273926,0.15056180953979492,-0.1515641212463379,2023-10-21T15:56:41.798060Z,1697903801798
0.26129770278930664,0.13152694702148438,-0.14301300048828125,2023-10-21T15:56:41.818273Z,1697903801818
0.23872900009155273,0.11280393600463867,-0.13379812240600586,2023-10-21T15:56:41.838518Z,1697903801838
0.22298049926757812,0.09767270088195801,-0.1277475357055664,2023-10-21T15:56:41.861016Z,1697903801860
0.2219691276550293,0.08894515037536621,-0.12974071502685547,2023-10-21T15:56:41.879048Z,1697903801879
0.24319171905517578,0.08790087699890137,-0.14471149444580078,2023-10-21T15:56:41.899375Z,1697903801899
0.2931489944458008,0.09417963027954102,-0.17715835571289062,2023-10-21T15:56:41.919635Z,1697903801919
0.37638187408447266,0.10584330558776855,-0.23035812377929688,2023-10-21T15:56:41.939816Z,1697903801939
0.49267101287841797,0.11937832832336426,-0.30440425872802734,2023-10-21T15:56:41.960900Z,1697903801960
0.6376562118530273,0.13090276718139648,-0.3963446617126465,2023-10-21T15:56:41.980373Z,1697903801980
0.8069849014282227,0.13761639595031738,-0.502748966217041,2023-10-21T15:56:42.000668Z,1697903802000
0.9967250823974609,0.13773119449615479,-0.6200804710388184,2023-10-21T15:56:42.020869Z,1697903802020
1.204056739807129,0.13019609451293945,-0.7452654838562012,2023-10-21T15:56:42.044648Z,1697903802044
1.4247446060180664,0.11417537927627563,-0.8742213249206543,2023-10-21T15:56:42.061426Z,1697903802061
1.6530380249023438,0.08893966674804688,-1.0020051002502441,2023-10-21T15:56:42.081755Z,1697903802081
1.884648323059082,0.0541556179523468,-1.1247491836547852,2023-10-21T15:56:42.101969Z,1697903802101
2.115774154663086,0.009496036916971207,-1.2391586303710938,2023-10-21T15:56:42.122183Z,1697903802122
2.3446311950683594,-0.04535375535488129,-1.343435287475586,2023-10-21T15:56:42.144084Z,1697903802144
2.571700096130371,-0.11061614751815796,-1.437281608581543,2023-10-21T15:56:42.162783Z,1697903802162
2.798480987548828,-0.1858764886856079,-1.5213680267333984,2023-10-21T15:56:42.183064Z,1697903802183
3.0269250869750977,-0.2699066400527954,-1.5964512825012207,2023-10-21T15:56:42.203297Z,1697903802203
3.257617950439453,-0.3603053689002991,-1.662308692932129,2023-10-21T15:56:42.223486Z,1697903802223
3.48844051361084,-0.4535256624221802,-1.7169008255004883,2023-10-21T15:56:42.244070Z,1697903802244
3.715761184692383,-0.5449432134628296,-1.7576942443847656,2023-10-21T15:56:42.264089Z,1697903802264
3.931736946105957,-0.6272475719451904,-1.7812471389770508,2023-10-21T15:56:42.284351Z,1697903802284
4.121248245239258,-0.6904830932617188,-1.7820591926574707,2023-10-21T15:56:42.304580Z,1697903802304
4.258768081665039,-0.7249922752380371,-1.7505881786346436,2023-10-21T15:56:42.327348Z,1697903802327
4.318747520446777,-0.7258820533752441,-1.6791880130767822,2023-10-21T15:56:42.345145Z,1697903802345
4.28494930267334,-0.6953043937683105,-1.566080093383789,2023-10-21T15:56:42.365442Z,1697903802365
4.155590057373047,-0.6378524303436279,-1.417647123336792,2023-10-21T15:56:42.385668Z,1697903802385
3.9316024780273438,-0.5567002296447754,-1.2431879043579102,2023-10-21T15:56:42.405897Z,1697903802405
3.615677833557129,-0.4556194543838501,-1.0523934364318848,2023-10-21T15:56:42.427334Z,1697903802427
3.2203664779663086,-0.34385931491851807,-0.8565077781677246,2023-10-21T15:56:42.446486Z,1697903802446
2.7682418823242188,-0.23515629768371582,-0.6668164730072021,2023-10-21T15:56:42.466775Z,1697903802466
2.275096893310547,-0.14180207252502441,-0.48908233642578125,2023-10-21T15:56:42.486932Z,1697903802486
1.7656593322753906,-0.07207345962524414,-0.33147430419921875,2023-10-21T15:56:42.507144Z,1697903802507
1.2229814529418945,-0.02508126199245453,-0.1951444149017334,2023-10-21T15:56:42.527508Z,1697903802527
0.6472148895263672,-4.7024060040712357E-4,-0.08507847785949707,2023-10-21T15:56:42.547888Z,1697903802547
0.05994987487792969,0.0012140721082687378,-0.006244182586669922,2023-10-21T15:56:42.568175Z,1697903802568
-0.5048227310180664,-0.021979719400405884,0.039498209953308105,2023-10-21T15:56:42.588239Z,1697903802588
-0.9962062835693359,-0.06867730617523193,0.053083330392837524,2023-10-21T15:56:42.610484Z,1697903802610
-1.4149656295776367,-0.13576310873031616,0.04084967076778412,2023-10-21T15:56:42.628842Z,1697903802628
-1.7798237800598145,-0.22259128093719482,0.006780395284295082,2023-10-21T15:56:42.649137Z,1697903802649
-2.10432767868042,-0.33412206172943115,-0.048272863030433655,2023-10-21T15:56:42.669335Z,1697903802669
-2.381315231323242,-0.47720515727996826,-0.12006020545959473,2023-10-21T15:56:42.689607Z,1697903802689
-2.604720115661621,-0.6586910486221313,-0.20251572132110596,2023-10-21T15:56:42.710860Z,1697903802710
-2.733185291290283,-0.857975959777832,-0.28065699338912964,2023-10-21T15:56:42.730279Z,1697903802730
-2.7503600120544434,-1.0463368892669678,-0.34166061878204346,2023-10-21T15:56:42.750620Z,1697903802750
-2.6722159385681152,-1.2017016410827637,-0.38028043508529663,2023-10-21T15:56:42.770767Z,1697903802770
-2.5339889526367188,-1.3165619373321533,-0.40174245834350586,2023-10-21T15:56:42.794086Z,1697903802794
-2.382930278778076,-1.404280185699463,-0.4140784740447998,2023-10-21T15:56:42.811168Z,1697903802811
-2.2257580757141113,-1.4549195766448975,-0.41211140155792236,2023-10-21T15:56:42.831494Z,1697903802831
-2.059235095977783,-1.4571852684020996,-0.3884284496307373,2023-10-21T15:56:42.851763Z,1697903802851
-1.8803024291992188,-1.4091863632202148,-0.34260761737823486,2023-10-21T15:56:42.872004Z,1697903802871
-1.6933531761169434,-1.3195953369140625,-0.2839677333831787,2023-10-21T15:56:42.893729Z,1697903802893
-1.5044960975646973,-1.1993298530578613,-0.22332102060317993,2023-10-21T15:56:42.912521Z,1697903802912
-1.3152904510498047,-1.0560197830200195,-0.16706466674804688,2023-10-21T15:56:42.932802Z,1697903802932
-1.1226296424865723,-0.8968639373779297,-0.11852878332138062,2023-10-21T15:56:42.953138Z,1697903802953
-0.9205527305603027,-0.7278585433959961,-0.07871085405349731,2023-10-21T15:56:42.973361Z,1697903802973
-0.69940185546875,-0.5483250617980957,-0.04608461260795593,2023-10-21T15:56:42.993681Z,1697903802993
-0.45839929580688477,-0.3597702980041504,-0.0214805006980896,2023-10-21T15:56:43.014011Z,1697903803013
-0.18698930740356445,-0.14775800704956055,-0.00530165433883667,2023-10-21T15:56:43.034208Z,1697903803034
0.11378335952758789,0.09075164794921875,0.0013502910733222961,2023-10-21T15:56:43.054507Z,1697903803054
0.4260406494140625,0.34328651428222656,-5.878349766135216E-4,2023-10-21T15:56:43.076978Z,1697903803076
0.7304172515869141,0.5957646369934082,-0.007990844547748566,2023-10-21T15:56:43.094980Z,1697903803094
1.000777244567871,0.8320817947387695,-0.01797555387020111,2023-10-21T15:56:43.115334Z,1697903803115
1.2419462203979492,1.0591950416564941,-0.029840081930160522,2023-10-21T15:56:43.135406Z,1697903803135
1.4646224975585938,1.2852964401245117,-0.04545021057128906,2023-10-21T15:56:43.155686Z,1697903803155
1.6719121932983398,1.5084242820739746,-0.06690850853919983,2023-10-21T15:56:43.176294Z,1697903803176
1.8555889129638672,1.7152137756347656,-0.09270128607749939,2023-10-21T15:56:43.196173Z,1697903803196
2.013731002807617,1.8963398933410645,-0.12068164348602295,2023-10-21T15:56:43.216478Z,1697903803216
2.122722625732422,2.0367279052734375,-0.1464756727218628,2023-10-21T15:56:43.236714Z,1697903803236
2.1691226959228516,2.12753963470459,-0.1686633825302124,2023-10-21T15:56:43.260033Z,1697903803259
2.1583328247070312,2.170792579650879,-0.18816018104553223,2023-10-21T15:56:43.277212Z,1697903803277
2.1098461151123047,2.176395893096924,-0.20829319953918457,2023-10-21T15:56:43.297530Z,1697903803297
