GYR_X,GYR_Y,GYR_Z,DATE,UNIX_TIMESTAMP
0.0039908443577587605,0.0011972533538937569,-0.0034587320405989885,2023-10-21T15:10:03.551754Z,1697901003551
-0.0015963378828018904,-0.002128450432792306,-0.0034587320405989885,2023-10-21T15:10:03.561285Z,1697901003561
-5.321126081980765E-4,0.0013302814913913608,-0.002128450432792306,2023-10-21T15:10:03.572053Z,1697901003571
0.003325703786686063,-0.0047890134155750275,-6.651407456956804E-4,2023-10-21T15:10:03.588799Z,1697901003588
-0.004655985161662102,1.3302815204951912E-4,0.0023945067077875137,2023-10-21T15:10:03.592272Z,1697901003592
-0.0034587320405989885,-0.0022614786867052317,-0.001064225216396153,2023-10-21T15:10:03.606850Z,1697901003606
-0.0025275349617004395,0.004123872611671686,-0.004256900865584612,2023-10-21T15:10:03.612522Z,1697901003612
-0.0,-0.0017293660202994943,0.004389929119497538,2023-10-21T15:10:03.622105Z,1697901003622
0.003325703786686063,-0.004389929119497538,0.0026605629827827215,2023-10-21T15:10:03.638489Z,1697901003638
-0.0035917600616812706,-0.004655985161662102,0.004256900865584612,2023-10-21T15:10:03.642353Z,1697901003642
0.0026605629827827215,0.0035917600616812706,-0.0014633096288889647,2023-10-21T15:10:03.655044Z,1697901003654
-0.0,-0.0035917600616812706,-0.0034587320405989885,2023-10-21T15:10:03.662525Z,1697901003662
7.981689414009452E-4,-0.0038578163366764784,0.003325703786686063,2023-10-21T15:10:03.673376Z,1697901003673
-0.0047890134155750275,-6.651407456956804E-4,-2.6605630409903824E-4,2023-10-21T15:10:03.687880Z,1697901003687
0.0038578163366764784,-0.004522957373410463,0.004922041669487953,2023-10-21T15:10:03.693585Z,1697901003693
-0.0019954221788793802,0.0038578163366764784,0.001064225216396153,2023-10-21T15:10:03.704791Z,1697901003704
-0.004922041669487953,-0.002128450432792306,7.981689414009452E-4,2023-10-21T15:10:03.713883Z,1697901003713
0.0035917600616812706,0.0037247883155941963,-0.0011972533538937569,2023-10-21T15:10:03.723497Z,1697901003723
0.0029266192577779293,-0.0013302814913913608,0.002128450432792306,2023-10-21T15:10:03.735517Z,1697901003735
0.0025275349617004395,0.004256900865584612,-0.003059647511690855,2023-10-21T15:10:03.743626Z,1697901003743
-0.0031926757656037807,0.003059647511690855,-0.0019954221788793802,2023-10-21T15:10:03.754413Z,1697901003754
-0.0018623941577970982,-1.3302815204951912E-4,-5.321126081980765E-4,2023-10-21T15:10:03.763821Z,1697901003763
0.0017293660202994943,-0.0015963378828018904,-9.311970788985491E-4,2023-10-21T15:10:03.774761Z,1697901003774
-0.0029266192577779293,0.004655985161662102,-6.651407456956804E-4,2023-10-21T15:10:03.784709Z,1697901003784
-0.0023945067077875137,0.004655985161662102,-0.0039908443577587605,2023-10-21T15:10:03.794970Z,1697901003794
0.003059647511690855,-0.0023945067077875137,-0.0,2023-10-21T15:10:03.804495Z,1697901003804
-0.0022614786867052317,0.0022614786867052317,-0.0047890134155750275,2023-10-21T15:10:03.817487Z,1697901003817
0.0026605629827827215,-0.0035917600616812706,-7.981689414009452E-4,2023-10-21T15:10:03.824775Z,1697901003824
0.0011972533538937569,-3.990844707004726E-4,3.990844707004726E-4,2023-10-21T15:10:03.835555Z,1697901003835
-1.3302815204951912E-4,-0.003059647511690855,-0.0,2023-10-21T15:10:03.844927Z,1697901003844
-0.0039908443577587605,0.004522957373410463,6.651407456956804E-4,2023-10-21T15:10:03.855826Z,1697901003855
-0.002128450432792306,0.0025275349617004395,-0.0027935912366956472,2023-10-21T15:10:03.867938Z,1697901003867
0.0038578163366764784,-0.005055069923400879,0.004389929119497538,2023-10-21T15:10:03.876029Z,1697901003876
0.004922041669487953,-7.981689414009452E-4,-0.004123872611671686,2023-10-21T15:10:03.885509Z,1697901003885
-0.0038578163366764784,0.004123872611671686,-0.0018623941577970982,2023-10-21T15:10:03.896352Z,1697901003896
-0.004389929119497538,0.0031926757656037807,-5.321126081980765E-4,2023-10-21T15:10:03.905784Z,1697901003905
0.0027935912366956472,2.6605630409903824E-4,0.004522957373410463,2023-10-21T15:10:03.917731Z,1697901003917
-0.004123872611671686,0.0047890134155750275,-0.0017293660202994943,2023-10-21T15:10:03.925926Z,1697901003925
0.0023945067077875137,-0.0011972533538937569,7.981689414009452E-4,2023-10-21T15:10:03.936880Z,1697901003936
0.004922041669487953,-0.0019954221788793802,-0.0022614786867052317,2023-10-21T15:10:03.946171Z,1697901003946
-1.3302815204951912E-4,0.004256900865584612,1.3302815204951912E-4,2023-10-21T15:10:03.957331Z,1697901003957
-0.0029266192577779293,-0.0014633096288889647,0.0025275349617004395,2023-10-21T15:10:03.971356Z,1697901003971
-5.321126081980765E-4,0.0011972533538937569,0.004256900865584612,2023-10-21T15:10:03.977394Z,1697901003977
-5.321126081980765E-4,0.0019954221788793802,-0.0027935912366956472,2023-10-21T15:10:03.988319Z,1697901003988
0.0949821025133133,-0.016096405684947968,0.04589471220970154,2023-10-21T15:10:04.004498Z,1697901004004
0.1004362553358078,-0.022082673385739326,0.04655985161662102,2023-10-21T15:10:04.007081Z,1697901004007
0.08580315858125687,-0.01888999715447426,0.03977541625499725,2023-10-21T15:10:04.018852Z,1697901004018
0.07329851388931274,-0.016096405684947968,0.03392218053340912,2023-10-21T15:10:04.027341Z,1697901004027
0.06252323091030121,-0.013834928162395954,0.029000137001276016,2023-10-21T15:10:04.038537Z,1697901004038
0.053477317094802856,-0.011706477031111717,0.02474323660135269,2023-10-21T15:10:04.054416Z,1697901004054
0.05839935690164566,-0.02168358862400055,0.022481758147478104,2023-10-21T15:10:04.058416Z,1697901004058
0.06252323091030121,-0.030197391286492348,0.02035330794751644,2023-10-21T15:10:04.071051Z,1697901004071
0.053477317094802856,-0.025807460770010948,0.017426688224077225,2023-10-21T15:10:04.078673Z,1697901004078
0.04562865570187569,-0.0219496451318264,0.014899153262376785,2023-10-21T15:10:04.088160Z,1697901004088
0.0389772467315197,-0.018756968900561333,0.012770703062415123,2023-10-21T15:10:04.105437Z,1697901004105
0.022215701639652252,-0.03352309390902519,0.014500068500638008,2023-10-21T15:10:04.108490Z,1697901004108
0.007981688715517521,-0.04616076871752739,0.015963377431035042,2023-10-21T15:10:04.122123Z,1697901004122
0.006784435827285051,-0.0395093597471714,0.013568871654570103,2023-10-21T15:10:04.128607Z,1697901004128
0.005853238515555859,-0.03365612402558327,0.011573448777198792,2023-10-21T15:10:04.139702Z,1697901004139
0.004922041669487953,-0.028734080493450165,0.009977111592888832,2023-10-21T15:10:04.154155Z,1697901004154
-0.0037247883155941963,-0.04496351629495621,0.0013302814913913608,2023-10-21T15:10:04.159790Z,1697901004159
-0.011041336692869663,-0.05866541340947151,-0.005986266769468784,2023-10-21T15:10:04.170874Z,1697901004170
-0.00944499857723713,-0.05015161260962486,-0.005188097711652517,2023-10-21T15:10:04.180013Z,1697901004179
0.0039908443577587605,-0.05454154312610626,0.004123872611671686,2023-10-21T15:10:04.189498Z,1697901004189
0.015431265346705914,-0.05839935690164566,0.012105561792850494,2023-10-21T15:10:04.201729Z,1697901004201
0.027403799816966057,-0.05959661304950714,0.02514232136309147,2023-10-21T15:10:04.209750Z,1697901004209
0.03777999430894852,-0.06052780896425247,0.03631668537855148,2023-10-21T15:10:04.220709Z,1697901004220
0.047890134155750275,-0.05959661304950714,0.042169924825429916,2023-10-21T15:10:04.229914Z,1697901004229
0.056536965072155,-0.05879844352602959,0.047224994748830795,2023-10-21T15:10:04.241010Z,1697901004240
0.0482892207801342,-0.05015161260962486,0.040307529270648956,2023-10-21T15:10:04.251825Z,1697901004251
0.061059921979904175,-0.05188097804784775,0.02540837787091732,2023-10-21T15:10:04.261057Z,1697901004261
0.07196822762489319,-0.05334429070353508,0.012504646554589272,2023-10-21T15:10:04.270543Z,1697901004270
0.0614590048789978,-0.04549562931060791,0.010775280185043812,2023-10-21T15:10:04.285179Z,1697901004285
0.07063794881105423,-0.04908738657832146,-0.01223859004676342,2023-10-21T15:10:04.290853Z,1697901004290
0.07861963659524918,-0.052280064672231674,-0.03179372847080231,2023-10-21T15:10:04.302656Z,1697901004302
0.06704618781805038,-0.04456442967057228,-0.027137743309140205,2023-10-21T15:10:04.311030Z,1697901004310
0.08207836747169495,-0.046958938241004944,-0.032192811369895935,2023-10-21T15:10:04.322007Z,1697901004321
0.09484907239675522,-0.04908738657832146,-0.036582741886377335,2023-10-21T15:10:04.334655Z,1697901004334
0.09857386350631714,-0.047224994748830795,-0.037247881293296814,2023-10-21T15:10:04.342274Z,1697901004342
0.10176653414964676,-0.04562865570187569,-0.03791302442550659,2023-10-21T15:10:04.351849Z,1697901004351
0.08686738461256027,-0.0389772467315197,-0.03232584148645401,2023-10-21T15:10:04.362369Z,1697901004362
0.09431695938110352,-0.041238728910684586,-0.04137175530195236,2023-10-21T15:10:04.371894Z,1697901004371
0.10070230811834335,-0.04310112074017525,-0.04895436018705368,2023-10-21T15:10:04.385117Z,1697901004385
0.08606921136379242,-0.036848798394203186,-0.041903868317604065,2023-10-21T15:10:04.392115Z,1697901004392
0.07343153655529022,-0.03139464557170868,-0.03578457236289978,2023-10-21T15:10:04.403072Z,1697901004403
0.06278929114341736,-0.026871686801314354,-0.03046344593167305,2023-10-21T15:10:04.412324Z,1697901004412
0.05361034348607063,-0.02288084290921688,-0.0260735172778368,2023-10-21T15:10:04.423429Z,1697901004423
0.06345442682504654,-0.03525245934724808,-0.03272492438554764,2023-10-21T15:10:04.434851Z,1697901004434
0.07196822762489319,-0.04576168581843376,-0.038445137441158295,2023-10-21T15:10:04.443469Z,1697901004443
0.0614590048789978,-0.039110276848077774,-0.03285795450210571,2023-10-21T15:10:04.452961Z,1697901004452
0.053876399993896484,-0.050683725625276566,-0.039376333355903625,2023-10-21T15:10:04.463638Z,1697901004463
0.04735802114009857,-0.06066083908081055,-0.04496351629495621,2023-10-21T15:10:04.473214Z,1697901004473
0.04044055938720703,-0.05174795165657997,-0.03831210732460022,2023-10-21T15:10:04.484597Z,1697901004484
0.0345873199403286,-0.04416534677147865,-0.03272492438554764,2023-10-21T15:10:04.493417Z,1697901004493
0.032192811369895935,-0.06079386547207832,-0.03990844637155533,2023-10-21T15:10:04.504657Z,1697901004504
0.030330419540405273,-0.07489485293626785,-0.04616076871752739,2023-10-21T15:10:04.513521Z,1697901004513
0.025807460770010948,-0.06385350972414017,-0.039376333355903625,2023-10-21T15:10:04.524721Z,1697901004524
0.022082673385739326,-0.05454154312610626,-0.03365612402558327,2023-10-21T15:10:04.534185Z,1697901004534
0.02793591283261776,-0.0691746398806572,-0.04562865570187569,2023-10-21T15:10:04.544712Z,1697901004544
0.03285795450210571,-0.08154625445604324,-0.05587182566523552,2023-10-21T15:10:04.554275Z,1697901004554
0.028068939223885536,-0.0697067528963089,-0.0477571077644825,2023-10-21T15:10:04.568127Z,1697901004568
0.023945067077875137,-0.059463582932949066,-0.04083964228630066,2023-10-21T15:10:04.574534Z,1697901004574
0.04416534677147865,-0.06425260007381439,-0.047224994748830795,2023-10-21T15:10:04.585435Z,1697901004585
0.0614590048789978,-0.06837646663188934,-0.0526791475713253,2023-10-21T15:10:04.594743Z,1697901004594
0.07170217484235764,-0.05800027400255203,-0.04243598133325577,2023-10-21T15:10:04.605781Z,1697901004605
0.08048202842473984,-0.04935344308614731,-0.03365612402558327,2023-10-21T15:10:04.617700Z,1697901004617
0.0872664675116539,-0.04057358577847481,-0.02727077156305313,2023-10-21T15:10:04.625845Z,1697901004625
0.09311970323324203,-0.033124011009931564,-0.021816616877913475,2023-10-21T15:10:04.635294Z,1697901004635
0.09578026831150055,-0.024078095331788063,-0.017825772985816002,2023-10-21T15:10:04.646080Z,1697901004646
0.09804175049066544,-0.016495490446686745,-0.014234011992812157,2023-10-21T15:10:04.655605Z,1697901004655
0.08367470651865005,-0.014100983738899231,-0.01223859004676342,2023-10-21T15:10:04.668211Z,1697901004668
0.09085822850465775,-0.00944499857723713,-0.012903730385005474,2023-10-21T15:10:04.675823Z,1697901004675
0.09697752445936203,-0.005321125965565443,-0.013435843400657177,2023-10-21T15:10:04.686756Z,1697901004686
0.08274351060390472,-0.004522957373410463,-0.011573448777198792,2023-10-21T15:10:04.695989Z,1697901004695
0.07063794881105423,-0.0038578163366764784,-0.009844083338975906,2023-10-21T15:10:04.707085Z,1697901004707
0.07808752357959747,-0.005055069923400879,-0.013568871654570103,2023-10-21T15:10:04.717530Z,1697901004717
0.08447287976741791,-0.005986266769468784,-0.016894575208425522,2023-10-21T15:10:04.727196Z,1697901004727
0.07210125774145126,-0.005055069923400879,-0.014367040246725082,2023-10-21T15:10:04.736616Z,1697901004736
0.06159203499555588,-0.004389929119497538,-0.012371618300676346,2023-10-21T15:10:04.751248Z,1697901004751
0.07156914472579956,-0.003325703786686063,-0.004655985161662102,2023-10-21T15:10:04.756936Z,1697901004756
0.07994992285966873,-0.0023945067077875137,0.0018623941577970982,2023-10-21T15:10:04.767886Z,1697901004767
0.06824344396591187,-0.002128450432792306,0.0015963378828018904,2023-10-21T15:10:04.777128Z,1697901004777
0.07609210163354874,-3.990844707004726E-4,0.0039908443577587605,2023-10-21T15:10:04.788230Z,1697901004788
0.0828765407204628,9.311970788985491E-4,0.005986266769468784,2023-10-21T15:10:04.800879Z,1697901004800
0.0707709789276123,7.981689414009452E-4,0.005188097711652517,2023-10-21T15:10:04.808259Z,1697901004808
0.060394782572984695,6.651407456956804E-4,0.004389929119497538,2023-10-21T15:10:04.817673Z,1697901004817
0.06744527071714401,0.002128450432792306,-0.004522957373410463,2023-10-21T15:10:04.828466Z,1697901004828
0.07329851388931274,0.0034587320405989885,-0.012105561792850494,2023-10-21T15:10:04.837953Z,1697901004837
0.06265626102685928,0.0029266192577779293,-0.010376195423305035,2023-10-21T15:10:04.851035Z,1697901004851
0.053477317094802856,0.0025275349617004395,-0.008779858238995075,2023-10-21T15:10:04.858181Z,1697901004858
0.04562865570187569,0.002128450432792306,-0.007582604885101318,2023-10-21T15:10:04.869228Z,1697901004869
0.0389772467315197,0.0018623941577970982,-0.0063853515312075615,2023-10-21T15:10:04.878428Z,1697901004878
0.033390067517757416,0.0015963378828018904,-0.005454154219478369,2023-10-21T15:10:04.889516Z,1697901004889
0.028468023985624313,0.0013302814913913608,-0.004655985161662102,2023-10-21T15:10:04.900839Z,1697901004900
0.024344151839613914,0.0011972533538937569,-0.0039908443577587605,2023-10-21T15:10:04.909606Z,1697901004909
0.02075239084661007,-0.013568871654570103,-0.012903730385005474,2023-10-21T15:10:04.918980Z,1697901004918
0.017692744731903076,-0.026206545531749725,-0.020486336201429367,2023-10-21T15:10:04.929764Z,1697901004929
0.015165209770202637,-0.022348729893565178,-0.01755971647799015,2023-10-21T15:10:04.939296Z,1697901004939
0.012903730385005474,-0.01915605366230011,-0.015032181516289711,2023-10-21T15:10:04.951177Z,1697901004951
0.032458867877721786,-0.02261478640139103,0.004256900865584612,2023-10-21T15:10:04.959496Z,1697901004959
0.04908738657832146,-0.025674432516098022,0.020619364455342293,2023-10-21T15:10:04.970480Z,1697901004970
0.06119294837117195,-0.027669856324791908,0.03112858720123768,2023-10-21T15:10:04.979637Z,1697901004979
0.07156914472579956,-0.029266193509101868,0.040041472762823105,2023-10-21T15:10:04.990791Z,1697901004990
0.08194534480571747,-0.030330419540405273,0.04868830367922783,2023-10-21T15:10:05.000586Z,1697901005000
0.09085822850465775,-0.031261615455150604,0.05627090856432915,2023-10-21T15:10:05.010925Z,1697901005010
0.09844083338975906,-0.032192811369895935,0.060394782572984695,2023-10-21T15:10:05.020300Z,1697901005020
0.10495921224355698,-0.03299098089337349,0.06398653984069824,2023-10-21T15:10:05.034466Z,1697901005034
0.11280786991119385,-0.03272492438554764,0.0707709789276123,2023-10-21T15:10:05.040570Z,1697901005040
0.11959230899810791,-0.03259189799427986,0.07649118453264236,2023-10-21T15:10:05.051581Z,1697901005051
0.1257116049528122,-0.03166069835424423,0.08088111877441406,2023-10-21T15:10:05.060769Z,1697901005060
0.13103273510932922,-0.030862530693411827,0.08460590243339539,2023-10-21T15:10:05.071943Z,1697901005071
0.11200970411300659,-0.02633957378566265,0.07236731797456741,2023-10-21T15:10:05.084177Z,1697901005084
0.11999139189720154,-0.025807460770010948,0.06744527071714401,2023-10-21T15:10:05.091916Z,1697901005091
0.12690885365009308,-0.025275349617004395,0.06318837404251099,2023-10-21T15:10:05.101371Z,1697901005101
0.10841794312000275,-0.02168358862400055,0.05400943011045456,2023-10-21T15:10:05.112141Z,1697901005112
0.10988125205039978,-0.017027603462338448,0.03777999430894852,2023-10-21T15:10:05.121668Z,1697901005121
0.11121153831481934,-0.0130367586389184,0.023945067077875137,2023-10-21T15:10:05.134411Z,1697901005134
0.0949821025133133,-0.011174364946782589,0.020486336201429367,2023-10-21T15:10:05.141836Z,1697901005141
0.08114717155694962,-0.00944499857723713,0.017426688224077225,2023-10-21T15:10:05.152906Z,1697901005152
0.09205548465251923,-0.011573448777198792,0.01982119493186474,2023-10-21T15:10:05.162122Z,1697901005162
0.10136745125055313,-0.013302815146744251,0.021816616877913475,2023-10-21T15:10:05.173193Z,1697901005173
0.08660132437944412,-0.01144042145460844,0.018623940646648407,2023-10-21T15:10:05.183836Z,1697901005183
0.07396364957094193,-0.00971105508506298,0.015963377431035042,2023-10-21T15:10:05.193236Z,1697901005193
0.06318837404251099,-0.008247745223343372,0.013568871654570103,2023-10-21T15:10:05.202702Z,1697901005202
0.053876399993896484,-0.0070504918694496155,0.011573448777198792,2023-10-21T15:10:05.217460Z,1697901005217
0.05999569594860077,-0.004389929119497538,0.0055871824733912945,2023-10-21T15:10:05.222948Z,1697901005222
0.06518379598855972,-0.002128450432792306,5.321126081980765E-4,2023-10-21T15:10:05.234098Z,1697901005234
0.05560576915740967,-0.0018623941577970982,3.990844707004726E-4,2023-10-21T15:10:05.243226Z,1697901005243
0.04749105125665665,-0.0015963378828018904,3.990844707004726E-4,2023-10-21T15:10:05.254274Z,1697901005254
0.04057358577847481,-0.0013302814913913608,2.6605630409903824E-4,2023-10-21T15:10:05.266919Z,1697901005266
0.04935344308614731,0.0027935912366956472,-0.006917464081197977,2023-10-21T15:10:05.274654Z,1697901005274
0.056669991463422775,0.006252323277294636,-0.013169786892831326,2023-10-21T15:10:05.283684Z,1697901005283
0.04842224717140198,0.005321125965565443,-0.011307393200695515,2023-10-21T15:10:05.294504Z,1697901005294
0.05307823419570923,0.0130367586389184,-0.014899153262376785,2023-10-21T15:10:05.304005Z,1697901005303
0.0570690780878067,0.019688166677951813,-0.017958801239728928,2023-10-21T15:10:05.317578Z,1697901005317
0.048821330070495605,0.016761546954512596,-0.015298237092792988,2023-10-21T15:10:05.324251Z,1697901005324
0.05547273904085159,0.026738658547401428,-0.025940489023923874,2023-10-21T15:10:05.335268Z,1697901005335
0.06119294837117195,0.0351194329559803,-0.034986402839422226,2023-10-21T15:10:05.344503Z,1697901005344
0.0521470345556736,0.030064363032579422,-0.029931334778666496,2023-10-21T15:10:05.355597Z,1697901005355
0.05374337360262871,0.03551851585507393,-0.04456442967057228,2023-10-21T15:10:05.366908Z,1697901005366
0.05520668253302574,0.04017450287938118,-0.0570690780878067,2023-10-21T15:10:05.375644Z,1697901005375
0.04709196463227272,0.03432126343250275,-0.04868830367922783,2023-10-21T15:10:05.385041Z,1697901005385
0.040307529270648956,0.029399221763014793,-0.041637811809778214,2023-10-21T15:10:05.395786Z,1697901005395
0.03432126343250275,0.025009293109178543,-0.03551851585507393,2023-10-21T15:10:05.405324Z,1697901005405
0.029399221763014793,0.021417532116174698,-0.030330419540405273,2023-10-21T15:10:05.416977Z,1697901005416
0.032192811369895935,0.035917602479457855,-0.0389772467315197,2023-10-21T15:10:05.425516Z,1697901005425
0.0345873199403286,0.0482892207801342,-0.046293795108795166,2023-10-21T15:10:05.436606Z,1697901005436
0.02953225001692772,0.041238728910684586,-0.0395093597471714,2023-10-21T15:10:05.445675Z,1697901005445
0.025275349617004395,0.03525245934724808,-0.033789150416851044,2023-10-21T15:10:05.456902Z,1697901005456
0.022348729893565178,0.029266193509101868,-0.0477571077644825,2023-10-21T15:10:05.466807Z,1697901005466
0.019954223185777664,0.02421112358570099,-0.05972963944077492,2023-10-21T15:10:05.476908Z,1697901005476
0.017027603462338448,0.020619364455342293,-0.05094978213310242,2023-10-21T15:10:05.486370Z,1697901005486
0.014633096754550934,0.01755971647799015,-0.043500207364559174,2023-10-21T15:10:05.497168Z,1697901005497
0.012504646554589272,0.015032181516289711,-0.03711485490202904,2023-10-21T15:10:05.506658Z,1697901005506
0.02261478640139103,0.023412954062223434,-0.039376333355903625,2023-10-21T15:10:05.517636Z,1697901005517
0.03139464557170868,0.03046344593167305,-0.041238728910684586,2023-10-21T15:10:05.526793Z,1697901005526
0.026871686801314354,0.0260735172778368,-0.03525245934724808,2023-10-21T15:10:05.537930Z,1697901005537
0.03711485490202904,0.027669856324791908,-0.040041472762823105,2023-10-21T15:10:05.550733Z,1697901005550
0.04589471220970154,0.029000137001276016,-0.04403231665492058,2023-10-21T15:10:05.557978Z,1697901005557
0.03924330323934555,0.02474323660135269,-0.03764696791768074,2023-10-21T15:10:05.567406Z,1697901005567
0.03352309390902519,0.021151475608348846,-0.032192811369895935,2023-10-21T15:10:05.578241Z,1697901005578
0.03392218053340912,0.01849091239273548,-0.045362599194049835,2023-10-21T15:10:05.587746Z,1697901005587
0.03432126343250275,0.016096405684947968,-0.056669991463422775,2023-10-21T15:10:05.600486Z,1697901005600
0.015963377431035042,0.004123872611671686,-0.05866541340947151,2023-10-21T15:10:05.607974Z,1697901005607
3.990844707004726E-4,-0.005986266769468784,-0.060394782572984695,2023-10-21T15:10:05.619007Z,1697901005618
-0.01849091239273548,-0.017160631716251373,-0.05547273904085159,2023-10-21T15:10:05.628063Z,1697901005628
-0.034720346331596375,-0.026605630293488503,-0.05121583864092827,2023-10-21T15:10:05.639273Z,1697901005639
-0.045362599194049835,-0.03272492438554764,-0.034720346331596375,2023-10-21T15:10:05.650085Z,1697901005650
-0.05440851300954819,-0.03791302442550659,-0.02075239084661007,2023-10-21T15:10:05.659275Z,1697901005659
-0.060128726065158844,-0.04363323375582695,-0.0029266192577779293,2023-10-21T15:10:05.668783Z,1697901005668
-0.06491773575544357,-0.04855527728796005,0.012371618300676346,2023-10-21T15:10:05.683438Z,1697901005683
-0.06811041384935379,-0.04922041669487953,0.022481758147478104,2023-10-21T15:10:05.689046Z,1697901005689
-0.0707709789276123,-0.04961949959397316,0.03112858720123768,2023-10-21T15:10:05.700423Z,1697901005700
-0.060394782572984695,-0.04243598133325577,0.026605630293488503,2023-10-21T15:10:05.709247Z,1697901005709
-0.07263337075710297,-0.036848798394203186,0.018357884138822556,2023-10-21T15:10:05.720280Z,1697901005720
-0.08300956338644028,-0.03205978497862816,0.01144042145460844,2023-10-21T15:10:05.729313Z,1697901005729
-0.08473893254995346,-0.024344151839613914,-0.0070504918694496155,2023-10-21T15:10:05.740549Z,1697901005740
-0.0862022414803505,-0.017692744731903076,-0.022747814655303955,2023-10-21T15:10:05.750261Z,1697901005750
-0.08606921136379242,-0.01223859004676342,-0.04057358577847481,2023-10-21T15:10:05.760608Z,1697901005760
-0.08593618869781494,-0.007582604885101318,-0.055738795548677444,2023-10-21T15:10:05.770080Z,1697901005770
-0.08473893254995346,-0.0039908443577587605,-0.0691746398806572,2023-10-21T15:10:05.783820Z,1697901005783
-0.08367470651865005,-0.001064225216396153,-0.08074808865785599,2023-10-21T15:10:05.790362Z,1697901005790
-0.08407378941774368,0.0017293660202994943,-0.0911242812871933,2023-10-21T15:10:05.801336Z,1697901005801
-0.08433984965085983,0.004256900865584612,-0.10003717243671417,2023-10-21T15:10:05.810529Z,1697901005810
-0.0883306935429573,0.00572021072730422,-0.10855097323656082,2023-10-21T15:10:05.821630Z,1697901005821
-0.09152337163686752,0.0070504918694496155,-0.11586751788854599,2023-10-21T15:10:05.833180Z,1697901005833
-0.09910597652196884,0.006252323277294636,-0.12225287407636642,2023-10-21T15:10:05.841643Z,1697901005841
-0.11786293983459473,0.004256900865584612,-0.14034469425678253,2023-10-21T15:10:05.851106Z,1697901005851
-0.1267758309841156,3.990844707004726E-4,-0.14420251548290253,2023-10-21T15:10:05.861919Z,1697901005861
-0.12198681384325027,-0.0017293660202994943,-0.13515660166740417,2023-10-21T15:10:05.871529Z,1697901005871
-0.133427232503891,-0.007316548377275467,-0.13435843586921692,2023-10-21T15:10:05.884115Z,1697901005884
-0.1432713270187378,-0.012105561792850494,-0.13382631540298462,2023-10-21T15:10:05.891705Z,1697901005891
-0.15138603746891022,-0.017160631716251373,-0.12930336594581604,2023-10-21T15:10:05.902741Z,1697901005902
-0.15830349922180176,-0.02168358862400055,-0.12544554471969604,2023-10-21T15:10:05.911852Z,1697901005911
-0.16109709441661835,-0.022215701639652252,-0.11932624876499176,2023-10-21T15:10:05.922914Z,1697901005922
-0.1636246293783188,-0.02261478640139103,-0.11400512605905533,2023-10-21T15:10:05.933232Z,1697901005933
-0.16216132044792175,-0.019688166677951813,-0.11294090002775192,2023-10-21T15:10:05.943007Z,1697901005942
-0.1608310341835022,-0.017160631716251373,-0.11214273422956467,2023-10-21T15:10:05.952433Z,1697901005952
-0.1547117382287979,-0.01144042145460844,-0.11613357812166214,2023-10-21T15:10:05.966947Z,1697901005966
-0.14965666830539703,-0.006651407573372126,-0.11945927888154984,2023-10-21T15:10:05.972712Z,1697901005972
-0.1394135057926178,1.3302815204951912E-4,-0.12544554471969604,2023-10-21T15:10:05.983844Z,1697901005983
-0.13076667487621307,0.005853238515555859,-0.1306336522102356,2023-10-21T15:10:05.992945Z,1697901005992
-0.11719780415296555,0.012371618300676346,-0.13688597083091736,2023-10-21T15:10:06.004014Z,1697901006003
-0.10562435537576675,0.017958801239728928,-0.1422071009874344,2023-10-21T15:10:06.016336Z,1697901006016
-0.08593618869781494,0.028468023985624313,-0.14579886198043823,2023-10-21T15:10:06.024060Z,1697901006024
-0.0691746398806572,0.037513937801122665,-0.14899152517318726,2023-10-21T15:10:06.033483Z,1697901006033
-0.043766263872385025,0.05094978213310242,-0.15444567799568176,2023-10-21T15:10:06.044322Z,1697901006044
-0.009578026831150055,0.07436273992061615,-0.17493201792240143,2023-10-21T15:10:06.053777Z,1697901006053
0.021151475608348846,0.08899583667516708,-0.18184947967529297,2023-10-21T15:10:06.066956Z,1697901006066
0.056004852056503296,0.1053582951426506,-0.19062934815883636,2023-10-21T15:10:06.074022Z,1697901006073
0.09631238132715225,0.12251892685890198,-0.2030009627342224,2023-10-21T15:10:06.084998Z,1697901006084
0.1438034325838089,0.13981258869171143,-0.22042764723300934,2023-10-21T15:10:06.094202Z,1697901006094
0.20007434487342834,0.15684019029140472,-0.24357454478740692,2023-10-21T15:10:06.105351Z,1697901006105
0.26579025387763977,0.17466595768928528,-0.27137744426727295,2023-10-21T15:10:06.116551Z,1697901006116
0.3402860164642334,0.19448715448379517,-0.3030381202697754,2023-10-21T15:10:06.125351Z,1697901006125
0.4194377660751343,0.21617074310779572,-0.3381575644016266,2023-10-21T15:10:06.134794Z,1697901006134
0.49699318408966064,0.237056165933609,-0.37740087509155273,2023-10-21T15:10:06.145972Z,1697901006145
0.5648375153541565,0.25222137570381165,-0.4209010601043701,2023-10-21T15:10:06.155057Z,1697901006155
0.61592036485672,0.2567443251609802,-0.46732789278030396,2023-10-21T15:10:06.165998Z,1697901006165
0.6466498374938965,0.24796447157859802,-0.5138877630233765,2023-10-21T15:10:06.175253Z,1697901006175
0.6568930149078369,0.22588180005550385,-0.5563237071037292,2023-10-21T15:10:06.186293Z,1697901006186
0.6501085758209229,0.1915605366230011,-0.5898468494415283,2023-10-21T15:10:06.195388Z,1697901006195
0.6312185525894165,0.14619794487953186,-0.610998272895813,2023-10-21T15:10:06.206665Z,1697901006206
0.6056771874427795,0.09152337163686752,-0.6172506213188171,2023-10-21T15:10:06.216203Z,1697901006216
0.5778743028640747,0.030596474185585976,-0.6075395941734314,2023-10-21T15:10:06.226615Z,1697901006226
0.5490071773529053,-0.03445428982377052,-0.5829293727874756,2023-10-21T15:10:06.236153Z,1697901006236
0.5184106826782227,-0.10296379029750824,-0.5463466048240662,2023-10-21T15:10:06.249970Z,1697901006249
0.4839564263820648,-0.1755971610546112,-0.49978676438331604,2023-10-21T15:10:06.256355Z,1697901006256
0.4444470703601837,-0.2540837824344635,-0.4440479576587677,2023-10-21T15:10:06.267342Z,1697901006267
0.3990844488143921,-0.3396208584308624,-0.3803274929523468,2023-10-21T15:10:06.276575Z,1697901006276
0.34999707341194153,-0.42994698882102966,-0.3106207251548767,2023-10-21T15:10:06.287726Z,1697901006287
0.30170783400535583,-0.5201400518417358,-0.23745524883270264,2023-10-21T15:10:06.299722Z,1697901006299
0.2590058147907257,-0.6054111123085022,-0.1641567349433899,2023-10-21T15:10:06.307762Z,1697901006307
0.22521665692329407,-0.6836316585540771,-0.09538118541240692,2023-10-21T15:10:06.317154Z,1697901006317
0.20180371403694153,-0.7533383965492249,-0.03551851585507393,2023-10-21T15:10:06.327925Z,1697901006327
0.1877027153968811,-0.8141322731971741,0.011706477031111717,2023-10-21T15:10:06.337482Z,1697901006337
0.1805192083120346,-0.8682747483253479,0.04416534677147865,2023-10-21T15:10:06.349977Z,1697901006349
0.17719349265098572,-0.9177612066268921,0.06292231380939484,2023-10-21T15:10:06.357712Z,1697901006357
0.17479899525642395,-0.9649862051010132,0.07170217484235764,2023-10-21T15:10:06.368671Z,1697901006368
0.1717393398284912,-1.011546015739441,0.07396364957094193,2023-10-21T15:10:06.377865Z,1697901006377
0.16695033013820648,-1.0578398704528809,0.07329851388931274,2023-10-21T15:10:06.388964Z,1697901006388
0.15936772525310516,-1.1038676500320435,0.0707709789276123,2023-10-21T15:10:06.399336Z,1697901006399
0.1476612538099289,-1.1502944231033325,0.06651407480239868,2023-10-21T15:10:06.409044Z,1697901006408
0.1306336522102356,-1.1967213153839111,0.06079386547207832,2023-10-21T15:10:06.418505Z,1697901006418
0.10855097323656082,-1.241817831993103,0.055073656141757965,2023-10-21T15:10:06.432941Z,1697901006432
0.08128020167350769,-1.285850167274475,0.049752529710531235,2023-10-21T15:10:06.438752Z,1697901006438
0.04589471220970154,-1.3320108652114868,0.04150478169322014,2023-10-21T15:10:06.450061Z,1697901006450
1.3302815204951912E-4,-1.3821624517440796,0.028068939223885536,2023-10-21T15:10:06.459007Z,1697901006458
-0.05680302157998085,-1.4348416328430176,0.009311970323324203,2023-10-21T15:10:06.470029Z,1697901006470
-0.12478040903806686,-1.4888510704040527,-0.01476612500846386,2023-10-21T15:10:06.482962Z,1697901006482
-0.20233581960201263,-1.5435256958007812,-0.04363323375582695,2023-10-21T15:10:06.490078Z,1697901006490
-0.2876068651676178,-1.5976680517196655,-0.07476182281970978,2023-10-21T15:10:06.499563Z,1697901006499
-0.37793296575546265,-1.6512784957885742,-0.1048261821269989,2023-10-21T15:10:06.510330Z,1697901006510
-0.4714517593383789,-1.7072832584381104,-0.13156484067440033,2023-10-21T15:10:06.519898Z,1697901006519
-0.5651035904884338,-1.768742322921753,-0.15351448953151703,2023-10-21T15:10:06.533116Z,1697901006533
-0.6546315550804138,-1.8347243070602417,-0.16814757883548737,2023-10-21T15:10:06.540053Z,1697901006540
-0.7355126738548279,-1.9029676914215088,-0.172404482960701,2023-10-21T15:10:06.551032Z,1697901006550
-0.80734783411026,-1.972009301185608,-0.1678815335035324,2023-10-21T15:10:06.560253Z,1697901006560
-0.8726646900177002,-2.0413169860839844,-0.1597668081521988,2023-10-21T15:10:06.571386Z,1697901006571
-0.9361190795898438,-2.1102256774902344,-0.1553768813610077,2023-10-21T15:10:06.582721Z,1697901006582
-1.0021010637283325,-2.177670955657959,-0.16123011708259583,2023-10-21T15:10:06.591542Z,1697901006591
-1.0744683742523193,-2.2423224449157715,-0.18211553990840912,2023-10-21T15:10:06.600873Z,1697901006600
-1.155881643295288,-2.3027172088623047,-0.22149187326431274,2023-10-21T15:10:06.611704Z,1697901006611
-1.2475379705429077,-2.358323097229004,-0.28122150897979736,2023-10-21T15:10:06.621208Z,1697901006621
-1.3482403755187988,-2.4090068340301514,-0.36143749952316284,2023-10-21T15:10:06.632966Z,1697901006632
-1.4542638063430786,-2.4550344944000244,-0.45921316742897034,2023-10-21T15:10:06.641344Z,1697901006641
-1.560420274734497,-2.496539354324341,-0.5698925852775574,2023-10-21T15:10:06.652477Z,1697901006652
-1.6604573726654053,-2.5327229499816895,-0.6868243217468262,2023-10-21T15:10:06.661570Z,1697901006661
-1.747856855392456,-2.5615901947021484,-0.8025588393211365,2023-10-21T15:10:06.672649Z,1697901006672
-1.819559097290039,-2.583007574081421,-0.9133712649345398,2023-10-21T15:10:06.682721Z,1697901006682
-1.8776923418045044,-2.5996360778808594,-1.0196608304977417,2023-10-21T15:10:06.692746Z,1697901006692
-1.9258486032485962,-2.6120078563690186,-1.1230236291885376,2023-10-21T15:10:06.702186Z,1697901006702
-1.9654909372329712,-2.618260145187378,-1.2234599590301514,2023-10-21T15:10:06.716333Z,1697901006716
-1.9971516132354736,-2.616264581680298,-1.320570468902588,2023-10-21T15:10:06.722442Z,1697901006722
-2.0212297439575195,-2.6056225299835205,-1.4148874282836914,2023-10-21T15:10:06.733828Z,1697901006733
-2.0347986221313477,-2.5856680870056152,-1.5044153928756714,2023-10-21T15:10:06.742647Z,1697901006742
-2.0337343215942383,-2.554938793182373,-1.5863606929779053,2023-10-21T15:10:06.753783Z,1697901006753
-2.014179229736328,-2.5130348205566406,-1.6588610410690308,2023-10-21T15:10:06.766194Z,1697901006766
-1.9721423387527466,-2.4582271575927734,-1.7199209928512573,2023-10-21T15:10:06.773813Z,1697901006773
-1.9056283235549927,-2.387988328933716,-1.7684762477874756,2023-10-21T15:10:06.783208Z,1697901006783
-1.8153021335601807,-2.3023183345794678,-1.8049259185791016,2023-10-21T15:10:06.794019Z,1697901006793
-1.7055538892745972,-2.204143524169922,-1.8308664560317993,2023-10-21T15:10:06.803530Z,1697901006803
-1.5821038484573364,-2.0986521244049072,-1.8478940725326538,2023-10-21T15:10:06.816239Z,1697901006816
-1.4512040615081787,-1.9915645122528076,-1.8573390245437622,2023-10-21T15:10:06.823728Z,1697901006823
-1.318708062171936,-1.8897979259490967,-1.861063838005066,2023-10-21T15:10:06.834724Z,1697901006834
-1.188340425491333,-1.7978755235671997,-1.858802318572998,2023-10-21T15:10:06.843937Z,1697901006843
-1.0624958276748657,-1.7180585861206055,-1.8498895168304443,2023-10-21T15:10:06.855019Z,1697901006854
-0.9434356689453125,-1.6526087522506714,-1.8351233005523682,2023-10-21T15:10:06.865784Z,1697901006865
-0.8322241306304932,-1.6005947589874268,-1.8162333965301514,2023-10-21T15:10:06.875075Z,1697901006875
-0.7276639938354492,-1.5584248304367065,-1.7942837476730347,2023-10-21T15:10:06.884562Z,1697901006884
-0.6273607611656189,-1.521975040435791,-1.7684762477874756,2023-10-21T15:10:06.895520Z,1697901006895
-0.5285208225250244,-1.4876538515090942,-1.738278865814209,2023-10-21T15:10:06.904862Z,1697901006904
-0.4270203709602356,-1.4517362117767334,-1.7030264139175415,2023-10-21T15:10:06.916573Z,1697901006916
-0.3187354505062103,-1.4106305837631226,-1.6629849672317505,2023-10-21T15:10:06.924998Z,1697901006924
-0.20220279693603516,-1.3635385036468506,-1.620948076248169,2023-10-21T15:10:06.936137Z,1697901006936
-0.07728935778141022,-1.3099281787872314,-1.5797092914581299,2023-10-21T15:10:06.945205Z,1697901006945
0.05560576915740967,-1.2467398643493652,-1.5401999950408936,2023-10-21T15:10:06.956480Z,1697901006956
0.19448715448379517,-1.1710468530654907,-1.5016217231750488,2023-10-21T15:10:06.966174Z,1697901006966
0.333634614944458,-1.0844454765319824,-1.464107871055603,2023-10-21T15:10:06.976394Z,1697901006976
0.4642682373523712,-0.9954496622085571,-1.4284563064575195,2023-10-21T15:10:06.985926Z,1697901006985
0.5789385437965393,-0.9137703776359558,-1.3957313299179077,2023-10-21T15:10:07.000136Z,1697901007000
0.6748518347740173,-0.8444626927375793,-1.3659330606460571,2023-10-21T15:10:07.006135Z,1697901007006
0.7529393434524536,-0.7865954637527466,-1.3385292291641235,2023-10-21T15:10:07.017049Z,1697901007017
0.8167928457260132,-0.7357786893844604,-1.3129878044128418,2023-10-21T15:10:07.026281Z,1697901007026
0.8706692457199097,-0.6860261559486389,-1.2889097929000854,2023-10-21T15:10:07.037398Z,1697901007037
0.9188254475593567,-0.6316176652908325,-1.2662949562072754,2023-10-21T15:10:07.049020Z,1697901007048
0.9639219641685486,-0.5694935321807861,-1.2458086013793945,2023-10-21T15:10:07.057435Z,1697901007057
1.0051606893539429,-0.5017821788787842,-1.2281159162521362,2023-10-21T15:10:07.066894Z,1697901007066
1.0392159223556519,-0.43433693051338196,-1.213216781616211,2023-10-21T15:10:07.077739Z,1697901007077
1.0622297525405884,-0.37460726499557495,-1.2007120847702026,2023-10-21T15:10:07.087247Z,1697901007087
1.0712757110595703,-0.32698318362236023,-1.1903358697891235,2023-10-21T15:10:07.099471Z,1697901007099
1.0666197538375854,-0.29013440012931824,-1.1808909177780151,2023-10-21T15:10:07.107525Z,1697901007107
1.0498582124710083,-0.2614003121852875,-1.171312928199768,2023-10-21T15:10:07.118438Z,1697901007118
1.0221883058547974,-0.2421112358570099,-1.1621339321136475,2023-10-21T15:10:07.127652Z,1697901007127
0.9846743941307068,-0.23519377410411835,-1.1542853116989136,2023-10-21T15:10:07.138775Z,1697901007138
0.9402430057525635,-0.23958370089530945,-1.1475008726119995,2023-10-21T15:10:07.149328Z,1697901007149
0.8919537663459778,-0.2512901723384857,-1.140051245689392,2023-10-21T15:10:07.158739Z,1697901007158
0.8428663611412048,-0.26592326164245605,-1.1306062936782837,2023-10-21T15:10:07.168223Z,1697901007168
0.7944441437721252,-0.2788270115852356,-1.1191658973693848,2023-10-21T15:10:07.182742Z,1697901007182
0.7464209794998169,-0.28667566180229187,-1.1067942380905151,2023-10-21T15:10:07.188507Z,1697901007188
0.696402370929718,-0.2907995283603668,-1.0954868793487549,2023-10-21T15:10:07.199453Z,1697901007199
0.6426590085029602,-0.2937261462211609,-1.085642695426941,2023-10-21T15:10:07.208703Z,1697901007208
0.5857229828834534,-0.2957215905189514,-1.0757986307144165,2023-10-21T15:10:07.219772Z,1697901007219
0.5279887318611145,-0.2990472912788391,-1.063560128211975,2023-10-21T15:10:07.232013Z,1697901007231
0.4713187515735626,-0.3090243935585022,-1.0471975803375244,2023-10-21T15:10:07.239802Z,1697901007239
0.4175753593444824,-0.32911163568496704,-1.0265783071517944,2023-10-21T15:10:07.249253Z,1697901007249
0.3687540292739868,-0.3569145202636719,-1.0023671388626099,2023-10-21T15:10:07.260092Z,1697901007260
0.32525384426116943,-0.3884422183036804,-0.9753624200820923,2023-10-21T15:10:07.269575Z,1697901007269
0.28574445843696594,-0.4236946702003479,-0.9466283321380615,2023-10-21T15:10:07.282940Z,1697901007282
0.24769842624664307,-0.4644012749195099,-0.9160318374633789,2023-10-21T15:10:07.290014Z,1697901007289
0.20925328135490417,-0.5093647837638855,-0.882774829864502,2023-10-21T15:10:07.300990Z,1697901007300
0.17000998556613922,-0.5576540231704712,-0.8456599712371826,2023-10-21T15:10:07.310114Z,1697901007310
0.13023455440998077,-0.6131267547607422,-0.8037561178207397,2023-10-21T15:10:07.321303Z,1697901007321
0.09032611548900604,-0.6829665303230286,-0.7573292851448059,2023-10-21T15:10:07.332256Z,1697901007332
0.051614921540021896,-0.7687696814537048,-0.7079758048057556,2023-10-21T15:10:07.341315Z,1697901007341
0.01569732278585434,-0.8626875877380371,-0.6584893465042114,2023-10-21T15:10:07.350700Z,1697901007350
-0.016096405684947968,-0.9520824551582336,-0.6116634607315063,2023-10-21T15:10:07.361585Z,1697901007361
-0.04416534677147865,-1.027775526046753,-0.5694935321807861,2023-10-21T15:10:07.370932Z,1697901007370
-0.07050491869449615,-1.089234471321106,-0.5321125984191895,2023-10-21T15:10:07.382862Z,1697901007382
-0.09764266014099121,-1.1416475772857666,-0.4984564781188965,2023-10-21T15:10:07.391142Z,1697901007391
-0.12650977075099945,-1.1886065006256104,-0.46679577231407166,2023-10-21T15:10:07.401936Z,1697901007401
-0.15657413005828857,-1.231441617012024,-0.4356671869754791,2023-10-21T15:10:07.411457Z,1697901007411
-0.1861063838005066,-1.2704188823699951,-0.40413951873779297,2023-10-21T15:10:07.422266Z,1697901007422
-0.21390926837921143,-1.3071346282958984,-0.37301093339920044,2023-10-21T15:10:07.431617Z,1697901007431
-0.23891855776309967,-1.342387080192566,-0.344542920589447,2023-10-21T15:10:07.442474Z,1697901007442
-0.2591388523578644,-1.3699239492416382,-0.32086390256881714,2023-10-21T15:10:07.451913Z,1697901007451
-0.2723086178302765,-1.3755110502243042,-0.30370327830314636,2023-10-21T15:10:07.466211Z,1697901007466
-0.2776297628879547,-1.3473091125488281,-0.29292798042297363,2023-10-21T15:10:07.472239Z,1697901007472
-0.2766985595226288,-1.288643717765808,-0.2876068651676178,2023-10-21T15:10:07.483464Z,1697901007483
-0.2727077007293701,-1.215611219406128,-0.2860105335712433,2023-10-21T15:10:07.492502Z,1697901007492
-0.2677856683731079,-1.1435099840164185,-0.28680869936943054,2023-10-21T15:10:07.503354Z,1697901007503
-0.2623315155506134,-1.0776610374450684,-0.2882719933986664,2023-10-21T15:10:07.515617Z,1697901007515
-0.25594615936279297,-1.0156699419021606,-0.2892031967639923,2023-10-21T15:10:07.523582Z,1697901007523
-0.24823053181171417,-0.952348530292511,-0.28893715143203735,2023-10-21T15:10:07.532998Z,1697901007532
-0.2403818666934967,-0.8878298997879028,-0.2885380685329437,2023-10-21T15:10:07.543783Z,1697901007543
-0.21936342120170593,-0.793246865272522,-0.2673865854740143,2023-10-21T15:10:07.553253Z,1697901007553
-0.21337716281414032,-0.7388383746147156,-0.27310678362846375,2023-10-21T15:10:07.565045Z,1697901007565
-0.20832209289073944,-0.6924115419387817,-0.27802884578704834,2023-10-21T15:10:07.573572Z,1697901007573
-0.19967526197433472,-0.6360076069831848,-0.28507933020591736,2023-10-21T15:10:07.584289Z,1697901007584
-0.19235870242118835,-0.5877183675765991,-0.29106560349464417,2023-10-21T15:10:07.593595Z,1697901007593
-0.16428977251052856,-0.5017821788787842,-0.2486296147108078,2023-10-21T15:10:07.605007Z,1697901007604
-0.15737231075763702,-0.4790343642234802,-0.2844142019748688,2023-10-21T15:10:07.615184Z,1697901007615
-0.1515190601348877,-0.45961228013038635,-0.315010666847229,2023-10-21T15:10:07.624813Z,1697901007624
-0.12943638861179352,-0.3924330472946167,-0.2689829170703888,2023-10-21T15:10:07.634305Z,1697901007634
-0.11054639518260956,-0.3352309465408325,-0.22973962128162384,2023-10-21T15:10:07.649176Z,1697901007649
-0.09444998949766159,-0.28627657890319824,-0.19621652364730835,2023-10-21T15:10:07.654585Z,1697901007654
-0.09139034152030945,-0.34667137265205383,-0.26645538210868835,2023-10-21T15:10:07.665385Z,1697901007665
-0.09950505942106247,-0.44484615325927734,-0.34041905403137207,2023-10-21T15:10:07.674782Z,1697901007674
-0.10895005613565445,-0.48262614011764526,-0.31687304377555847,2023-10-21T15:10:07.686056Z,1697901007686
-0.12198681384325027,-0.5323786735534668,-0.29346010088920593,2023-10-21T15:10:07.698536Z,1697901007698
-0.1371520310640335,-0.5881174802780151,-0.270712286233902,2023-10-21T15:10:07.705859Z,1697901007705
-0.15298236906528473,-0.6397323608398438,-0.24956081807613373,2023-10-21T15:10:07.715342Z,1697901007715
-0.16841363906860352,-0.6759160161018372,-0.23080384731292725,2023-10-21T15:10:07.726144Z,1697901007726
-0.18397793173789978,-0.689085841178894,-0.21537257730960846,2023-10-21T15:10:07.735647Z,1697901007735
-0.2008725106716156,-0.6811041235923767,-0.2030009627342224,2023-10-21T15:10:07.748798Z,1697901007748
-0.2194964438676834,-0.6588884592056274,-0.19249173998832703,2023-10-21T15:10:07.755898Z,1697901007755
-0.23745524883270264,-0.6294892430305481,-0.1827806830406189,2023-10-21T15:10:07.766743Z,1697901007766
-0.2512901723384857,-0.5946358442306519,-0.17333568632602692,2023-10-21T15:10:07.776116Z,1697901007776
-0.2586067318916321,-0.552332878112793,-0.16402371227741241,2023-10-21T15:10:07.787006Z,1697901007786
-0.24157913029193878,-0.4902087450027466,-0.14779427647590637,2023-10-21T15:10:07.798568Z,1697901007798
-0.23798736929893494,-0.4358002245426178,-0.1388813853263855,2023-10-21T15:10:07.807246Z,1697901007807
-0.2349277138710022,-0.38937339186668396,-0.1311657577753067,2023-10-21T15:10:07.816662Z,1697901007816
-0.22521665692329407,-0.33829060196876526,-0.12118864804506302,2023-10-21T15:10:07.827449Z,1697901007827
-0.2168358862400055,-0.2946573495864868,-0.11267484724521637,2023-10-21T15:10:07.836974Z,1697901007836
-0.20951934158802032,-0.27629947662353516,-0.10017019510269165,2023-10-21T15:10:07.848607Z,1697901007848
-0.21763405203819275,-0.2991803288459778,-0.08686738461256027,2023-10-21T15:10:07.857169Z,1697901007857
-0.21484047174453735,-0.3523915708065033,-0.0653168261051178,2023-10-21T15:10:07.868096Z,1697901007868
-0.2107165902853012,-0.4326075613498688,-0.03977541625499725,2023-10-21T15:10:07.877318Z,1697901007877
-0.20127159357070923,-0.5241309404373169,-0.012105561792850494,2023-10-21T15:10:07.888347Z,1697901007888
-0.1843770146369934,-0.614590048789978,0.015298237092792988,2023-10-21T15:10:07.898208Z,1697901007898
-0.16043195128440857,-0.6954711675643921,0.03964238986372948,2023-10-21T15:10:07.908508Z,1697901007908
-0.13023455440998077,-0.7537375092506409,0.060128726065158844,2023-10-21T15:10:07.917990Z,1697901007917
-0.09418392926454544,-0.7739577889442444,0.07715632766485214,2023-10-21T15:10:07.932426Z,1697901007932
-0.05400943011045456,-0.7506778836250305,0.09139034152030945,2023-10-21T15:10:07.938235Z,1697901007938
-0.014100983738899231,-0.6925445795059204,0.10309682041406631,2023-10-21T15:10:07.949067Z,1697901007949
0.004922041669487953,-0.6088698506355286,0.10056928545236588,2023-10-21T15:10:07.958457Z,1697901007958
0.036848798394203186,-0.5285208225250244,0.1136060431599617,2023-10-21T15:10:07.969398Z,1697901007969
0.06411956995725632,-0.4598783254623413,0.12464737892150879,2023-10-21T15:10:07.981586Z,1697901007981
0.07888569682836533,-0.3990844488143921,0.13848230242729187,2023-10-21T15:10:07.989564Z,1697901007989
0.10056928545236588,-0.3539879024028778,0.16748245060443878,2023-10-21T15:10:07.999001Z,1697901007998
0.09511512517929077,-0.30915743112564087,0.16003286838531494,2023-10-21T15:10:08.009848Z,1697901008009
0.10469315201044083,-0.2619324326515198,0.17253752052783966,2023-10-21T15:10:08.019345Z,1697901008019
0.11294090002775192,-0.22149187326431274,0.18304674327373505,2023-10-21T15:10:08.032429Z,1697901008032
0.1355556845664978,-0.13183090090751648,0.18983116745948792,2023-10-21T15:10:08.039563Z,1697901008039
0.1799870878458023,-0.011839505285024643,0.2096523642539978,2023-10-21T15:10:08.050467Z,1697901008050
0.20792299509048462,0.08034900575876236,0.20606060326099396,2023-10-21T15:10:08.059781Z,1697901008059
0.2382534146308899,0.16375765204429626,0.2024688422679901,2023-10-21T15:10:08.070723Z,1697901008070
0.2689829170703888,0.23333138227462769,0.20113857090473175,2023-10-21T15:10:08.081931Z,1697901008081
0.2979830503463745,0.2800242602825165,0.20273490250110626,2023-10-21T15:10:08.090896Z,1697901008090
0.32299235463142395,0.2995794117450714,0.20712482929229736,2023-10-21T15:10:08.100374Z,1697901008100
0.3425475060939789,0.29984545707702637,0.2145744115114212,2023-10-21T15:10:08.114918Z,1697901008114
0.35651543736457825,0.2969188392162323,0.2245515137910843,2023-10-21T15:10:08.120654Z,1697901008120
0.3655613660812378,0.30277207493782043,0.23585891723632812,2023-10-21T15:10:08.132130Z,1697901008132
0.37088248133659363,0.32019877433776855,0.24729932844638824,2023-10-21T15:10:08.140852Z,1697901008140
0.37394213676452637,0.35039615631103516,0.2584736943244934,2023-10-21T15:10:08.151931Z,1697901008151
0.37726783752441406,0.39482754468917847,0.2699141204357147,2023-10-21T15:10:08.161045Z,1697901008161
0.3829880356788635,0.4517636001110077,0.28175362944602966,2023-10-21T15:10:08.172056Z,1697901008172
0.39376333355903625,0.5161492228507996,0.29385918378829956,2023-10-21T15:10:08.181916Z,1697901008181
0.4122542440891266,0.5847917795181274,0.30716201663017273,2023-10-21T15:10:08.192242Z,1697901008192
0.44045621156692505,0.6566269397735596,0.3221941888332367,2023-10-21T15:10:08.201692Z,1697901008201
0.4790343642234802,0.730058491230011,0.33829060196876526,2023-10-21T15:10:08.215512Z,1697901008215
0.5270575284957886,0.8016276359558105,0.3541209399700165,2023-10-21T15:10:08.221952Z,1697901008221
0.5830624103546143,0.8694720268249512,0.36915311217308044,2023-10-21T15:10:08.232758Z,1697901008232
0.645452618598938,0.9330594539642334,0.3825889527797699,2023-10-21T15:10:08.242136Z,1697901008242
0.711434543132782,0.9922569990158081,0.3945614993572235,2023-10-21T15:10:08.253069Z,1697901008253
0.7791458964347839,1.0513215065002441,0.4056028425693512,2023-10-21T15:10:08.265062Z,1697901008265
0.8469902276992798,1.1163722276687622,0.4161120653152466,2023-10-21T15:10:08.273283Z,1697901008273
0.9133712649345398,1.1906019449234009,0.4270203709602356,2023-10-21T15:10:08.282716Z,1697901008282
0.9760275483131409,1.2688225507736206,0.4385938048362732,2023-10-21T15:10:08.293575Z,1697901008293
1.0321654081344604,1.3394604921340942,0.4505663514137268,2023-10-21T15:10:08.303018Z,1697901008302
1.0807206630706787,1.3926717042922974,0.46293798089027405,2023-10-21T15:10:08.315379Z,1697901008315
1.123289704322815,1.4303187131881714,0.47504353523254395,2023-10-21T15:10:08.323257Z,1697901008323
1.163331151008606,1.4635757207870483,0.4868830442428589,2023-10-21T15:10:08.334145Z,1697901008334
1.2032396793365479,1.5030851364135742,0.4973922669887543,2023-10-21T15:10:08.343486Z,1697901008343
1.2444783449172974,1.553635835647583,0.5048418641090393,2023-10-21T15:10:08.354430Z,1697901008354
1.2875795364379883,1.6188195943832397,0.5075023770332336,2023-10-21T15:10:08.364733Z,1697901008364
1.3330751657485962,1.7055538892745972,0.5040436387062073,2023-10-21T15:10:08.374578Z,1697901008374
1.3810982704162598,1.8178297281265259,0.4940665662288666,2023-10-21T15:10:08.384184Z,1697901008384
1.4295204877853394,1.950591802597046,0.47836923599243164,2023-10-21T15:10:08.398424Z,1697901008398
1.4754152297973633,2.092000722885132,0.4577498733997345,2023-10-21T15:10:08.404426Z,1697901008404
1.5178512334823608,2.238996744155884,0.43287360668182373,2023-10-21T15:10:08.415232Z,1697901008415
1.5589568614959717,2.3994288444519043,0.4033413529396057,2023-10-21T15:10:08.424527Z,1697901008424
1.5993974208831787,2.577287435531616,0.36808890104293823,2023-10-21T15:10:08.435573Z,1697901008435
1.6362463235855103,2.762462615966797,0.326185017824173,2023-10-21T15:10:08.447982Z,1697901008447
1.6635169982910156,2.934601068496704,0.27802884578704834,2023-10-21T15:10:08.455642Z,1697901008455
1.6768198013305664,3.0754778385162354,0.2266799658536911,2023-10-21T15:10:08.465096Z,1697901008465
1.6730951070785522,3.172854423522949,0.1773265302181244,2023-10-21T15:10:08.475881Z,1697901008475
1.648750901222229,3.2119648456573486,0.13701899349689484,2023-10-21T15:10:08.485410Z,1697901008485
1.5995304584503174,3.1779096126556396,0.11280786991119385,2023-10-21T15:10:08.498339Z,1697901008498
1.5210438966751099,3.061243772506714,0.1097482219338417,2023-10-21T15:10:08.505641Z,1697901008505
1.411029577255249,2.862100601196289,0.12877124547958374,2023-10-21T15:10:08.516603Z,1697901008516
1.2698867321014404,2.5919206142425537,0.1662851870059967,2023-10-21T15:10:08.525804Z,1697901008525
1.100009799003601,2.267331838607788,0.21617074310779572,2023-10-21T15:10:08.536869Z,1697901008536
0.908183217048645,1.9136099815368652,0.2716434895992279,2023-10-21T15:10:08.547951Z,1697901008547
0.7058473825454712,1.560420274734497,0.32751530408859253,2023-10-21T15:10:08.556969Z,1697901008556
0.5084335803985596,1.235565423965454,0.3793962895870209,2023-10-21T15:10:08.566431Z,1697901008566
0.3319052457809448,0.9616605043411255,0.4242267906665802,2023-10-21T15:10:08.577218Z,1697901008577
0.19036328792572021,0.7546687126159668,0.4605434536933899,2023-10-21T15:10:08.586720Z,1697901008586
0.09405090659856796,0.6243011355400085,0.4883463382720947,2023-10-21T15:10:08.598285Z,1697901008598
0.04762407764792442,0.5730853080749512,0.5073693990707397,2023-10-21T15:10:08.606960Z,1697901008606
0.04988555610179901,0.5953009724617004,0.5162822604179382,2023-10-21T15:10:08.617992Z,1697901008617
0.09152337163686752,0.6744527220726013,0.5126904845237732,2023-10-21T15:10:08.627105Z,1697901008627
0.15763835608959198,0.7885909080505371,0.4956628978252411,2023-10-21T15:10:08.638206Z,1697901008638
0.23452863097190857,0.9216190576553345,0.46573156118392944,2023-10-21T15:10:08.647832Z,1697901008647
0.31434550881385803,1.0684821605682373,0.4242267906665802,2023-10-21T15:10:08.658286Z,1697901008658
0.39163488149642944,1.2242580652236938,0.37247881293296814,2023-10-21T15:10:08.667776Z,1697901008667
0.4589471220970154,1.3767083883285522,0.3106207251548767,2023-10-21T15:10:08.681414Z,1697901008681
0.5083005428314209,1.5102685689926147,0.23945067822933197,2023-10-21T15:10:08.688033Z,1697901008688
0.5358374118804932,1.6156269311904907,0.16162919998168945,2023-10-21T15:10:08.698920Z,1697901008698
0.5444841980934143,1.692783236503601,0.0823444277048111,2023-10-21T15:10:08.708244Z,1697901008708
0.54182368516922,1.7502514123916626,0.007183520123362541,2023-10-21T15:10:08.719261Z,1697901008719
0.5347731709480286,1.7953479290008545,-0.060128726065158844,2023-10-21T15:10:08.731221Z,1697901008731
0.5267914533615112,1.8300682306289673,-0.1169317439198494,2023-10-21T15:10:08.739368Z,1697901008739
0.5192088484764099,1.8525500297546387,-0.16096405684947968,2023-10-21T15:10:08.748804Z,1697901008748
0.5137547254562378,1.861862063407898,-0.19089539349079132,2023-10-21T15:10:08.759620Z,1697901008759
0.5116262435913086,1.85960054397583,-0.20645968616008759,2023-10-21T15:10:08.769105Z,1697901008769
0.5120253562927246,1.8477610349655151,-0.20872117578983307,2023-10-21T15:10:08.781763Z,1697901008781
0.5128235220909119,1.8276737928390503,-0.19834497570991516,2023-10-21T15:10:08.789342Z,1697901008789
0.5129565596580505,1.802797555923462,-0.1745329350233078,2023-10-21T15:10:08.800329Z,1697901008800
0.5153510570526123,1.777921199798584,-0.1366199105978012,2023-10-21T15:10:08.809615Z,1697901008809
0.5241309404373169,1.7558386325836182,-0.08593618869781494,2023-10-21T15:10:08.820653Z,1697901008820
0.5427548885345459,1.738278865814209,-0.02700471505522728,2023-10-21T15:10:08.831312Z,1697901008831
0.5730853080749512,1.7280356884002686,0.03299098089337349,2023-10-21T15:10:08.840707Z,1697901008840
0.6151221990585327,1.7289669513702393,0.08633527159690857,2023-10-21T15:10:08.850120Z,1697901008850
0.6670031547546387,1.741471529006958,0.12757399678230286,2023-10-21T15:10:08.865046Z,1697901008865
0.7236731648445129,1.7602285146713257,0.1525832861661911,2023-10-21T15:10:08.870364Z,1697901008870
0.7802101373672485,1.7783203125,0.15817047655582428,2023-10-21T15:10:08.881672Z,1697901008881
0.8331553339958191,1.7920222282409668,0.14313828945159912,2023-10-21T15:10:08.890601Z,1697901008890
0.8819766640663147,1.8000038862228394,0.11001428216695786,2023-10-21T15:10:08.901656Z,1697901008901
0.9261419773101807,1.799604892730713,0.06757830083370209,2023-10-21T15:10:08.914805Z,1697901008914
0.9637889862060547,1.786967158317566,0.028734080493450165,2023-10-21T15:10:08.921790Z,1697901008921
0.9915918707847595,1.7586321830749512,0.007449576631188393,2023-10-21T15:10:08.931393Z,1697901008931
1.0062249898910522,1.7139346599578857,0.01569732278585434,2023-10-21T15:10:08.942012Z,1697901008941
1.004495620727539,1.6539390087127686,0.06265626102685928,2023-10-21T15:10:08.951581Z,1697901008951
0.9828119874000549,1.580108404159546,0.15284934639930725,2023-10-21T15:10:08.965052Z,1697901008965
0.9410411715507507,1.4947043657302856,0.2772306799888611,2023-10-21T15:10:08.971690Z,1697901008971
0.8841050863265991,1.4034470319747925,0.41398361325263977,2023-10-21T15:10:08.982625Z,1697901008982
0.8193203806877136,1.3135199546813965,0.533708930015564,2023-10-21T15:10:08.991918Z,1697901008991
0.7513430118560791,1.2301113605499268,0.6121955513954163,2023-10-21T15:10:09.002937Z,1697901009002
0.6816362738609314,1.1530879735946655,0.6392002701759338,2023-10-21T15:10:09.014336Z,1697901009014
0.6121955513954163,1.078592300415039,0.6157873272895813,2023-10-21T15:10:09.023006Z,1697901009022
0.544617235660553,1.003298282623291,0.5560576915740967,2023-10-21T15:10:09.032531Z,1697901009032
0.47876831889152527,0.9268071055412292,0.48222705721855164,2023-10-21T15:10:09.043382Z,1697901009043
0.41677719354629517,0.8521783351898193,0.42608916759490967,2023-10-21T15:10:09.052796Z,1697901009052
0.36755678057670593,0.785930335521698,0.42010289430618286,2023-10-21T15:10:09.064626Z,1697901009064
0.3414832651615143,0.7351135611534119,0.48169493675231934,2023-10-21T15:10:09.072972Z,1697901009072
0.3412172198295593,0.7023886442184448,0.6047459840774536,2023-10-21T15:10:09.084063Z,1697901009084
0.36183658242225647,0.6864252686500549,0.7602558732032776,2023-10-21T15:10:09.093205Z,1697901009093
0.3946945369243622,0.6830995678901672,0.9139034152030945,2023-10-21T15:10:09.104333Z,1697901009104
0.42994698882102966,0.6846958994865417,1.034559965133667,2023-10-21T15:10:09.114448Z,1697901009114
0.4560205042362213,0.6804389953613281,1.099211573600769,2023-10-21T15:10:09.124375Z,1697901009124
0.4648003578186035,0.6623471975326538,1.096418023109436,2023-10-21T15:10:09.133829Z,1697901009133
0.4550893008708954,0.6297552585601807,1.0261791944503784,2023-10-21T15:10:09.144642Z,1697901009144
0.43553417921066284,0.5885165333747864,0.903261125087738,2023-10-21T15:10:09.154085Z,1697901009154
0.4183735251426697,0.5468787550926208,0.7496136426925659,2023-10-21T15:10:09.164976Z,1697901009164
0.41305240988731384,0.5108280777931213,0.586388111114502,2023-10-21T15:10:09.174302Z,1697901009174
0.42169925570487976,0.4808967709541321,0.42728641629219055,2023-10-21T15:10:09.185341Z,1697901009185
0.43819472193717957,0.4529608488082886,0.2794921398162842,2023-10-21T15:10:09.197559Z,1697901009197
0.4544241726398468,0.4236946702003479,0.14806033670902252,2023-10-21T15:10:09.205404Z,1697901009205
0.46506643295288086,0.39323121309280396,0.03804605081677437,2023-10-21T15:10:09.214861Z,1697901009214
0.4674609303474426,0.363166868686676,-0.04429837316274643,2023-10-21T15:10:09.225703Z,1697901009225
0.46293798089027405,0.3357630670070648,-0.09391787648200989,2023-10-21T15:10:09.235193Z,1697901009235
0.4556214213371277,0.31487762928009033,-0.11028033494949341,2023-10-21T15:10:09.247994Z,1697901009247
0.4517636001110077,0.30490052700042725,-0.09830780327320099,2023-10-21T15:10:09.255366Z,1697901009255
0.45535537600517273,0.3068959414958954,-0.06691315770149231,2023-10-21T15:10:09.266308Z,1697901009266
0.466396689414978,0.31687304377555847,-0.025940489023923874,2023-10-21T15:10:09.275583Z,1697901009275
0.4819609820842743,0.3304419219493866,0.01476612500846386,2023-10-21T15:10:09.286691Z,1697901009286
0.4989885985851288,0.3458732068538666,0.04589471220970154,2023-10-21T15:10:09.297569Z,1697901009297
0.514552891254425,0.3629007935523987,0.06026175245642662,2023-10-21T15:10:09.306665Z,1697901009306
0.5258603096008301,0.3804605007171631,0.05560576915740967,2023-10-21T15:10:09.316192Z,1697901009316
0.5317135453224182,0.39602482318878174,0.03418823331594467,2023-10-21T15:10:09.327083Z,1697901009327
0.5318465232849121,0.4082633852958679,0.0022614786867052317,2023-10-21T15:10:09.336489Z,1697901009336
0.5273236036300659,0.4177083969116211,-0.034720346331596375,2023-10-21T15:10:09.347872Z,1697901009347
0.5185437202453613,0.4254240393638611,-0.07236731797456741,2023-10-21T15:10:09.356653Z,1697901009356
0.5053739547729492,0.43234148621559143,-0.10801886022090912,2023-10-21T15:10:09.367687Z,1697901009367
0.485685795545578,0.4379286766052246,-0.13901442289352417,2023-10-21T15:10:09.376817Z,1697901009376
0.45681867003440857,0.44045621156692505,-0.1630925089120865,2023-10-21T15:10:09.387956Z,1697901009387
0.4166441857814789,0.4389928877353668,-0.17905589938163757,2023-10-21T15:10:09.397223Z,1697901009397
0.36463016271591187,0.4326075613498688,-0.18730363249778748,2023-10-21T15:10:09.408040Z,1697901009408
0.3051665723323822,0.4222313463687897,-0.1904963105916977,2023-10-21T15:10:09.417526Z,1697901009417
0.24610207974910736,0.4110569953918457,-0.19195961952209473,2023-10-21T15:10:09.430988Z,1697901009430
0.19728074967861176,0.40374043583869934,-0.1943541318178177,2023-10-21T15:10:09.437759Z,1697901009437
0.16508793830871582,0.4028092324733734,-0.198078915476799,2023-10-21T15:10:09.448773Z,1697901009448
0.15245026350021362,0.40852946043014526,-0.201936736702919,2023-10-21T15:10:09.457974Z,1697901009457
0.16282646358013153,0.4214331805706024,-0.20512941479682922,2023-10-21T15:10:09.469056Z,1697901009469
0.19634954631328583,0.44112133979797363,-0.21045053005218506,2023-10-21T15:10:09.480797Z,1697901009480
0.24610207974910736,0.46466732025146484,-0.22322124242782593,2023-10-21T15:10:09.489109Z,1697901009489
0.2953225076198578,0.48448851704597473,-0.24796447157859802,2023-10-21T15:10:09.498543Z,1697901009498
0.32458868622779846,0.4924702048301697,-0.28401511907577515,2023-10-21T15:10:09.509369Z,1697901009509
0.32458868622779846,0.48661696910858154,-0.32352447509765625,2023-10-21T15:10:09.518852Z,1697901009518
0.30051058530807495,0.4715847969055176,-0.35425397753715515,2023-10-21T15:10:09.530771Z,1697901009530
0.26765263080596924,0.45748382806777954,-0.3621026277542114,2023-10-21T15:10:09.539056Z,1697901009539
0.23998278379440308,0.45375901460647583,-0.33509790897369385,2023-10-21T15:10:09.550084Z,1697901009550
0.22894145548343658,0.4671948552131653,-0.2705792486667633,2023-10-21T15:10:09.559308Z,1697901009559
0.24676722288131714,0.5007179379463196,-0.17878983914852142,2023-10-21T15:10:09.570367Z,1697901009570
0.2985151708126068,0.551401674747467,-0.07915174961090088,2023-10-21T15:10:09.580534Z,1697901009580
0.3764696717262268,0.6103331446647644,0.00864682998508215,2023-10-21T15:10:09.590361Z,1697901009590
0.4610755741596222,0.6651407480239868,0.06731224805116653,2023-10-21T15:10:09.599890Z,1697901009599
0.5314474701881409,0.7033198475837708,0.0834086537361145,2023-10-21T15:10:09.614692Z,1697901009614
0.5736173987388611,0.7158244848251343,0.05427548661828041,2023-10-21T15:10:09.620148Z,1697901009620
0.582264244556427,0.6997280716896057,-0.00971105508506298,2023-10-21T15:10:09.631925Z,1697901009631
0.5612457990646362,0.6607508063316345,-0.08939491957426071,2023-10-21T15:10:09.640375Z,1697901009640
0.5205391645431519,0.6102001070976257,-0.16748245060443878,2023-10-21T15:10:09.651423Z,1697901009651
0.47012150287628174,0.5580530762672424,-0.2337304651737213,2023-10-21T15:10:09.664140Z,1697901009664
0.4154469072818756,0.5090987086296082,-0.28468024730682373,2023-10-21T15:10:09.671563Z,1697901009671
0.3573136031627655,0.46400219202041626,-0.3187354505062103,2023-10-21T15:10:09.680930Z,1697901009680
0.29638671875,0.42302951216697693,-0.3341667056083679,2023-10-21T15:10:09.691826Z,1697901009691
0.23585891723632812,0.38711193203926086,-0.33017587661743164,2023-10-21T15:10:09.701229Z,1697901009701
0.18025314807891846,0.3571805953979492,-0.3094234764575958,2023-10-21T15:10:09.714409Z,1697901009714
0.14300526678562164,0.31846940517425537,-0.2737719416618347,2023-10-21T15:10:09.721473Z,1697901009721
0.10522526502609253,0.30223995447158813,-0.23665708303451538,2023-10-21T15:10:09.732475Z,1697901009732
0.07289943099021912,0.2882719933986664,-0.20499637722969055,2023-10-21T15:10:09.741627Z,1697901009741
0.05839935690164566,0.2833499610424042,-0.16695033013820648,2023-10-21T15:10:09.752831Z,1697901009752
0.04602774232625961,0.2792260944843292,-0.1344914585351944,2023-10-21T15:10:09.763622Z,1697901009763
0.04057358577847481,0.2751022279262543,-0.10110139846801758,2023-10-21T15:10:09.772804Z,1697901009772
0.035917602479457855,0.27151045203208923,-0.07263337075710297,2023-10-21T15:10:09.782280Z,1697901009782
0.030596474185585976,0.23186807334423065,-0.061991117894649506,2023-10-21T15:10:09.793072Z,1697901009793
-0.010376195423305035,0.23506075143814087,-0.033789150416851044,2023-10-21T15:10:09.802554Z,1697901009802
-0.07635816186666489,0.24184517562389374,-0.0029266192577779293,2023-10-21T15:10:09.813957Z,1697901009813
-0.13741807639598846,0.20978540182113647,0.011174364946782589,2023-10-21T15:10:09.822747Z,1697901009822
-0.20832209289073944,0.17306962609291077,0.022481758147478104,2023-10-21T15:10:09.833843Z,1697901009833
-0.28361600637435913,0.13382631540298462,0.028468023985624313,2023-10-21T15:10:09.842985Z,1697901009842
-0.35824480652809143,0.09298668056726456,0.02727077156305313,2023-10-21T15:10:09.854038Z,1697901009854
-0.42901578545570374,0.050683725625276566,0.017027603462338448,2023-10-21T15:10:09.863653Z,1697901009863
-0.49380049109458923,0.0065183793194592,-0.004123872611671686,2023-10-21T15:10:09.874058Z,1697901009874
-0.5524659156799316,-0.0395093597471714,-0.03738091140985489,2023-10-21T15:10:09.883612Z,1697901009883
-0.6052780747413635,-0.08739949762821198,-0.08221139758825302,2023-10-21T15:10:09.897206Z,1697901009897
-0.6535673141479492,-0.13648688793182373,-0.13462449610233307,2023-10-21T15:10:09.903839Z,1697901009903
-0.696801483631134,-0.18504215776920319,-0.1894320845603943,2023-10-21T15:10:09.914779Z,1697901009914
-0.7328521013259888,-0.22973962128162384,-0.24078094959259033,2023-10-21T15:10:09.924053Z,1697901009924
-0.7578613758087158,-0.26698750257492065,-0.2837490439414978,2023-10-21T15:10:09.935065Z,1697901009935
-0.7686366438865662,-0.2953225076198578,-0.3144785463809967,2023-10-21T15:10:09.946904Z,1697901009946
-0.7626503705978394,-0.3146115839481354,-0.33057495951652527,2023-10-21T15:10:09.955452Z,1697901009955
-0.7392374277114868,-0.3248547613620758,-0.33177220821380615,2023-10-21T15:10:09.964613Z,1697901009964
-0.699595034122467,-0.32631805539131165,-0.3194005787372589,2023-10-21T15:10:09.975565Z,1697901009975
-0.6459847092628479,-0.31913453340530396,-0.29452434182167053,2023-10-21T15:10:09.984910Z,1697901009984
-0.5708237886428833,-0.2904004454612732,-0.25887277722358704,2023-10-21T15:10:09.997350Z,1697901009997
-0.4972592294216156,-0.2677856683731079,-0.21257898211479187,2023-10-21T15:10:10.005102Z,1697901010005
-0.43446993827819824,-0.24849659204483032,-0.1729366034269333,2023-10-21T15:10:10.016129Z,1697901010016
-0.3522585332393646,-0.21497349441051483,-0.11520238220691681,2023-10-21T15:10:10.025293Z,1697901010025
-0.266854465007782,-0.18451005220413208,-0.042569007724523544,2023-10-21T15:10:10.036410Z,1697901010036
-0.19568441808223724,-0.15284934639930725,0.014100983738899231,2023-10-21T15:10:10.046824Z,1697901010046
-0.13302814960479736,-0.12438131868839264,0.06877555698156357,2023-10-21T15:10:10.056453Z,1697901010056
-0.08008294552564621,-0.10017019510269165,0.11919322609901428,2023-10-21T15:10:10.065946Z,1697901010065
-0.039110276848077774,-0.08207836747169495,0.16535399854183197,2023-10-21T15:10:10.080389Z,1697901010080
-0.011307393200695515,-0.07276640087366104,0.20845511555671692,2023-10-21T15:10:10.086191Z,1697901010086
0.0034587320405989885,-0.07183520495891571,0.24995990097522736,2023-10-21T15:10:10.097071Z,1697901010097
0.008114716969430447,-0.07555998861789703,0.28960227966308594,2023-10-21T15:10:10.106397Z,1697901010106
0.0055871824733912945,-0.07968386262655258,0.32698318362236023,2023-10-21T15:10:10.117524Z,1697901010117
-0.0023945067077875137,-0.08367470651865005,0.36196959018707275,2023-10-21T15:10:10.131737Z,1697901010131
-0.014500068500638008,-0.08713343739509583,0.3936302959918976,2023-10-21T15:10:10.137744Z,1697901010137
-0.027802884578704834,-0.08793161064386368,0.4215662181377411,2023-10-21T15:10:10.147472Z,1697901010147
-0.038445137441158295,-0.0828765407204628,0.44537824392318726,2023-10-21T15:10:10.157935Z,1697901010157
-0.0433671772480011,-0.07183520495891571,0.4659976065158844,2023-10-21T15:10:10.167310Z,1697901010167
-0.04070661589503288,-0.05627090856432915,0.4839564263820648,2023-10-21T15:10:10.180828Z,1697901010180
-0.02700471505522728,-0.03631668537855148,0.500052809715271,2023-10-21T15:10:10.187608Z,1697901010187
0.0022614786867052317,-0.009844083338975906,0.5140208005905151,2023-10-21T15:10:10.198522Z,1697901010198
0.050417669117450714,0.025275349617004395,0.523199737071991,2023-10-21T15:10:10.207715Z,1697901010207
0.1174638569355011,0.06837646663188934,0.5230666995048523,2023-10-21T15:10:10.218794Z,1697901010218
0.1998082846403122,0.11639963090419769,0.5089657306671143,2023-10-21T15:10:10.230193Z,1697901010230
0.29106560349464417,0.16495491564273834,0.47730499505996704,2023-10-21T15:10:10.238875Z,1697901010238
0.38218986988067627,0.20845511555671692,0.4268873333930969,2023-10-21T15:10:10.248321Z,1697901010248
0.4625388979911804,0.24118003249168396,0.35864388942718506,2023-10-21T15:10:10.259042Z,1697901010259
0.5217363834381104,0.2572764456272125,0.27470314502716064,2023-10-21T15:10:10.268635Z,1697901010268
0.5524659156799316,0.25275349617004395,0.1789228618144989,2023-10-21T15:10:10.280488Z,1697901010280
0.5508695840835571,0.22628088295459747,0.07715632766485214,2023-10-21T15:10:10.288790Z,1697901010288
0.5176125168800354,0.1794549822807312,-0.02381203882396221,2023-10-21T15:10:10.299924Z,1697901010299
0.4572177529335022,0.11786293983459473,-0.11772991716861725,2023-10-21T15:10:10.308976Z,1697901010308
0.3759375512599945,0.04669288173317909,-0.20127159357070923,2023-10-21T15:10:10.320158Z,1697901010320
0.27842792868614197,-0.03139464557170868,-0.27363890409469604,2023-10-21T15:10:10.329877Z,1697901010329
0.16934484243392944,-0.1136060431599617,-0.3346988260746002,2023-10-21T15:10:10.340148Z,1697901010340
0.05733513459563255,-0.1938220113515854,-0.38391923904418945,2023-10-21T15:10:10.349726Z,1697901010349
-0.04616076871752739,-0.26326271891593933,-0.42076805233955383,2023-10-21T15:10:10.363835Z,1697901010363
-0.13129878044128418,-0.3172721564769745,-0.4473736882209778,2023-10-21T15:10:10.369892Z,1697901010369
-0.19182659685611725,-0.35438698530197144,-0.4682590961456299,2023-10-21T15:10:10.380894Z,1697901010380
-0.2249506115913391,-0.3748733401298523,-0.4878142476081848,2023-10-21T15:10:10.390078Z,1697901010390
-0.23027172684669495,-0.3787311613559723,-0.5094978213310242,2023-10-21T15:10:10.401165Z,1697901010401
-0.2124459594488144,-0.36795586347579956,-0.5362364649772644,2023-10-21T15:10:10.413354Z,1697901010413
-0.18065223097801208,-0.34760257601737976,-0.5708237886428833,2023-10-21T15:10:10.421240Z,1697901010421
-0.14792729914188385,-0.32685017585754395,-0.614989161491394,2023-10-21T15:10:10.430681Z,1697901010430
-0.12744097411632538,-0.31527671217918396,-0.6671361923217773,2023-10-21T15:10:10.441530Z,1697901010441
-0.127840057015419,-0.318203330039978,-0.7228749990463257,2023-10-21T15:10:10.450975Z,1697901010450
-0.15125301480293274,-0.33629515767097473,-0.7766183614730835,2023-10-21T15:10:10.463676Z,1697901010463
-0.1943541318178177,-0.36755678057670593,-0.8229121565818787,2023-10-21T15:10:10.471210Z,1697901010471
-0.2502259612083435,-0.40640100836753845,-0.8569673299789429,2023-10-21T15:10:10.482266Z,1697901010482
-0.3106207251548767,-0.44524523615837097,-0.8753252625465393,2023-10-21T15:10:10.491406Z,1697901010491
-0.36862102150917053,-0.47836923599243164,-0.8759903907775879,2023-10-21T15:10:10.502567Z,1697901010502
-0.4198368489742279,-0.5044427514076233,-0.858696699142456,2023-10-21T15:10:10.513309Z,1697901010513
-0.4617407023906708,-0.5237318277359009,-0.8245084881782532,2023-10-21T15:10:10.522548Z,1697901010522
-0.4932684004306793,-0.5355713367462158,-0.7759532332420349,2023-10-21T15:10:10.532063Z,1697901010532
-0.5142868161201477,-0.5391631126403809,-0.7163565754890442,2023-10-21T15:10:10.546835Z,1697901010546
-0.5257272720336914,-0.5349062085151672,-0.6499755382537842,2023-10-21T15:10:10.552327Z,1697901010552
-0.529585063457489,-0.5249291062355042,-0.5809339284896851,2023-10-21T15:10:10.563549Z,1697901010563
-0.5285208225250244,-0.5128235220909119,-0.5133556127548218,2023-10-21T15:10:10.572529Z,1697901010572
-0.5238648653030396,-0.5001858472824097,-0.4510984718799591,2023-10-21T15:10:10.583543Z,1697901010583
-0.5156171321868896,-0.48661696910858154,-0.3972220718860626,2023-10-21T15:10:10.592642Z,1697901010592
-0.5028464198112488,-0.4703875482082367,-0.3539879024028778,2023-10-21T15:10:10.603853Z,1697901010603
-0.48448851704597473,-0.45083239674568176,-0.32246023416519165,2023-10-21T15:10:10.613185Z,1697901010613
-0.46001136302948,-0.42901578545570374,-0.3025060296058655,2023-10-21T15:10:10.623889Z,1697901010623
-0.4291488230228424,-0.40520375967025757,-0.2926619350910187,2023-10-21T15:10:10.633353Z,1697901010633
-0.39163488149642944,-0.3787311613559723,-0.2907995283603668,2023-10-21T15:10:10.646888Z,1697901010646
-0.34720346331596375,-0.3469374179840088,-0.29452434182167053,2023-10-21T15:10:10.653584Z,1697901010653
-0.29665279388427734,-0.30915743112564087,-0.3018408715724945,2023-10-21T15:10:10.664534Z,1697901010664
-0.24237729609012604,-0.2673865854740143,-0.3112858831882477,2023-10-21T15:10:10.673853Z,1697901010673
-0.18703758716583252,-0.2249506115913391,-0.3216620683670044,2023-10-21T15:10:10.684845Z,1697901010684
-0.13302814960479736,-0.18477609753608704,-0.3316391706466675,2023-10-21T15:10:10.696286Z,1697901010696
-0.08261048048734665,-0.14992272853851318,-0.3396208584308624,2023-10-21T15:10:10.704892Z,1697901010704
-0.03711485490202904,-0.12211984395980835,-0.3441438376903534,2023-10-21T15:10:10.714385Z,1697901010714
0.0029266192577779293,-0.1004362553358078,-0.3441438376903534,2023-10-21T15:10:10.725170Z,1697901010725
0.03777999430894852,-0.08274351060390472,-0.3397538959980011,2023-10-21T15:10:10.734692Z,1697901010734
0.06704618781805038,-0.0691746398806572,-0.3319052457809448,2023-10-21T15:10:10.746718Z,1697901010746
0.09006005525588989,-0.06252323091030121,-0.3215290307998657,2023-10-21T15:10:10.754882Z,1697901010754
0.10615646839141846,-0.06411956995725632,-0.3107537627220154,2023-10-21T15:10:10.766022Z,1697901010765
0.1042940691113472,-0.061991117894649506,-0.2833499610424042,2023-10-21T15:10:10.775116Z,1697901010775
0.10402801632881165,-0.0790187194943428,-0.2825517952442169,2023-10-21T15:10:10.786399Z,1697901010786
0.10083533823490143,-0.11506935209035873,-0.30702897906303406,2023-10-21T15:10:10.797352Z,1697901010797
0.0702388659119606,-0.14992272853851318,-0.3135473430156708,2023-10-21T15:10:10.806254Z,1697901010806
0.02354598231613636,-0.19887708127498627,-0.318868488073349,2023-10-21T15:10:10.815715Z,1697901010815
-0.03698182478547096,-0.2612673044204712,-0.318868488073349,2023-10-21T15:10:10.830424Z,1697901010830
-0.10495921224355698,-0.33057495951652527,-0.3099555969238281,2023-10-21T15:10:10.836045Z,1697901010836
-0.17213842272758484,-0.3966899514198303,-0.2897353172302246,2023-10-21T15:10:10.847109Z,1697901010847
-0.23027172684669495,-0.45030030608177185,-0.25767552852630615,2023-10-21T15:10:10.856269Z,1697901010856
-0.27483615279197693,-0.48661696910858154,-0.21656982600688934,2023-10-21T15:10:10.867526Z,1697901010867
-0.307295024394989,-0.5079014897346497,-0.1729366034269333,2023-10-21T15:10:10.880220Z,1697901010880
-0.33336853981018066,-0.5213373303413391,-0.13289512693881989,2023-10-21T15:10:10.887318Z,1697901010887
-0.36130446195602417,-0.5363695025444031,-0.10203259438276291,2023-10-21T15:10:10.896962Z,1697901010896
-0.3989514410495758,-0.5613787770271301,-0.08354167640209198,2023-10-21T15:10:10.907698Z,1697901010907
-0.45189663767814636,-0.6023514866828918,-0.07835358381271362,2023-10-21T15:10:10.917057Z,1697901010917
-0.5237318277359009,-0.6620811223983765,-0.08580315858125687,2023-10-21T15:10:10.930498Z,1697901010930
-0.6125946640968323,-0.7380402088165283,-0.10309682041406631,2023-10-21T15:10:10.937254Z,1697901010937
-0.7127648591995239,-0.8234442472457886,-0.12823913991451263,2023-10-21T15:10:10.948269Z,1697901010948
-0.8150634765625,-0.9097795486450195,-0.1585695594549179,2023-10-21T15:10:10.957493Z,1697901010957
-0.911375880241394,-0.9897294640541077,-0.19195961952209473,2023-10-21T15:10:10.968615Z,1697901010968
-0.9945184588432312,-1.0566426515579224,-0.22654694318771362,2023-10-21T15:10:10.979745Z,1697901010979
-1.0579729080200195,-1.1037346124649048,-0.2611342668533325,2023-10-21T15:10:10.988613Z,1697901010988
-1.0970832109451294,-1.126482367515564,-0.2942582666873932,2023-10-21T15:10:10.998071Z,1697901010998
-1.1094547510147095,-1.1238218545913696,-0.3237905204296112,2023-10-21T15:10:11.008859Z,1697901011008
-1.0949547290802002,-1.0988125801086426,-0.34667137265205383,2023-10-21T15:10:11.018363Z,1697901011018
-1.0543811321258545,-1.0554453134536743,-0.35930904746055603,2023-10-21T15:10:11.030133Z,1697901011030
-0.9894633889198303,-0.9962478280067444,-0.35824480652809143,2023-10-21T15:10:11.038586Z,1697901011038
-0.9033941626548767,-0.9225502610206604,-0.3413502275943756,2023-10-21T15:10:11.049780Z,1697901011049
-0.7929807901382446,-0.8177240490913391,-0.3047674894332886,2023-10-21T15:10:11.058722Z,1697901011058
-0.681370198726654,-0.7279300689697266,-0.25647827982902527,2023-10-21T15:10:11.069886Z,1697901011069
-0.5740164518356323,-0.6564939022064209,-0.19967526197433472,2023-10-21T15:10:11.079599Z,1697901011079
-0.46067649126052856,-0.5684292912483215,-0.1306336522102356,2023-10-21T15:10:11.089881Z,1697901011089
-0.3562493920326233,-0.4912729561328888,-0.05520668253302574,2023-10-21T15:10:11.099451Z,1697901011099
-0.2645930051803589,-0.42781853675842285,0.02354598231613636,2023-10-21T15:10:11.113214Z,1697901011113
-0.18730363249778748,-0.3787311613559723,0.10176653414964676,2023-10-21T15:10:11.119623Z,1697901011119
-0.12438131868839264,-0.3434786796569824,0.1761292666196823,2023-10-21T15:10:11.130575Z,1697901011130
-0.07502787560224533,-0.3194005787372589,0.24304243922233582,2023-10-21T15:10:11.139842Z,1697901011139
-0.03831210732460022,-0.3039693236351013,0.30024453997612,2023-10-21T15:10:11.150896Z,1697901011150
-0.014234011992812157,-0.29665279388427734,0.3464052975177765,2023-10-21T15:10:11.162797Z,1697901011162
-0.0029266192577779293,-0.2990472912788391,0.38072657585144043,2023-10-21T15:10:11.170972Z,1697901011170
-0.004123872611671686,-0.31141889095306396,0.40480467677116394,2023-10-21T15:10:11.180450Z,1697901011180
-0.016229433938860893,-0.3321712911128998,0.4214331805706024,2023-10-21T15:10:11.191212Z,1697901011191
-0.037513937801122665,-0.3599741756916046,0.4335387349128723,2023-10-21T15:10:11.200772Z,1697901011200
-0.06611499190330505,-0.39442846179008484,0.4439149498939514,2023-10-21T15:10:11.213167Z,1697901011213
-0.09950505942106247,-0.4351350963115692,0.4540250897407532,2023-10-21T15:10:11.220926Z,1697901011220
-0.13435843586921692,-0.47876831889152527,0.4654655158519745,2023-10-21T15:10:11.232025Z,1697901011231
-0.16695033013820648,-0.5188097953796387,0.47930043935775757,2023-10-21T15:10:11.241087Z,1697901011241
-0.19475321471691132,-0.5508695840835571,0.49473169445991516,2023-10-21T15:10:11.252266Z,1697901011252
-0.2168358862400055,-0.5744155645370483,0.5100299119949341,2023-10-21T15:10:11.262714Z,1697901011262
-0.23333138227462769,-0.5926403999328613,0.522800624370575,2023-10-21T15:10:11.272309Z,1697901011272
-0.2431754618883133,-0.607273519039154,0.5310483574867249,2023-10-21T15:10:11.281767Z,1697901011281
-0.24384060502052307,-0.6141909956932068,0.5326447486877441,2023-10-21T15:10:11.296280Z,1697901011296
-0.23240017890930176,-0.607273519039154,0.5255942344665527,2023-10-21T15:10:11.302042Z,1697901011302
-0.20699180662631989,-0.581865131855011,0.507768452167511,2023-10-21T15:10:11.313015Z,1697901011312
-0.1690787822008133,-0.5383649468421936,0.47730499505996704,2023-10-21T15:10:11.322222Z,1697901011322
-0.1367529332637787,-0.4751765727996826,0.42515796422958374,2023-10-21T15:10:11.333669Z,1697901011333
-0.08367470651865005,-0.4098597466945648,0.3688870668411255,2023-10-21T15:10:11.346932Z,1697901011346
-0.018091829493641853,-0.34773558378219604,0.30702897906303406,2023-10-21T15:10:11.353470Z,1697901011353
0.024610208347439766,-0.28228574991226196,0.2245515137910843,2023-10-21T15:10:11.363206Z,1697901011363
0.05813330411911011,-0.22242307662963867,0.13568872213363647,2023-10-21T15:10:11.373816Z,1697901011373
0.08048202842473984,-0.16934484243392944,0.04403231665492058,2023-10-21T15:10:11.383136Z,1697901011383
0.09032611548900604,-0.12717491388320923,-0.04762407764792442,2023-10-21T15:10:11.396934Z,1697901011396
0.08567012846469879,-0.10243167728185654,-0.13701899349689484,2023-10-21T15:10:11.403306Z,1697901011403
0.06571590900421143,-0.09764266014099121,-0.22268912196159363,2023-10-21T15:10:11.414407Z,1697901011414
0.0307295024394989,-0.10948216915130615,-0.3023729920387268,2023-10-21T15:10:11.423576Z,1697901011423
-0.017958801239728928,-0.13289512693881989,-0.37434121966362,2023-10-21T15:10:11.434713Z,1697901011434
-0.07888569682836533,-0.16721639037132263,-0.437529593706131,2023-10-21T15:10:11.446011Z,1697901011445
-0.148193359375,-0.21284504234790802,-0.49140599370002747,2023-10-21T15:10:11.454776Z,1697901011454
-0.21909736096858978,-0.2644599676132202,-0.5350392460823059,2023-10-21T15:10:11.464139Z,1697901011464
-0.2830839157104492,-0.3132812976837158,-0.5665668845176697,2023-10-21T15:10:11.474938Z,1697901011474
-0.3319052457809448,-0.34933191537857056,-0.585456907749176,2023-10-21T15:10:11.484413Z,1697901011484
-0.35930904746055603,-0.36529529094696045,-0.5930395126342773,2023-10-21T15:10:11.496266Z,1697901011496
-0.36303383111953735,-0.3585108816623688,-0.5927734375,2023-10-21T15:10:11.504623Z,1697901011504
-0.3441438376903534,-0.33110707998275757,-0.5871862769126892,2023-10-21T15:10:11.515608Z,1697901011515
-0.3068959414958954,-0.2880059480667114,-0.578672468662262,2023-10-21T15:10:11.524846Z,1697901011524
-0.2574094831943512,-0.2337304651737213,-0.5686953663825989,2023-10-21T15:10:11.535929Z,1697901011535
-0.20206975936889648,-0.17360173165798187,-0.5580530762672424,2023-10-21T15:10:11.545902Z,1697901011545
-0.14673005044460297,-0.1141381561756134,-0.5463466048240662,2023-10-21T15:10:11.556003Z,1697901011555
-0.09538118541240692,-0.061991117894649506,-0.5314474701881409,2023-10-21T15:10:11.565491Z,1697901011565
-0.049752529710531235,-0.0219496451318264,-0.5105620622634888,2023-10-21T15:10:11.579882Z,1697901011579
-0.010243168100714684,0.004522957373410463,-0.4803646504878998,2023-10-21T15:10:11.585733Z,1697901011585
0.023146897554397583,0.018756968900561333,-0.4389928877353668,2023-10-21T15:10:11.597065Z,1697901011597
0.03551851585507393,0.021550560370087624,-0.38498347997665405,2023-10-21T15:10:11.605925Z,1697901011605
0.061991117894649506,0.021550560370087624,-0.3225932717323303,2023-10-21T15:10:11.616962Z,1697901011616
0.09950505942106247,0.020619364455342293,-0.25701040029525757,2023-10-21T15:10:11.629047Z,1697901011629
0.11373907327651978,0.013834928162395954,-0.19129447638988495,2023-10-21T15:10:11.637017Z,1697901011636
0.12305103987455368,0.004522957373410463,-0.13050061464309692,2023-10-21T15:10:11.646495Z,1697901011646
0.11706477403640747,-6.651407456956804E-4,-0.09458301961421967,2023-10-21T15:10:11.657330Z,1697901011657
0.1169317439198494,-0.014500068500638008,-0.048821330070495605,2023-10-21T15:10:11.666813Z,1697901011666
0.11679871380329132,-0.02633957378566265,-0.00971105508506298,2023-10-21T15:10:11.679695Z,1697901011679
0.10283076018095016,-0.04589471220970154,0.017426688224077225,2023-10-21T15:10:11.687011Z,1697901011686
0.08846372365951538,-0.07609210163354874,0.05201400816440582,2023-10-21T15:10:11.697922Z,1697901011697
0.0730324536561966,-0.07875266671180725,0.05587182566523552,2023-10-21T15:10:11.707270Z,1697901011707
0.06052780896425247,-0.08580315858125687,0.07156914472579956,2023-10-21T15:10:11.718285Z,1697901011718
0.04988555610179901,-0.09178942441940308,0.08487196266651154,2023-10-21T15:10:11.728955Z,1697901011728
0.056004852056503296,-0.07396364957094193,0.09258759021759033,2023-10-21T15:10:11.738331Z,1697901011738
0.07529393583536148,-0.048821330070495605,0.1048261821269989,2023-10-21T15:10:11.747866Z,1697901011747
0.09764266014099121,-0.017160631716251373,0.0971105545759201,2023-10-21T15:10:11.762304Z,1697901011762
0.12664279341697693,0.019555138424038887,0.08261048048734665,2023-10-21T15:10:11.768155Z,1697901011768
0.16056497395038605,0.06185809150338173,0.06212414801120758,2023-10-21T15:10:11.779504Z,1697901011779
0.19661560654640198,0.10934913903474808,0.037513937801122665,2023-10-21T15:10:11.788314Z,1697901011788
0.23133595287799835,0.15896864235401154,0.01050922367721796,2023-10-21T15:10:11.799333Z,1697901011799
0.26046910881996155,0.20459729433059692,-0.0172936599701643,2023-10-21T15:10:11.808538Z,1697901011808
0.28029030561447144,0.2398497611284256,-0.0438992902636528,2023-10-21T15:10:11.820161Z,1697901011820
0.28946927189826965,0.2616663873195648,-0.0663810446858406,2023-10-21T15:10:11.829552Z,1697901011829
0.28787291049957275,0.2693819999694824,-0.08300956338644028,2023-10-21T15:10:11.840174Z,1697901011840
0.27536827325820923,0.2635287642478943,-0.09325273334980011,2023-10-21T15:10:11.849223Z,1697901011849
0.2470332831144333,0.23838645219802856,-0.08966097235679626,2023-10-21T15:10:11.863434Z,1697901011863
0.21098265051841736,0.2036661058664322,-0.07649118453264236,2023-10-21T15:10:11.869418Z,1697901011869
0.18012011051177979,0.17386779189109802,-0.0653168261051178,2023-10-21T15:10:11.880359Z,1697901011880
0.14513371884822845,0.1355556845664978,-0.06811041384935379,2023-10-21T15:10:11.889593Z,1697901011889
0.11520238220691681,0.10283076018095016,-0.07037189602851868,2023-10-21T15:10:11.900686Z,1697901011900
0.07808752357959747,0.06318837404251099,-0.058532387018203735,2023-10-21T15:10:11.912285Z,1697901011912
0.04655985161662102,0.02953225001692772,-0.04842224717140198,2023-10-21T15:10:11.920764Z,1697901011920
0.03977541625499725,0.02514232136309147,-0.04137175530195236,2023-10-21T15:10:11.930214Z,1697901011930
0.02354598231613636,0.011706477031111717,-0.05627090856432915,2023-10-21T15:10:11.940986Z,1697901011940
0.00971105508506298,1.3302815204951912E-4,-0.06890857964754105,2023-10-21T15:10:11.950556Z,1697901011950
0.0019954221788793802,-0.010110139846801758,-0.09963808953762054,2023-10-21T15:10:11.962696Z,1697901011962
-0.018756968900561333,-0.03764696791768074,-0.14912456274032593,2023-10-21T15:10:11.970733Z,1697901011970
-0.05680302157998085,-0.0839407667517662,-0.17080815136432648,2023-10-21T15:10:11.981699Z,1697901011981
-0.11653266102075577,-0.15657413005828857,-0.17905589938163757,2023-10-21T15:10:11.990886Z,1697901011990
-0.19887708127498627,-0.2584736943244934,-0.1701430082321167,2023-10-21T15:10:12.002006Z,1697901012001
-0.3006436228752136,-0.3876440227031708,-0.1448676586151123,2023-10-21T15:10:12.012187Z,1697901012012
-0.41464874148368835,-0.5349062085151672,-0.10788583010435104,2023-10-21T15:10:12.021974Z,1697901012021
-0.5313144326210022,-0.6868243217468262,-0.06717921793460846,2023-10-21T15:10:12.031540Z,1697901012031
-0.640929639339447,-0.8314259648323059,-0.029931334778666496,2023-10-21T15:10:12.045850Z,1697901012045
-0.7349805235862732,-0.9588668942451477,-7.981689414009452E-4,2023-10-21T15:10:12.051879Z,1697901012051
-0.8060175776481628,-1.0612986087799072,0.01822485774755478,2023-10-21T15:10:12.062668Z,1697901012062
-0.8496508002281189,-1.133665919303894,0.029000137001276016,2023-10-21T15:10:12.072025Z,1697901012071
-0.8645499348640442,-1.176900029182434,0.035651545971632004,2023-10-21T15:10:12.083014Z,1697901012082
-0.8517792820930481,-1.1961891651153564,0.04363323375582695,2023-10-21T15:10:12.095489Z,1697901012095
-0.8129350543022156,-1.1957900524139404,0.05879844352602959,2023-10-21T15:10:12.103112Z,1697901012103
-0.7497466802597046,-1.179560661315918,0.08513801544904709,2023-10-21T15:10:12.112539Z,1697901012112
-0.6654068231582642,-1.1510926485061646,0.12464737892150879,2023-10-21T15:10:12.123366Z,1697901012123
-0.5637733340263367,-1.1145098209381104,0.1761292666196823,2023-10-21T15:10:12.132886Z,1697901012132
-0.4496351480484009,-1.0736702680587769,0.23692314326763153,2023-10-21T15:10:12.146720Z,1697901012146
-0.329776793718338,-1.0307021141052246,0.303437203168869,2023-10-21T15:10:12.153106Z,1697901012153
-0.21151475608348846,-0.9866697788238525,0.37128156423568726,2023-10-21T15:10:12.164462Z,1697901012164
-0.10322984308004379,-0.9437016844749451,0.4364653527736664,2023-10-21T15:10:12.173298Z,1697901012173
-0.012504646554589272,-0.9089813828468323,0.49539685249328613,2023-10-21T15:10:12.184552Z,1697901012184
0.05374337360262871,-0.8938161730766296,0.5459475517272949,2023-10-21T15:10:12.195565Z,1697901012195
0.0905921682715416,-0.9060547351837158,0.5871862769126892,2023-10-21T15:10:12.204602Z,1697901012204
0.09857386350631714,-0.9426375031471252,0.619113028049469,2023-10-21T15:10:12.213921Z,1697901012213
0.08300956338644028,-0.993720293045044,0.6419938802719116,2023-10-21T15:10:12.224671Z,1697901012224
0.04988555610179901,-1.0518536567687988,0.655961811542511,2023-10-21T15:10:12.234191Z,1697901012234
0.0035917600616812706,-1.1151750087738037,0.6614159941673279,2023-10-21T15:10:12.245761Z,1697901012245
-0.0521470345556736,-1.1834183931350708,0.6587554216384888,2023-10-21T15:10:12.254396Z,1697901012254
-0.11493632197380066,-1.2544554471969604,0.6477140784263611,2023-10-21T15:10:12.265386Z,1697901012265
-0.18251462280750275,-1.3249603509902954,0.6274937987327576,2023-10-21T15:10:12.274540Z,1697901012274
-0.25328558683395386,-1.3921395540237427,0.5979615449905396,2023-10-21T15:10:12.285684Z,1697901012285
-0.32685017585754395,-1.4539977312088013,0.5583191514015198,2023-10-21T15:10:12.295339Z,1697901012295
-0.4033413529396057,-1.5098695755004883,0.5088326930999756,2023-10-21T15:10:12.305762Z,1697901012305
-0.4828921854496002,-1.5590898990631104,0.4505663514137268,2023-10-21T15:10:12.315326Z,1697901012315
-0.5637733340263367,-1.5997965335845947,0.38604769110679626,2023-10-21T15:10:12.328965Z,1697901012328
-0.6429250836372375,-1.6290627717971802,0.31860241293907166,2023-10-21T15:10:12.335560Z,1697901012335
-0.7160905599594116,-1.645159125328064,0.25155624747276306,2023-10-21T15:10:12.346386Z,1697901012346
-0.7791458964347839,-1.6490169763565063,0.18717060983181,2023-10-21T15:10:12.355689Z,1697901012355
-0.8277011513710022,-1.640104055404663,0.12637674808502197,2023-10-21T15:10:12.366888Z,1697901012366
-0.8573664426803589,-1.6164250373840332,0.06877555698156357,2023-10-21T15:10:12.378609Z,1697901012378
-0.866412341594696,-1.5766496658325195,0.013435843400657177,2023-10-21T15:10:12.387017Z,1697901012386
-0.8544397950172424,-1.51997971534729,-0.041637811809778214,2023-10-21T15:10:12.396271Z,1697901012396
-0.8213158249855042,-1.4429563283920288,-0.09737660735845566,2023-10-21T15:10:12.407287Z,1697901012407
-0.7661091089248657,-1.3386622667312622,-0.1536475121974945,2023-10-21T15:10:12.416568Z,1697901012416
-0.6908152103424072,-1.2061662673950195,-0.20991842448711395,2023-10-21T15:10:12.429285Z,1697901012429
-0.6018193364143372,-1.0530508756637573,-0.2656572163105011,2023-10-21T15:10:12.436871Z,1697901012436
-0.5069702863693237,-0.8886280655860901,-0.3204648196697235,2023-10-21T15:10:12.447933Z,1697901012447
-0.4142496585845947,-0.7216777205467224,-0.3742081820964813,2023-10-21T15:10:12.457150Z,1697901012457
-0.33177220821380615,-0.5596494078636169,-0.4280845820903778,2023-10-21T15:10:12.468198Z,1697901012468
-0.26818475127220154,-0.41345149278640747,-0.4824931025505066,2023-10-21T15:10:12.478851Z,1697901012478
-0.22987264394760132,-0.29439130425453186,-0.5365025401115417,2023-10-21T15:10:12.488232Z,1697901012488
-0.21763405203819275,-0.20925328135490417,-0.5861220359802246,2023-10-21T15:10:12.497697Z,1697901012497
-0.22694602608680725,-0.15790441632270813,-0.6274937987327576,2023-10-21T15:10:12.508589Z,1697901012508
-0.2496938407421112,-0.13542266190052032,-0.6579572558403015,2023-10-21T15:10:12.517867Z,1697901012517
-0.277762770652771,-0.1355556845664978,-0.6760490536689758,2023-10-21T15:10:12.529130Z,1697901012529
-0.30330419540405273,-0.14845941960811615,-0.6817692518234253,2023-10-21T15:10:12.538097Z,1697901012538
-0.31913453340530396,-0.1630925089120865,-0.6763151288032532,2023-10-21T15:10:12.549160Z,1697901012549
-0.3221941888332367,-0.17054209113121033,-0.6626132130622864,2023-10-21T15:10:12.561687Z,1697901012561
-0.31314826011657715,-0.16695033013820648,-0.6449204683303833,2023-10-21T15:10:12.569250Z,1697901012569
-0.29638671875,-0.15511082112789154,-0.626828670501709,2023-10-21T15:10:12.578664Z,1697901012578
-0.27643251419067383,-0.13981258869171143,-0.6098010540008545,2023-10-21T15:10:12.589428Z,1697901012589
-0.25594615936279297,-0.12637674808502197,-0.5919752717018127,2023-10-21T15:10:12.598946Z,1697901012598
-0.23612496256828308,-0.12039047479629517,-0.5698925852775574,2023-10-21T15:10:12.612399Z,1697901012612
-0.2168358862400055,-0.12850520014762878,-0.5399612784385681,2023-10-21T15:10:12.619230Z,1697901012619
-0.19222567975521088,-0.12717491388320923,-0.48435550928115845,2023-10-21T15:10:12.630162Z,1697901012630
-0.1717393398284912,-0.17985406517982483,-0.43061211705207825,2023-10-21T15:10:12.639369Z,1697901012639
-0.15351448953151703,-0.2781618535518646,-0.37620362639427185,2023-10-21T15:10:12.650501Z,1697901012650
-0.12464737892150879,-0.35372185707092285,-0.2923958897590637,2023-10-21T15:10:12.662092Z,1697901012662
-0.09072519838809967,-0.4346029758453369,-0.19914314150810242,2023-10-21T15:10:12.670506Z,1697901012670
-0.05281217768788338,-0.5138877630233765,-0.10283076018095016,2023-10-21T15:10:12.679958Z,1697901012679
-0.012371618300676346,-0.5845257043838501,-0.009977111592888832,2023-10-21T15:10:12.690761Z,1697901012690
0.029000137001276016,-0.6398653984069824,0.0730324536561966,2023-10-21T15:10:12.700261Z,1697901012700
0.0707709789276123,-0.6711270213127136,0.14087681472301483,2023-10-21T15:10:12.712034Z,1697901012712
0.1136060431599617,-0.6685994863510132,0.1899642050266266,2023-10-21T15:10:12.720457Z,1697901012720
0.1580374389886856,-0.6270946860313416,0.21856525540351868,2023-10-21T15:10:12.731613Z,1697901012731
0.20406518876552582,-0.5492732524871826,0.2277441918849945,2023-10-21T15:10:12.740663Z,1697901012740
0.25049200654029846,-0.44152042269706726,0.21923039853572845,2023-10-21T15:10:12.751865Z,1697901012751
0.2969188392162323,-0.3099555969238281,0.19634954631328583,2023-10-21T15:10:12.761965Z,1697901012761
0.34268051385879517,-0.16043195128440857,0.16269342601299286,2023-10-21T15:10:12.771887Z,1697901012771
0.3869788944721222,-3.990844707004726E-4,0.1223858967423439,2023-10-21T15:10:12.781325Z,1697901012781
0.4287497401237488,0.16282646358013153,0.07861963659524918,2023-10-21T15:10:12.795850Z,1697901012795
0.4671948552131653,0.322061151266098,0.03365612402558327,2023-10-21T15:10:12.801576Z,1697901012801
0.5017821788787842,0.4731811285018921,-0.011573448777198792,2023-10-21T15:10:12.812848Z,1697901012812
0.5322456359863281,0.614989161491394,-0.05627090856432915,2023-10-21T15:10:12.821756Z,1697901012821
0.5579200983047485,0.7458888292312622,-0.0999041423201561,2023-10-21T15:10:12.832879Z,1697901012832
0.5761449337005615,0.860027015209198,-0.14061075448989868,2023-10-21T15:10:12.845392Z,1697901012845
0.5838605761528015,0.9492889046669006,-0.17599624395370483,2023-10-21T15:10:12.852902Z,1697901012852
0.5796036720275879,1.0090185403823853,-0.20326702296733856,2023-10-21T15:10:12.862300Z,1697901012862
0.563640296459198,1.0382847785949707,-0.22056066989898682,2023-10-21T15:10:12.873082Z,1697901012873
0.536901593208313,1.036954402923584,-0.22787722945213318,2023-10-21T15:10:12.882638Z,1697901012882
0.4995207190513611,1.0047615766525269,-0.22534969449043274,2023-10-21T15:10:12.895330Z,1697901012895
0.4526948034763336,0.9434356689453125,-0.21364320814609528,2023-10-21T15:10:12.902815Z,1697901012902
0.39589178562164307,0.8395406603813171,-0.1904963105916977,2023-10-21T15:10:12.913804Z,1697901012913
0.3380245268344879,0.7167556881904602,-0.16269342601299286,2023-10-21T15:10:12.923017Z,1697901012922
0.28867107629776,0.6120625138282776,-0.1388813853263855,2023-10-21T15:10:12.934123Z,1697901012934
0.2480975091457367,0.5277226567268372,-0.08128020167350769,2023-10-21T15:10:12.944764Z,1697901012944
0.2151065170764923,0.4403231739997864,-0.007715632673352957,2023-10-21T15:10:12.954222Z,1697901012954
0.19089539349079132,0.3446759283542633,0.04429837316274643,2023-10-21T15:10:12.963683Z,1697901012963
0.1755971610546112,0.26366180181503296,0.08992703258991241,2023-10-21T15:10:12.974411Z,1697901012974
0.16149617731571198,0.19568441808223724,0.12371618300676346,2023-10-21T15:10:12.983971Z,1697901012983
0.1378171592950821,0.13528962433338165,0.14234012365341187,2023-10-21T15:10:12.995522Z,1697901012995
0.09178942441940308,0.06877555698156357,0.14513371884822845,2023-10-21T15:10:13.004120Z,1697901013004
0.010908308438956738,-0.023013871163129807,0.13356027007102966,2023-10-21T15:10:13.015211Z,1697901013015
-0.11174365133047104,-0.1559089869260788,0.11107850819826126,2023-10-21T15:10:13.024371Z,1697901013024
-0.27576735615730286,-0.3331024944782257,0.0823444277048111,2023-10-21T15:10:13.035557Z,1697901013035
-0.47185084223747253,-0.5440851449966431,0.05188097804784775,2023-10-21T15:10:13.044966Z,1697901013044
-0.6828334927558899,-0.7681045532226562,0.022481758147478104,2023-10-21T15:10:13.055554Z,1697901013055
-0.8883619904518127,-0.9817477464675903,-0.004522957373410463,2023-10-21T15:10:13.065015Z,1697901013064
-1.071408748626709,-1.167721152305603,-0.029133165255188942,2023-10-21T15:10:13.078965Z,1697901013078
-1.2182718515396118,-1.3113914728164673,-0.05148189514875412,2023-10-21T15:10:13.085244Z,1697901013085
-1.3173778057098389,-1.4021167755126953,-0.07143611460924149,2023-10-21T15:10:13.096207Z,1697901013096
-1.3624743223190308,-1.4349746704101562,-0.08819766342639923,2023-10-21T15:10:13.105412Z,1697901013105
-1.3532954454421997,-1.4127589464187622,-0.10083533823490143,2023-10-21T15:10:13.116564Z,1697901013116
-1.2950290441513062,-1.345579743385315,-0.1081518903374672,2023-10-21T15:10:13.128440Z,1697901013128
-1.1952579021453857,-1.2466068267822266,-0.10895005613565445,2023-10-21T15:10:13.136604Z,1697901013136
-1.0634270906448364,-1.1311383247375488,-0.10176653414964676,2023-10-21T15:10:13.146010Z,1697901013145
-0.9181603193283081,-0.992789089679718,-0.08899583667516708,2023-10-21T15:10:13.156843Z,1697901013156
-0.7497466802597046,-0.8845041990280151,-0.06425260007381439,2023-10-21T15:10:13.166335Z,1697901013166
-0.5721541047096252,-0.8116047382354736,-0.030330419540405273,2023-10-21T15:10:13.178774Z,1697901013178
-0.4177083969116211,-0.7380402088165283,0.003325703786686063,2023-10-21T15:10:13.186510Z,1697901013186
-0.28454720973968506,-0.6906821727752686,0.0395093597471714,2023-10-21T15:10:13.197533Z,1697901013197
-0.18012011051177979,-0.670461893081665,0.07662421464920044,2023-10-21T15:10:13.206673Z,1697901013206
-0.10881702601909637,-0.6789757013320923,0.11307393014431,2023-10-21T15:10:13.217849Z,1697901013217
-0.07210125774145126,-0.7172877788543701,0.14752821624279022,2023-10-21T15:10:13.228036Z,1697901013227
-0.06771133095026016,-0.7830036878585815,0.1794549822807312,2023-10-21T15:10:13.237821Z,1697901013237
-0.08819766342639923,-0.8678756356239319,0.2085881382226944,2023-10-21T15:10:13.247369Z,1697901013247
-0.12331710010766983,-0.9608623385429382,0.2354598343372345,2023-10-21T15:10:13.261700Z,1697901013261
-0.16335856914520264,-1.0506563186645508,0.25927186012268066,2023-10-21T15:10:13.267612Z,1697901013267
-0.20020736753940582,-1.1287438869476318,0.2794921398162842,2023-10-21T15:10:13.278526Z,1697901013278
-0.2288084179162979,-1.188739538192749,0.29505643248558044,2023-10-21T15:10:13.287779Z,1697901013287
-0.246501162648201,-1.2251893281936646,0.3046344816684723,2023-10-21T15:10:13.298837Z,1697901013298
-0.2524874210357666,-1.2356984615325928,0.30716201663017273,2023-10-21T15:10:13.311317Z,1697901013311
-0.2480975091457367,-1.2207993268966675,0.30263903737068176,2023-10-21T15:10:13.318896Z,1697901013318
-0.23572587966918945,-1.1854138374328613,0.29279497265815735,2023-10-21T15:10:13.328418Z,1697901013328
-0.2179001122713089,-1.1360604763031006,0.2800242602825165,2023-10-21T15:10:13.339252Z,1697901013339
-0.19661560654640198,-1.080055594444275,0.2667214572429657,2023-10-21T15:10:13.348705Z,1697901013348
-0.1740008294582367,-1.0248489379882812,0.2542167901992798,2023-10-21T15:10:13.361654Z,1697901013361
-0.15205118060112,-0.9756284952163696,0.24304243922233582,2023-10-21T15:10:13.368901Z,1697901013368
-0.13156484067440033,-0.9338576197624207,0.233198344707489,2023-10-21T15:10:13.379921Z,1697901013379
-0.11333998292684555,-0.8975409269332886,0.2245515137910843,2023-10-21T15:10:13.389070Z,1697901013389
-0.09737660735845566,-0.862820565700531,0.2173680067062378,2023-10-21T15:10:13.400269Z,1697901013400
-0.0828765407204628,-0.825971782207489,0.21178081631660461,2023-10-21T15:10:13.411092Z,1697901013411
-0.06890857964754105,-0.785930335521698,0.20725786685943604,2023-10-21T15:10:13.420250Z,1697901013420
-0.053876399993896484,-0.744159460067749,0.2024688422679901,2023-10-21T15:10:13.429792Z,1697901013429
-0.03485337644815445,-0.6990629434585571,0.19661560654640198,2023-10-21T15:10:13.440472Z,1697901013440
-0.0070504918694496155,-0.6423929333686829,0.18850089609622955,2023-10-21T15:10:13.450041Z,1697901013450
0.034055206924676895,-0.563640296459198,0.17745955288410187,2023-10-21T15:10:13.461397Z,1697901013461
0.0905921682715416,-0.45628654956817627,0.16162919998168945,2023-10-21T15:10:13.470173Z,1697901013470
0.1608310341835022,-0.31966665387153625,0.1388813853263855,2023-10-21T15:10:13.481259Z,1697901013481
0.24131307005882263,-0.15431265532970428,0.10761977732181549,2023-10-21T15:10:13.490380Z,1697901013490
0.32951071858406067,0.040307529270648956,0.06704618781805038,2023-10-21T15:10:13.501649Z,1697901013501
0.42302951216697693,0.26419392228126526,0.017160631716251373,2023-10-21T15:10:13.511195Z,1697901013511
0.5182777047157288,0.5132226347923279,-0.040972672402858734,2023-10-21T15:10:13.521863Z,1697901013521
0.6076725721359253,0.7739577889442444,-0.10416104644536972,2023-10-21T15:10:13.531058Z,1697901013531
0.6799069046974182,1.0249818563461304,-0.16921180486679077,2023-10-21T15:10:13.545190Z,1697901013545
0.7247373461723328,1.244611382484436,-0.23186807334423065,2023-10-21T15:10:13.551326Z,1697901013551
0.7383062243461609,1.4194103479385376,-0.2880059480667114,2023-10-21T15:10:13.562379Z,1697901013562
0.7219437956809998,1.544190764427185,-0.3341667056083679,2023-10-21T15:10:13.571535Z,1697901013571
0.6788426637649536,1.6153608560562134,-0.36862102150917053,2023-10-21T15:10:13.582751Z,1697901013582
0.6148561239242554,1.6375765800476074,-0.3924330472946167,2023-10-21T15:10:13.594227Z,1697901013594
0.5399612784385681,1.6274664402008057,-0.4082633852958679,2023-10-21T15:10:13.602836Z,1697901013602
0.4659976065158844,1.607911229133606,-0.4193047285079956,2023-10-21T15:10:13.612094Z,1697901013612
0.4022771418094635,1.5978010892868042,-0.42888274788856506,2023-10-21T15:10:13.623006Z,1697901013622
0.35252460837364197,1.606048822402954,-0.4384607970714569,2023-10-21T15:10:13.632413Z,1697901013632
0.3151437044143677,1.6302599906921387,-0.44857093691825867,2023-10-21T15:10:13.645058Z,1697901013645
0.28614354133605957,1.660590410232544,-0.45854803919792175,2023-10-21T15:10:13.652695Z,1697901013652
0.2617993950843811,1.6866639852523804,-0.46666276454925537,2023-10-21T15:10:13.663809Z,1697901013663
0.24078094959259033,1.701430082321167,-0.47012150287628174,2023-10-21T15:10:13.672774Z,1697901013672
0.22295518219470978,1.7004988193511963,-0.4658645987510681,2023-10-21T15:10:13.684009Z,1697901013683
0.2101844847202301,1.6834713220596313,-0.45136451721191406,2023-10-21T15:10:13.694736Z,1697901013694
0.20552849769592285,1.6562005281448364,-0.42462587356567383,2023-10-21T15:10:13.703968Z,1697901013703
0.21164779365062714,1.6248058080673218,-0.385249525308609,2023-10-21T15:10:13.713483Z,1697901013713
0.22907447814941406,1.5907506942749023,-0.3341667056083679,2023-10-21T15:10:13.728391Z,1697901013728
0.25594615936279297,1.5520395040512085,-0.27470314502716064,2023-10-21T15:10:13.733709Z,1697901013733
0.29106560349464417,1.5106676816940308,-0.2107165902853012,2023-10-21T15:10:13.745111Z,1697901013745
0.33283644914627075,1.4728877544403076,-0.14553280174732208,2023-10-21T15:10:13.753920Z,1697901013753
0.3791302442550659,1.4440206289291382,-0.08128020167350769,2023-10-21T15:10:13.765027Z,1697901013764
0.42715340852737427,1.4261947870254517,-0.019289081916213036,2023-10-21T15:10:13.777730Z,1697901013777
0.47384628653526306,1.417814016342163,0.0389772467315197,2023-10-21T15:10:13.785034Z,1697901013785
0.5174795389175415,1.4147543907165527,0.09285365045070648,2023-10-21T15:10:13.794451Z,1697901013794
0.5572549104690552,1.4126259088516235,0.14207406342029572,2023-10-21T15:10:13.805215Z,1697901013805
0.5941037535667419,1.4107635021209717,0.18756969273090363,2023-10-21T15:10:13.814793Z,1697901013814
0.6306864619255066,1.4124928712844849,0.23013870418071747,2023-10-21T15:10:13.828186Z,1697901013828
0.6692646145820618,1.420075535774231,0.27031320333480835,2023-10-21T15:10:13.834930Z,1697901013834
0.7115675806999207,1.4327131509780884,0.30769410729408264,2023-10-21T15:10:13.845956Z,1697901013845
0.7583934664726257,1.450538992881775,0.34108418226242065,2023-10-21T15:10:13.855194Z,1697901013855
0.8096093535423279,1.4767454862594604,0.3692861497402191,2023-10-21T15:10:13.866233Z,1697901013866
0.8638848066329956,1.5122640132904053,0.39043763279914856,2023-10-21T15:10:13.877610Z,1697901013877
0.9177612066268921,1.553635835647583,0.4017450213432312,2023-10-21T15:10:13.886262Z,1697901013886
0.9676467776298523,1.596869945526123,0.400281697511673,2023-10-21T15:10:13.895807Z,1697901013895
1.0107479095458984,1.6420994997024536,0.38378623127937317,2023-10-21T15:10:13.906582Z,1697901013906
1.0446701049804688,1.689590573310852,0.35159340500831604,2023-10-21T15:10:13.916089Z,1697901013916
1.065555453300476,1.7338889837265015,0.30436840653419495,2023-10-21T15:10:13.927900Z,1697901013927
1.0694133043289185,1.7656826972961426,0.24397362768650055,2023-10-21T15:10:13.936260Z,1697901013936
1.0541150569915771,1.7773891687393188,0.17360173165798187,2023-10-21T15:10:13.947345Z,1697901013947
1.018729567527771,1.7658157348632812,0.09697752445936203,2023-10-21T15:10:13.956469Z,1697901013956
0.9635229110717773,1.729632019996643,0.01849091239273548,2023-10-21T15:10:13.967670Z,1697901013967
0.889559268951416,1.6667096614837646,-0.05547273904085159,2023-10-21T15:10:13.977520Z,1697901013977
0.800563395023346,1.5767827033996582,-0.11772991716861725,2023-10-21T15:10:13.987763Z,1697901013987
0.7039849758148193,1.4654381275177002,-0.16176223754882812,2023-10-21T15:10:13.997170Z,1697901013997
0.6092689633369446,1.343318223953247,-0.18291370570659637,2023-10-21T15:10:14.011322Z,1697901014011
0.5247960686683655,1.2214645147323608,-0.1799870878458023,2023-10-21T15:10:14.017374Z,1697901014017
0.45628654956817627,1.1071933507919312,-0.15431265532970428,2023-10-21T15:10:14.028388Z,1697901014028
0.40533676743507385,1.003298282623291,-0.11041336506605148,2023-10-21T15:10:14.037591Z,1697901014037
0.3699512779712677,0.9095134735107422,-0.05520668253302574,2023-10-21T15:10:14.048679Z,1697901014048
0.3440108001232147,0.8222470283508301,0.0031926757656037807,2023-10-21T15:10:14.061034Z,1697901014060
0.3194005787372589,0.7367098927497864,0.05773421749472618,2023-10-21T15:10:14.068746Z,1697901014068
0.2860105335712433,0.6458516716957092,0.10442709922790527,2023-10-21T15:10:14.078115Z,1697901014078
0.23359742760658264,0.5416906476020813,0.14260618388652802,2023-10-21T15:10:14.088955Z,1697901014088
0.1552438586950302,0.4182405173778534,0.17466595768928528,2023-10-21T15:10:14.098440Z,1697901014098
0.04895436018705368,0.27363890409469604,0.20353306829929352,2023-10-21T15:10:14.111060Z,1697901014111
-0.08167928457260132,0.11121153831481934,0.2310699075460434,2023-10-21T15:10:14.118680Z,1697901014118
-0.23027172684669495,-0.06239020451903343,0.25714340806007385,2023-10-21T15:10:14.129621Z,1697901014129
-0.3884422183036804,-0.23785433173179626,0.2794921398162842,2023-10-21T15:10:14.138840Z,1697901014138
-0.5460805892944336,-0.40586888790130615,0.29492342472076416,2023-10-21T15:10:14.149941Z,1697901014149
-0.6924115419387817,-0.5573879480361938,0.29984545707702637,2023-10-21T15:10:14.160777Z,1697901014160
-0.8181231617927551,-0.6844298243522644,0.29106560349464417,2023-10-21T15:10:14.169975Z,1697901014169
-0.9161648750305176,-0.7811412811279297,0.2677856683731079,2023-10-21T15:10:14.179497Z,1697901014179
-0.9813486933708191,-0.8436645269393921,0.23333138227462769,2023-10-21T15:10:14.193963Z,1697901014193
-1.010880947113037,-0.8710683584213257,0.19328990578651428,2023-10-21T15:10:14.199752Z,1697901014199
-1.0042295455932617,-0.866412341594696,0.15378054976463318,2023-10-21T15:10:14.211020Z,1697901014210
-0.9647201299667358,-0.8355498313903809,0.11972533911466599,2023-10-21T15:10:14.219987Z,1697901014219
-0.8962106704711914,-0.7844670414924622,0.09511512517929077,2023-10-21T15:10:14.230935Z,1697901014230
-0.8044212460517883,-0.719549298286438,0.08141323179006577,2023-10-21T15:10:14.240190Z,1697901014240
-0.6982647776603699,-0.6342782378196716,0.07170217484235764,2023-10-21T15:10:14.251404Z,1697901014251
-0.5815990567207336,-0.5583191514015198,0.07555998861789703,2023-10-21T15:10:14.260586Z,1697901014260
-0.46413522958755493,-0.49419957399368286,0.08713343739509583,2023-10-21T15:10:14.271317Z,1697901014271
-0.3594420552253723,-0.42289650440216064,0.09152337163686752,2023-10-21T15:10:14.280821Z,1697901014280
-0.2700471580028534,-0.36303383111953735,0.09631238132715225,2023-10-21T15:10:14.294199Z,1697901014294
-0.21284504234790802,-0.31195101141929626,0.09152337163686752,2023-10-21T15:10:14.301055Z,1697901014301
-0.1597668081521988,-0.2837490439414978,0.10176653414964676,2023-10-21T15:10:14.312081Z,1697901014312
-0.11214273422956467,-0.2772306799888611,0.12398223578929901,2023-10-21T15:10:14.321257Z,1697901014321
-0.09644541144371033,-0.2781618535518646,0.1350235790014267,2023-10-21T15:10:14.332382Z,1697901014332
-0.09139034152030945,-0.29000136256217957,0.14845941960811615,2023-10-21T15:10:14.344108Z,1697901014344
-0.09139034152030945,-0.30702897906303406,0.16375765204429626,2023-10-21T15:10:14.352421Z,1697901014352
-0.09205548465251923,-0.3221941888332367,0.18012011051177979,2023-10-21T15:10:14.361843Z,1697901014361
-0.09019308537244797,-0.3309740424156189,0.1959504634141922,2023-10-21T15:10:14.372601Z,1697901014372
-0.08553709834814072,-0.33496490120887756,0.21031750738620758,2023-10-21T15:10:14.382144Z,1697901014382
-0.07994992285966873,-0.3397538959980011,0.22242307662963867,2023-10-21T15:10:14.394225Z,1697901014394
-0.07502787560224533,-0.3490658700466156,0.23279926180839539,2023-10-21T15:10:14.402293Z,1697901014402
-0.07103703171014786,-0.36196959018707275,0.24237729609012604,2023-10-21T15:10:14.413444Z,1697901014413
-0.06757830083370209,-0.3750063478946686,0.2526204586029053,2023-10-21T15:10:14.422495Z,1697901014422
-0.06425260007381439,-0.38711193203926086,0.26432693004608154,2023-10-21T15:10:14.433649Z,1697901014433
-0.0609268918633461,-0.39935052394866943,0.277762770652771,2023-10-21T15:10:14.443688Z,1697901014443
-0.05800027400255203,-0.41345149278640747,0.29159772396087646,2023-10-21T15:10:14.453733Z,1697901014453
-0.05361034348607063,-0.42728641629219055,0.3046344816684723,2023-10-21T15:10:14.463201Z,1697901014463
-0.0438992902636528,-0.43433693051338196,0.31580883264541626,2023-10-21T15:10:14.477672Z,1697901014477
-0.024610208347439766,-0.42835065722465515,0.32418960332870483,2023-10-21T15:10:14.483507Z,1697901014483
0.005853238515555859,-0.4065340459346771,0.3281804621219635,2023-10-21T15:10:14.494338Z,1697901014494
0.04642682522535324,-0.3688870668411255,0.3253868520259857,2023-10-21T15:10:14.503618Z,1697901014503
0.09431695938110352,-0.315010666847229,0.31208404898643494,2023-10-21T15:10:14.514705Z,1697901014514
0.1448676586151123,-0.2470332831144333,0.28521236777305603,2023-10-21T15:10:14.526873Z,1697901014526
0.19036328792572021,-0.17147329449653625,0.24224425852298737,2023-10-21T15:10:14.534723Z,1697901014534
0.22189095616340637,-0.09777569025754929,0.18317976593971252,2023-10-21T15:10:14.544196Z,1697901014544
0.23399652540683746,-0.033124011009931564,0.11028033494949341,2023-10-21T15:10:14.555040Z,1697901014555
0.22654694318771362,0.01888999715447426,0.029000137001276016,2023-10-21T15:10:14.564474Z,1697901014564
0.20340004563331604,0.0570690780878067,-0.05374337360262871,2023-10-21T15:10:14.577402Z,1697901014577
0.17054209113121033,0.08021597564220428,-0.1306336522102356,2023-10-21T15:10:14.584680Z,1697901014584
0.13249604403972626,0.0872664675116539,-0.19608350098133087,2023-10-21T15:10:14.595808Z,1697901014595
0.09245456755161285,0.07861963659524918,-0.24743236601352692,2023-10-21T15:10:14.604901Z,1697901014604
0.05307823419570923,0.05959661304950714,-0.28468024730682373,2023-10-21T15:10:14.616103Z,1697901014616
0.01476612500846386,0.03578457236289978,-0.30929043889045715,2023-10-21T15:10:14.626867Z,1697901014626
-0.02447718009352684,0.009311970323324203,-0.3243226408958435,2023-10-21T15:10:14.636048Z,1697901014636
-0.06744527071714401,-0.020619364455342293,-0.3341667056083679,2023-10-21T15:10:14.645532Z,1697901014645
-0.11560146510601044,-0.05467456951737404,-0.34387776255607605,2023-10-21T15:10:14.656338Z,1697901014656
-0.16761547327041626,-0.08926188945770264,-0.3589099645614624,2023-10-21T15:10:14.665835Z,1697901014665
-0.2212258130311966,-0.11972533911466599,-0.3829880356788635,2023-10-21T15:10:14.677348Z,1697901014677
-0.2727077007293701,-0.1394135057926178,-0.41691023111343384,2023-10-21T15:10:14.686070Z,1697901014686
-0.3187354505062103,-0.1427392065525055,-0.4594792425632477,2023-10-21T15:10:14.697375Z,1697901014697
-0.35970813035964966,-0.13409237563610077,-0.5069702863693237,2023-10-21T15:10:14.706199Z,1697901014706
-0.39828628301620483,-0.1251794844865799,-0.5541952848434448,2023-10-21T15:10:14.717430Z,1697901014717
-0.43606626987457275,-0.12704189121723175,-0.5942367315292358,2023-10-21T15:10:14.727360Z,1697901014727
-0.47171783447265625,-0.14207406342029572,-0.6205763220787048,2023-10-21T15:10:14.737476Z,1697901014737
-0.5013831257820129,-0.1657530814409256,-0.6270946860313416,2023-10-21T15:10:14.746869Z,1697901014746
-0.5221354961395264,-0.19501927495002747,-0.6103331446647644,2023-10-21T15:10:14.760663Z,1697901014760
-0.5315805077552795,-0.22801025211811066,-0.570956826210022,2023-10-21T15:10:14.767106Z,1697901014767
-0.5279887318611145,-0.26366180181503296,-0.5125574469566345,2023-10-21T15:10:14.778053Z,1697901014778
-0.5098969340324402,-0.2978500425815582,-0.44072225689888,2023-10-21T15:10:14.787358Z,1697901014787
-0.47730499505996704,-0.32472172379493713,-0.3611714243888855,2023-10-21T15:10:14.798411Z,1697901014798
-0.4318093955516815,-0.33935481309890747,-0.2800242602825165,2023-10-21T15:10:14.810349Z,1697901014810
-0.37633663415908813,-0.33935481309890747,-0.20273490250110626,2023-10-21T15:10:14.818456Z,1697901014818
-0.31368038058280945,-0.3248547613620758,-0.13356027007102966,2023-10-21T15:10:14.827922Z,1697901014827
-0.24690024554729462,-0.29558855295181274,-0.0746287927031517,2023-10-21T15:10:14.838774Z,1697901014838
-0.17932194471359253,-0.2542167901992798,-0.02727077156305313,2023-10-21T15:10:14.848225Z,1697901014848
-0.11427118629217148,-0.205794557929039,0.009045914746820927,2023-10-21T15:10:14.860643Z,1697901014860
-0.05374337360262871,-0.15617504715919495,0.03618365898728371,2023-10-21T15:10:14.868374Z,1697901014868
0.0015963378828018904,-0.10895005613565445,0.05680302157998085,2023-10-21T15:10:14.879530Z,1697901014879
0.052945204079151154,-0.06358745694160461,0.07436273992061615,2023-10-21T15:10:14.888587Z,1697901014888
0.10203259438276291,-0.018091829493641853,0.091656394302845,2023-10-21T15:10:14.899774Z,1697901014899
0.1509869545698166,0.030330419540405273,0.10908308625221252,2023-10-21T15:10:14.910062Z,1697901014910
0.20073948800563812,0.0839407667517662,0.12478040903806686,2023-10-21T15:10:14.919778Z,1697901014919
0.25062504410743713,0.1438034325838089,0.13515660166740417,2023-10-21T15:10:14.929221Z,1697901014929
0.2986482083797455,0.20872117578983307,0.13795019686222076,2023-10-21T15:10:14.943745Z,1697901014943
0.3425475060939789,0.274570107460022,0.13289512693881989,2023-10-21T15:10:14.949524Z,1697901014949
0.38059353828430176,0.33735939860343933,0.12172076106071472,2023-10-21T15:10:14.960460Z,1697901014960
0.4127863645553589,0.3936302959918976,0.1081518903374672,2023-10-21T15:10:14.969674Z,1697901014969
0.43979108333587646,0.44152042269706726,0.09644541144371033,2023-10-21T15:10:14.980732Z,1697901014980
0.46347007155418396,0.4795664846897125,0.09085822850465775,2023-10-21T15:10:14.993504Z,1697901014993
0.4846215546131134,0.5071033239364624,0.09351879358291626,2023-10-21T15:10:15.000812Z,1697901015000
0.5037776231765747,0.5250621438026428,0.10136745125055313,2023-10-21T15:10:15.010278Z,1697901015010
0.5212042927742004,0.5366355776786804,0.10615646839141846,2023-10-21T15:10:15.021025Z,1697901015021
0.5349062085151672,0.5458145141601562,0.09857386350631714,2023-10-21T15:10:15.030581Z,1697901015030
0.5402273535728455,0.5540622472763062,0.07276640087366104,2023-10-21T15:10:15.043829Z,1697901015043
0.5301172137260437,0.5572549104690552,0.029133165255188942,2023-10-21T15:10:15.050782Z,1697901015050
0.49978676438331604,0.5503374934196472,-0.027669856324791908,2023-10-21T15:10:15.061751Z,1697901015061
0.4500342309474945,0.5301172137260437,-0.08979400247335434,2023-10-21T15:10:15.076817Z,1697901015076
0.3868458569049835,0.49579593539237976,-0.14686307311058044,2023-10-21T15:10:15.081857Z,1697901015081
0.3192675709724426,0.4483048617839813,-0.1887669414281845,2023-10-21T15:10:15.093462Z,1697901015093
0.2558131217956543,0.38884130120277405,-0.20832209289073944,2023-10-21T15:10:15.102105Z,1697901015102
0.20951934158802032,0.3303089141845703,-0.19661560654640198,2023-10-21T15:10:15.111658Z,1697901015111
0.1712072342634201,0.2575424909591675,-0.1673494130373001,2023-10-21T15:10:15.122385Z,1697901015122
0.14007864892482758,0.1734687089920044,-0.12597766518592834,2023-10-21T15:10:15.131911Z,1697901015131
0.12331710010766983,0.09644541144371033,-0.06771133095026016,2023-10-21T15:10:15.143774Z,1697901015143
0.10336287319660187,0.011706477031111717,-0.007582604885101318,2023-10-21T15:10:15.152095Z,1697901015152
0.06771133095026016,-0.08606921136379242,0.04709196463227272,2023-10-21T15:10:15.163149Z,1697901015163
0.006651407573372126,-0.20167067646980286,0.09272062033414841,2023-10-21T15:10:15.172290Z,1697901015172
-0.0839407667517662,-0.33669424057006836,0.12850520014762878,2023-10-21T15:10:15.183456Z,1697901015183
-0.2014046162366867,-0.48661696910858154,0.15431265532970428,2023-10-21T15:10:15.193365Z,1697901015193
-0.33842360973358154,-0.6414617300033569,0.16974392533302307,2023-10-21T15:10:15.203407Z,1697901015203
-0.4839564263820648,-0.7881917953491211,0.17320264875888824,2023-10-21T15:10:15.212924Z,1697901015212
-0.6252323389053345,-0.9152336716651917,0.16349159181118011,2023-10-21T15:10:15.226996Z,1697901015226
-0.7493475675582886,-1.0144727230072021,0.13954652845859528,2023-10-21T15:10:15.233193Z,1697901015233
-0.8463250994682312,-1.08058762550354,0.10136745125055313,2023-10-21T15:10:15.244161Z,1697901015244
-0.910976767539978,-1.111849308013916,0.05148189514875412,2023-10-21T15:10:15.253393Z,1697901015253
-0.9423714280128479,-1.1115832328796387,-0.0047890134155750275,2023-10-21T15:10:15.264470Z,1697901015264
-0.9438347220420837,-1.0877711772918701,-0.0609268918633461,2023-10-21T15:10:15.276647Z,1697901015276
-0.919623613357544,-1.0506563186645508,-0.11001428216695786,2023-10-21T15:10:15.284491Z,1697901015284
-0.8753252625465393,-1.0114130973815918,-0.14619794487953186,2023-10-21T15:10:15.293988Z,1697901015293
-0.8163937926292419,-0.9794862866401672,-0.16495491564273834,2023-10-21T15:10:15.304755Z,1697901015304
-0.7477512359619141,-0.9589999318122864,-0.1641567349433899,2023-10-21T15:10:15.314281Z,1697901015314
-0.6731224656105042,-0.9496879577636719,-0.14473463594913483,2023-10-21T15:10:15.326901Z,1697901015326
-0.5964982509613037,-0.9515503644943237,-0.1097482219338417,2023-10-21T15:10:15.334486Z,1697901015334
-0.521869421005249,-0.9656513333320618,-0.06318837404251099,2023-10-21T15:10:15.345470Z,1697901015345
-0.45242875814437866,-0.9915918707847595,-0.009311970323324203,2023-10-21T15:10:15.354672Z,1697901015354
-0.3907036781311035,-1.0261791944503784,0.046958938241004944,2023-10-21T15:10:15.365843Z,1697901015365
-0.33789151906967163,-1.0654224157333374,0.10136745125055313,2023-10-21T15:10:15.376632Z,1697901015376
-0.2947903871536255,-1.1066612005233765,0.15138603746891022,2023-10-21T15:10:15.385813Z,1697901015385
