ACC_X,ACC_Y,ACC_Z,DATE,UNIX_TIMESTAMP
-0.01027071475982666,-0.10892915725708008,-0.17932796478271484,2023-10-21T15:13:08.824642Z,1697901188824
-0.006835579872131348,-0.083251953125,-0.1366424560546875,2023-10-21T15:13:08.844915Z,1697901188844
-0.00461733341217041,-0.06585359573364258,-0.10751819610595703,2023-10-21T15:13:08.865098Z,1697901188865
1.2612342834472656E-4,0.0016355514526367188,0.0026769638061523438,2023-10-21T15:13:08.885469Z,1697901188885
0.00308072566986084,0.03472137451171875,0.05791759490966797,2023-10-21T15:13:08.905683Z,1697901188905
0.006944060325622559,0.06939554214477539,0.11680412292480469,2023-10-21T15:13:08.925972Z,1697901188925
0.0061768293380737305,0.07013368606567383,0.1168985366821289,2023-10-21T15:13:08.946324Z,1697901188946
0.004881769418716431,0.05127906799316406,0.08457756042480469,2023-10-21T15:13:08.969321Z,1697901188969
5.249977111816406E-4,0.006855964660644531,0.011179924011230469,2023-10-21T15:13:08.986784Z,1697901188986
-0.0014360547065734863,-0.018763065338134766,-0.030385971069335938,2023-10-21T15:13:09.007131Z,1697901189007
2.7883052825927734E-4,0.0033292770385742188,0.005473136901855469,2023-10-21T15:13:09.027419Z,1697901189027
7.653534412384033E-4,0.009068965911865234,0.014885902404785156,2023-10-21T15:13:09.047649Z,1697901189047
0.0011427104473114014,0.013154029846191406,0.021569252014160156,2023-10-21T15:13:09.069167Z,1697901189069
0.0011029839515686035,0.012593746185302734,0.02062511444091797,2023-10-21T15:13:09.088224Z,1697901189088
7.409751415252686E-4,0.008503913879394531,0.013897895812988281,2023-10-21T15:13:09.108498Z,1697901189108
-2.682209014892578E-6,-2.956390380859375E-5,-4.863739013671875E-5,2023-10-21T15:13:09.128762Z,1697901189128
-8.018016815185547E-4,-0.009545326232910156,-0.015508651733398438,2023-10-21T15:13:09.148912Z,1697901189148
-0.0015225112438201904,-0.01850605010986328,-0.030028343200683594,2023-10-21T15:13:09.169226Z,1697901189169
-0.0020163655281066895,-0.024263381958007812,-0.03936958312988281,2023-10-21T15:13:09.189476Z,1697901189189
-0.0022825002670288086,-0.02706146240234375,-0.04396629333496094,2023-10-21T15:13:09.209759Z,1697901189209
-0.0023584365844726562,-0.02740955352783203,-0.044663429260253906,2023-10-21T15:13:09.229955Z,1697901189229
-0.0024410784244537354,-0.027698993682861328,-0.04526710510253906,2023-10-21T15:13:09.252246Z,1697901189252
-0.002253621816635132,-0.025428295135498047,-0.041667938232421875,2023-10-21T15:13:09.270599Z,1697901189270
-0.0021337270736694336,-0.023752689361572266,-0.038977622985839844,2023-10-21T15:13:09.290835Z,1697901189290
-0.002040266990661621,-0.022730350494384766,-0.037273406982421875,2023-10-21T15:13:09.311074Z,1697901189311
-0.0019148588180541992,-0.021004676818847656,-0.034404754638671875,2023-10-21T15:13:09.331307Z,1697901189331
-0.0017457306385040283,-0.018564224243164062,-0.03036022186279297,2023-10-21T15:13:09.352153Z,1697901189352
-0.0015115141868591309,-0.01548624038696289,-0.025279998779296875,2023-10-21T15:13:09.372041Z,1697901189371
-0.0012028813362121582,-0.01206827163696289,-0.019655227661132812,2023-10-21T15:13:09.392249Z,1697901189392
-0.0011942386627197266,-0.011869430541992188,-0.01928234100341797,2023-10-21T15:13:09.412416Z,1697901189412
-0.0013919472694396973,-0.013918399810791016,-0.02252960205078125,2023-10-21T15:13:09.435728Z,1697901189435
-0.0017731785774230957,-0.018029212951660156,-0.029092788696289062,2023-10-21T15:13:09.452964Z,1697901189452
-0.0021132826805114746,-0.021760940551757812,-0.03502655029296875,2023-10-21T15:13:09.473217Z,1697901189473
-0.002386718988418579,-0.024777889251708984,-0.03983116149902344,2023-10-21T15:13:09.493534Z,1697901189493
-0.0012422502040863037,-0.013725757598876953,-0.022355079650878906,2023-10-21T15:13:09.513789Z,1697901189513
-0.0013490021228790283,-0.01483011245727539,-0.024135589599609375,2023-10-21T15:13:09.535637Z,1697901189535
-0.001474618911743164,-0.016151905059814453,-0.026264190673828125,2023-10-21T15:13:09.554317Z,1697901189554
-0.0016039609909057617,-0.01753997802734375,-0.028504371643066406,2023-10-21T15:13:09.574592Z,1697901189574
-0.0017157495021820068,-0.018767833709716797,-0.03048419952392578,2023-10-21T15:13:09.594865Z,1697901189594
-0.0017921626567840576,-0.019613265991210938,-0.031844139099121094,2023-10-21T15:13:09.615033Z,1697901189614
-0.0018182694911956787,-0.019909381866455078,-0.032317161560058594,2023-10-21T15:13:09.635327Z,1697901189635
-0.0017966628074645996,-0.019673824310302734,-0.03192710876464844,2023-10-21T15:13:09.655637Z,1697901189655
-0.001753300428390503,-0.019182205200195312,-0.03112316131591797,2023-10-21T15:13:09.675879Z,1697901189675
-0.0017172694206237793,-0.01877117156982422,-0.03044414520263672,2023-10-21T15:13:09.696073Z,1697901189695
-0.0017142891883850098,-0.01873016357421875,-0.030358314514160156,2023-10-21T15:13:09.718545Z,1697901189718
-0.0017718374729156494,-0.019367218017578125,-0.03135967254638672,2023-10-21T15:13:09.736644Z,1697901189736
-0.001902848482131958,-0.020856380462646484,-0.03372383117675781,2023-10-21T15:13:09.756954Z,1697901189756
-0.0021349191665649414,-0.023509502410888672,-0.037947654724121094,2023-10-21T15:13:09.777110Z,1697901189777
-0.0024746954441070557,-0.027460575103759766,-0.044239044189453125,2023-10-21T15:13:09.797347Z,1697901189797
-0.002953261137008667,-0.03304862976074219,-0.0531463623046875,2023-10-21T15:13:09.818648Z,1697901189818
-0.003566563129425049,-0.04030132293701172,-0.06472015380859375,2023-10-21T15:13:09.838063Z,1697901189838
-0.004298865795135498,-0.048999786376953125,-0.078582763671875,2023-10-21T15:13:09.858265Z,1697901189858
-0.005243629217147827,-0.05951261520385742,-0.09531402587890625,2023-10-21T15:13:09.878519Z,1697901189878
-0.006506741046905518,-0.07205867767333984,-0.1152191162109375,2023-10-21T15:13:09.898648Z,1697901189898
-0.008237361907958984,-0.08721113204956055,-0.13920974731445312,2023-10-21T15:13:09.918985Z,1697901189918
-0.010428428649902344,-0.1045827865600586,-0.1666116714477539,2023-10-21T15:13:09.939285Z,1697901189939
-0.013017416000366211,-0.12358808517456055,-0.1963348388671875,2023-10-21T15:13:09.959553Z,1697901189959
-0.01608145236968994,-0.14421796798706055,-0.22817325592041016,2023-10-21T15:13:09.979753Z,1697901189979
-0.01973259449005127,-0.1664443016052246,-0.26181936264038086,2023-10-21T15:13:10.001880Z,1697901190001
-0.02404201030731201,-0.19014883041381836,-0.29670238494873047,2023-10-21T15:13:10.020432Z,1697901190020
-0.029111146926879883,-0.2153635025024414,-0.3325157165527344,2023-10-21T15:13:10.040683Z,1697901190040
-0.034940361976623535,-0.2419753074645996,-0.368959903717041,2023-10-21T15:13:10.060848Z,1697901190060
-0.04122835397720337,-0.2693777084350586,-0.40494680404663086,2023-10-21T15:13:10.081051Z,1697901190081
-0.04772675037384033,-0.2970242500305176,-0.4396500587463379,2023-10-21T15:13:10.101782Z,1697901190101
-0.054236412048339844,-0.323976993560791,-0.47158098220825195,2023-10-21T15:13:10.121723Z,1697901190121
-0.06109893321990967,-0.35016965866088867,-0.5008177757263184,2023-10-21T15:13:10.141928Z,1697901190141
-0.06876993179321289,-0.3758687973022461,-0.528022289276123,2023-10-21T15:13:10.162115Z,1697901190162
-0.07727670669555664,-0.40084218978881836,-0.5529980659484863,2023-10-21T15:13:10.185449Z,1697901190185
-0.08656620979309082,-0.4250202178955078,-0.5756626129150391,2023-10-21T15:13:10.202734Z,1697901190202
-0.0966038703918457,-0.44829416275024414,-0.5957679748535156,2023-10-21T15:13:10.222982Z,1697901190222
-0.1073753833770752,-0.4704775810241699,-0.6127915382385254,2023-10-21T15:13:10.243240Z,1697901190243
-0.11895978450775146,-0.49167776107788086,-0.626436710357666,2023-10-21T15:13:10.263463Z,1697901190263
-0.13130676746368408,-0.5119433403015137,-0.6363415718078613,2023-10-21T15:13:10.285022Z,1697901190284
-0.14419734477996826,-0.5313491821289062,-0.6421947479248047,2023-10-21T15:13:10.304028Z,1697901190303
-0.15711569786071777,-0.549591064453125,-0.6431937217712402,2023-10-21T15:13:10.324375Z,1697901190324
-0.16959357261657715,-0.5663318634033203,-0.6387715339660645,2023-10-21T15:13:10.344507Z,1697901190344
-0.1811925172805786,-0.5814094543457031,-0.62921142578125,2023-10-21T15:13:10.364691Z,1697901190364
-0.19106829166412354,-0.5944242477416992,-0.6146836280822754,2023-10-21T15:13:10.385081Z,1697901190385
-0.1987135410308838,-0.6048355102539062,-0.5957069396972656,2023-10-21T15:13:10.405387Z,1697901190405
-0.2034592628479004,-0.6107015609741211,-0.5714373588562012,2023-10-21T15:13:10.425590Z,1697901190425
-0.20560622215270996,-0.6109504699707031,-0.5422840118408203,2023-10-21T15:13:10.445817Z,1697901190445
-0.20551443099975586,-0.6048440933227539,-0.5090937614440918,2023-10-21T15:13:10.468359Z,1697901190468
-0.2031691074371338,-0.5922346115112305,-0.47295713424682617,2023-10-21T15:13:10.486436Z,1697901190486
-0.19857501983642578,-0.5732145309448242,-0.4349555969238281,2023-10-21T15:13:10.506685Z,1697901190506
-0.19202041625976562,-0.5483698844909668,-0.3962569236755371,2023-10-21T15:13:10.526941Z,1697901190526
-0.18363285064697266,-0.518059253692627,-0.3574104309082031,2023-10-21T15:13:10.547112Z,1697901190547
-0.17308902740478516,-0.48131847381591797,-0.31768798828125,2023-10-21T15:13:10.568001Z,1697901190567
-0.1602790355682373,-0.43749284744262695,-0.2766718864440918,2023-10-21T15:13:10.587931Z,1697901190587
-0.14452576637268066,-0.3855295181274414,-0.23371315002441406,2023-10-21T15:13:10.608041Z,1697901190607
-0.12560081481933594,-0.3262453079223633,-0.1894984245300293,2023-10-21T15:13:10.628219Z,1697901190628
-0.10267376899719238,-0.25957202911376953,-0.1442575454711914,2023-10-21T15:13:10.651461Z,1697901190651
-0.07515335083007812,-0.18535470962524414,-0.09835481643676758,2023-10-21T15:13:10.668760Z,1697901190668
-0.0428318977355957,-0.10335063934326172,-0.0522465705871582,2023-10-21T15:13:10.689059Z,1697901190689
-0.0058155059814453125,-0.013761520385742188,-0.006615400314331055,2023-10-21T15:13:10.709299Z,1697901190709
0.03541088104248047,0.08229255676269531,0.037545204162597656,2023-10-21T15:13:10.729500Z,1697901190729
0.0799407958984375,0.18244075775146484,0.07889676094055176,2023-10-21T15:13:10.751457Z,1697901190751
0.12704753875732422,0.2842111587524414,0.11636114120483398,2023-10-21T15:13:10.770099Z,1697901190770
0.1765904426574707,0.38584327697753906,0.14939117431640625,2023-10-21T15:13:10.790388Z,1697901190790
0.22890138626098633,0.4862947463989258,0.1778852939605713,2023-10-21T15:13:10.810604Z,1697901190810
0.28421926498413086,0.5844249725341797,0.2018146514892578,2023-10-21T15:13:10.830849Z,1697901190830
0.34223461151123047,0.6783580780029297,0.22101426124572754,2023-10-21T15:13:10.851264Z,1697901190851
0.40242767333984375,0.7662315368652344,0.2354271411895752,2023-10-21T15:13:10.871505Z,1697901190871
0.46386146545410156,0.845921516418457,0.24509549140930176,2023-10-21T15:13:10.891736Z,1697901190891
0.5252604484558105,0.9153041839599609,0.2501511573791504,2023-10-21T15:13:10.911942Z,1697901190911
0.5851387977600098,0.9728107452392578,0.25085926055908203,2023-10-21T15:13:10.934905Z,1697901190934
0.642143726348877,1.0180845260620117,0.2478160858154297,2023-10-21T15:13:10.952453Z,1697901190952
0.6941313743591309,1.050175666809082,0.2415452003479004,2023-10-21T15:13:10.972751Z,1697901190972
0.7378349304199219,1.0669670104980469,0.2324833869934082,2023-10-21T15:13:10.992984Z,1697901190992
0.7693934440612793,1.0655550956726074,0.2206639051437378,2023-10-21T15:13:11.013232Z,1697901191013
0.7857027053833008,1.0440349578857422,0.20613861083984375,2023-10-21T15:13:11.034893Z,1697901191034
0.7856111526489258,1.0032539367675781,0.18914246559143066,2023-10-21T15:13:11.053789Z,1697901191053
0.7695188522338867,0.9459953308105469,0.1701258420944214,2023-10-21T15:13:11.074077Z,1697901191074
0.7395257949829102,0.876582145690918,0.14976906776428223,2023-10-21T15:13:11.094288Z,1697901191094
0.6988811492919922,0.7999153137207031,0.12883615493774414,2023-10-21T15:13:11.114662Z,1697901191114
0.6519107818603516,0.7212815284729004,0.10822820663452148,2023-10-21T15:13:11.134820Z,1697901191134
0.6033425331115723,0.6458258628845215,0.08877921104431152,2023-10-21T15:13:11.155124Z,1697901191155
0.5588679313659668,0.5792732238769531,0.07126861810684204,2023-10-21T15:13:11.175367Z,1697901191175
0.524045467376709,0.5264687538146973,0.05611985921859741,2023-10-21T15:13:11.195585Z,1697901191195
0.5031452178955078,0.49031686782836914,0.04341459274291992,2023-10-21T15:13:11.218043Z,1697901191218
0.4970970153808594,0.4700770378112793,0.0328141450881958,2023-10-21T15:13:11.236311Z,1697901191236
0.5043187141418457,0.4626274108886719,0.023920893669128418,2023-10-21T15:13:11.256440Z,1697901191256
0.5210561752319336,0.4632759094238281,0.016473636031150818,2023-10-21T15:13:11.276734Z,1697901191276
0.5432863235473633,0.4677419662475586,0.010385707020759583,2023-10-21T15:13:11.296870Z,1697901191296
0.5666494369506836,0.47214412689208984,0.005663365125656128,2023-10-21T15:13:11.317825Z,1697901191317
0.5868716239929199,0.47329092025756836,0.0023814551532268524,2023-10-21T15:13:11.337464Z,1697901191337
0.600855827331543,0.4693312644958496,6.324946880340576E-4,2023-10-21T15:13:11.357799Z,1697901191357
0.6052517890930176,0.45841312408447266,4.6105263754725456E-4,2023-10-21T15:13:11.378004Z,1697901191377
0.597999095916748,0.4397726058959961,0.0017024427652359009,2023-10-21T15:13:11.401298Z,1697901191401
0.579442024230957,0.41451549530029297,0.00385289266705513,2023-10-21T15:13:11.418593Z,1697901191418
0.552281379699707,0.3853020668029785,0.006259307265281677,2023-10-21T15:13:11.438802Z,1697901191438
0.5187215805053711,0.3540821075439453,0.008363574743270874,2023-10-21T15:13:11.459071Z,1697901191459
0.4814014434814453,0.3227357864379883,0.009721845388412476,2023-10-21T15:13:11.479275Z,1697901191479
0.4428520202636719,0.29279470443725586,0.010100439190864563,2023-10-21T15:13:11.500916Z,1697901191500
0.4062538146972656,0.2660703659057617,0.009557157754898071,2023-10-21T15:13:11.519854Z,1697901191519
0.3735647201538086,0.24348926544189453,0.008317425847053528,2023-10-21T15:13:11.540140Z,1697901191540
0.3428459167480469,0.22345638275146484,0.006610989570617676,2023-10-21T15:13:11.560365Z,1697901191560
0.30975914001464844,0.2029409408569336,0.0046829283237457275,2023-10-21T15:13:11.580584Z,1697901191580
0.2709197998046875,0.17934513092041016,0.0027999654412269592,2023-10-21T15:13:11.601121Z,1697901191601
0.22484970092773438,0.1510753631591797,0.0012597590684890747,2023-10-21T15:13:11.621193Z,1697901191621
0.17359256744384766,0.11876535415649414,2.1296460181474686E-4,2023-10-21T15:13:11.641459Z,1697901191641
0.12032127380371094,0.08401966094970703,-3.282874822616577E-4,2023-10-21T15:13:11.661696Z,1697901191661
0.0647735595703125,0.046285152435302734,-3.9570778608322144E-4,2023-10-21T15:13:11.684419Z,1697901191684
0.005049705505371094,0.0037031173706054688,-4.325062036514282E-5,2023-10-21T15:13:11.702268Z,1697901191702
-0.05992603302001953,-0.04524850845336914,6.138607859611511E-4,2023-10-21T15:13:11.722577Z,1697901191722
-0.12579584121704102,-0.09807872772216797,0.001366540789604187,2023-10-21T15:13:11.742798Z,1697901191742
-0.18575334548950195,-0.1499171257019043,0.0019698217511177063,2023-10-21T15:13:11.762969Z,1697901191762
-0.23374509811401367,-0.19556427001953125,0.002338781952857971,2023-10-21T15:13:11.784197Z,1697901191784
-0.26737070083618164,-0.2321610450744629,0.0025816932320594788,2023-10-21T15:13:11.803542Z,1697901191803
-0.2857489585876465,-0.2578263282775879,0.002907365560531616,2023-10-21T15:13:11.823819Z,1697901191823
-0.2881283760070801,-0.2705674171447754,0.0033978745341300964,2023-10-21T15:13:11.844042Z,1697901191844
-0.27344417572021484,-0.26753902435302734,0.003939323127269745,2023-10-21T15:13:11.867716Z,1697901191867
-0.24052762985229492,-0.24503087997436523,0.004343368113040924,2023-10-21T15:13:11.884760Z,1697901191884
-0.18937158584594727,-0.20038938522338867,0.004319235682487488,2023-10-21T15:13:11.904865Z,1697901191904
-0.1233663558959961,-0.13515281677246094,0.0034859776496887207,2023-10-21T15:13:11.925099Z,1697901191925
-0.04986000061035156,-0.056355953216552734,0.0016822367906570435,2023-10-21T15:13:11.945376Z,1697901191945
0.023679256439208984,0.027517318725585938,-9.155720472335815E-4,2023-10-21T15:13:11.967560Z,1697901191967
0.09194421768188477,0.10943078994750977,-0.003919005393981934,2023-10-21T15:13:11.985909Z,1697901191985
0.1518845558166504,0.1843876838684082,-0.006915748119354248,2023-10-21T15:13:12.006188Z,1697901192006
0.19968128204345703,0.2463703155517578,-0.009485602378845215,2023-10-21T15:13:12.026409Z,1697901192026
0.22997379302978516,0.2876715660095215,-0.01112326979637146,2023-10-21T15:13:12.046649Z,1697901192046
0.23900175094604492,0.3026247024536133,-0.01152077317237854,2023-10-21T15:13:12.067306Z,1697901192067
0.2292041778564453,0.2931547164916992,-0.010977774858474731,2023-10-21T15:13:12.087212Z,1697901192087
0.20701932907104492,0.2667117118835449,-0.010041624307632446,2023-10-21T15:13:12.107532Z,1697901192107
0.18054580688476562,0.2335658073425293,-0.00920259952545166,2023-10-21T15:13:12.127687Z,1697901192127
0.1546034812927246,0.20017623901367188,-0.008517444133758545,2023-10-21T15:13:12.150619Z,1697901192150
0.13131475448608398,0.16950750350952148,-0.007927030324935913,2023-10-21T15:13:12.168249Z,1697901192168
0.11219263076782227,0.14359426498413086,-0.0074568986892700195,2023-10-21T15:13:12.188553Z,1697901192188
0.09877204895019531,0.12455368041992188,-0.007229417562484741,2023-10-21T15:13:12.208830Z,1697901192208
0.09291219711303711,0.11476945877075195,-0.007463812828063965,2023-10-21T15:13:12.229184Z,1697901192229
0.09659576416015625,0.11630105972290039,-0.008485734462738037,2023-10-21T15:13:12.250750Z,1697901192250
0.11133050918579102,0.1301736831665039,-0.01065129041671753,2023-10-21T15:13:12.269642Z,1697901192269
0.13587617874145508,0.154052734375,-0.013964295387268066,2023-10-21T15:13:12.289890Z,1697901192289
0.1655445098876953,0.18200206756591797,-0.01784569025039673,2023-10-21T15:13:12.310127Z,1697901192310
0.1945662498474121,0.20746135711669922,-0.021377623081207275,2023-10-21T15:13:12.330335Z,1697901192330
0.22000932693481445,0.22742176055908203,-0.024041354656219482,2023-10-21T15:13:12.350620Z,1697901192350
0.23986339569091797,0.240325927734375,-0.025585651397705078,2023-10-21T15:13:12.370958Z,1697901192370
0.2514767646789551,0.24457979202270508,-0.025749027729034424,2023-10-21T15:13:12.391186Z,1697901192391
0.2525181770324707,0.23902273178100586,-0.024344265460968018,2023-10-21T15:13:12.411407Z,1697901192411
0.24454069137573242,0.2257537841796875,-0.02176189422607422,2023-10-21T15:13:12.433904Z,1697901192433
0.23115015029907227,0.20840787887573242,-0.01861363649368286,2023-10-21T15:13:12.451966Z,1697901192451
0.21532058715820312,0.18980789184570312,-0.015377700328826904,2023-10-21T15:13:12.472263Z,1697901192472
0.1976909637451172,0.170562744140625,-0.012261241674423218,2023-10-21T15:13:12.492518Z,1697901192492
0.17927074432373047,0.15149736404418945,-0.00943419337272644,2023-10-21T15:13:12.512723Z,1697901192512
0.16240406036376953,0.13448047637939453,-0.00703856348991394,2023-10-21T15:13:12.533670Z,1697901192533
0.14972972869873047,0.12153434753417969,-0.005152463912963867,2023-10-21T15:13:12.553295Z,1697901192553
0.14404010772705078,0.11470317840576172,-0.003742501139640808,2023-10-21T15:13:12.573587Z,1697901192573
0.1457233428955078,0.11404037475585938,-0.002646148204803467,2023-10-21T15:13:12.593756Z,1697901192593
0.15614652633666992,0.12036561965942383,-0.0017328858375549316,2023-10-21T15:13:12.617010Z,1697901192616
0.17465448379516602,0.132965087890625,-8.315257728099823E-4,2023-10-21T15:13:12.634415Z,1697901192634
0.19760608673095703,0.14908456802368164,2.161376178264618E-4,2023-10-21T15:13:12.654677Z,1697901192654
0.21866989135742188,0.16410207748413086,0.0015075206756591797,2023-10-21T15:13:12.674912Z,1697901192674
0.23292255401611328,0.17454910278320312,0.003035217523574829,2023-10-21T15:13:12.695129Z,1697901192695
0.24012184143066406,0.18023204803466797,0.004673421382904053,2023-10-21T15:13:12.716954Z,1697901192716
0.24152374267578125,0.18193435668945312,0.0062112957239151,2023-10-21T15:13:12.735671Z,1697901192735
0.23418664932250977,0.17748546600341797,0.00734102725982666,2023-10-21T15:13:12.755978Z,1697901192755
0.2149519920349121,0.16443252563476562,0.007692933082580566,2023-10-21T15:13:12.776168Z,1697901192776
0.18483734130859375,0.1431751251220703,0.007050186395645142,2023-10-21T15:13:12.796413Z,1697901192796
0.14742326736450195,0.11590385437011719,0.005543142557144165,2023-10-21T15:13:12.816950Z,1697901192816
0.10656070709228516,0.08519172668457031,0.00361064076423645,2023-10-21T15:13:12.836982Z,1697901192836
0.06554985046386719,0.05335092544555664,0.0017771273851394653,2023-10-21T15:13:12.857246Z,1697901192857
0.030038833618164062,0.02489948272705078,5.199313163757324E-4,2023-10-21T15:13:12.877534Z,1697901192877
0.0065593719482421875,0.005534172058105469,2.8170645236968994E-5,2023-10-21T15:13:12.900102Z,1697901192900
-0.0033555030822753906,-0.002879619598388672,4.1484832763671875E-5,2023-10-21T15:13:12.918106Z,1697901192918
-0.0025811195373535156,-0.0022530555725097656,8.03917646408081E-5,2023-10-21T15:13:12.938396Z,1697901192938
0.006774425506591797,0.006011486053466797,-3.489553928375244E-4,2023-10-21T15:13:12.958621Z,1697901192958
0.02387857437133789,0.021518230438232422,-0.001728832721710205,2023-10-21T15:13:12.978847Z,1697901192978
0.04764223098754883,0.043506622314453125,-0.00440824031829834,2023-10-21T15:13:12.999905Z,1697901192999
0.07567167282104492,0.06987285614013672,-0.008378207683563232,2023-10-21T15:13:13.019362Z,1697901193019
0.105926513671875,0.0986948013305664,-0.013390660285949707,2023-10-21T15:13:13.039661Z,1697901193039
0.1390852928161621,0.1304492950439453,-0.019385457038879395,2023-10-21T15:13:13.059850Z,1697901193059
0.1753396987915039,0.1650547981262207,-0.02623605728149414,2023-10-21T15:13:13.083362Z,1697901193083
0.21201419830322266,0.19956445693969727,-0.03331589698791504,2023-10-21T15:13:13.100488Z,1697901193100
0.24461841583251953,0.2292461395263672,-0.03963172435760498,2023-10-21T15:13:13.120680Z,1697901193120
0.27030086517333984,0.2510805130004883,-0.04460716247558594,2023-10-21T15:13:13.140903Z,1697901193140
0.2899026870727539,0.26582908630371094,-0.04851078987121582,2023-10-21T15:13:13.161140Z,1697901193161
0.30609846115112305,0.2762937545776367,-0.051993489265441895,2023-10-21T15:13:13.183247Z,1697901193183
0.3202838897705078,0.2840919494628906,-0.0554579496383667,2023-10-21T15:13:13.201702Z,1697901193201
0.3312969207763672,0.28848791122436523,-0.05873763561248779,2023-10-21T15:13:13.222016Z,1697901193221
0.3380579948425293,0.2886805534362793,-0.06150543689727783,2023-10-21T15:13:13.242256Z,1697901193242
0.34157562255859375,0.2853426933288574,-0.06368088722229004,2023-10-21T15:13:13.262542Z,1697901193262
0.3437027931213379,0.2799654006958008,-0.06534266471862793,2023-10-21T15:13:13.283121Z,1697901193283
0.3453035354614258,0.2735419273376465,-0.06640744209289551,2023-10-21T15:13:13.303050Z,1697901193303
0.34692955017089844,0.26700401306152344,-0.06678509712219238,2023-10-21T15:13:13.323342Z,1697901193323
0.34842967987060547,0.2605757713317871,-0.06617021560668945,2023-10-21T15:13:13.343512Z,1697901193343
0.3491802215576172,0.2538118362426758,-0.06425702571868896,2023-10-21T15:13:13.366173Z,1697901193366
0.3488941192626953,0.24627304077148438,-0.06096374988555908,2023-10-21T15:13:13.384100Z,1697901193384
0.34807872772216797,0.23820924758911133,-0.056542277336120605,2023-10-21T15:13:13.404381Z,1697901193404
0.3486356735229492,0.23097944259643555,-0.05155014991760254,2023-10-21T15:13:13.424619Z,1697901193424
0.3500814437866211,0.22448062896728516,-0.04614150524139404,2023-10-21T15:13:13.444883Z,1697901193444
0.34888267517089844,0.21693944931030273,-0.04017287492752075,2023-10-21T15:13:13.466225Z,1697901193466
0.3410348892211914,0.20642328262329102,-0.033698976039886475,2023-10-21T15:13:13.485420Z,1697901193485
0.32596302032470703,0.1929774284362793,-0.027309536933898926,2023-10-21T15:13:13.505697Z,1697901193505
0.3048534393310547,0.1773819923400879,-0.02161651849746704,2023-10-21T15:13:13.525943Z,1697901193525
0.2802114486694336,0.16097259521484375,-0.017048418521881104,2023-10-21T15:13:13.546123Z,1697901193546
0.25489234924316406,0.14519548416137695,-0.013688147068023682,2023-10-21T15:13:13.566445Z,1697901193566
0.2312154769897461,0.13114261627197266,-0.011364907026290894,2023-10-21T15:13:13.586748Z,1697901193586
0.21195697784423828,0.12016582489013672,-0.009872108697891235,2023-10-21T15:13:13.607035Z,1697901193606
0.19771766662597656,0.11242198944091797,-0.008932501077651978,2023-10-21T15:13:13.627224Z,1697901193627
0.18839550018310547,0.10773372650146484,-0.008328557014465332,2023-10-21T15:13:13.649365Z,1697901193649
0.1825408935546875,0.10519981384277344,-0.00782737135887146,2023-10-21T15:13:13.667772Z,1697901193667
0.17839717864990234,0.10374832153320312,-0.007226824760437012,2023-10-21T15:13:13.688077Z,1697901193688
0.173736572265625,0.10199594497680664,-0.006350904703140259,2023-10-21T15:13:13.708312Z,1697901193708
0.1669635772705078,0.09893131256103516,-0.0051520466804504395,2023-10-21T15:13:13.728488Z,1697901193728
0.15607738494873047,0.09332942962646484,-0.003695160150527954,2023-10-21T15:13:13.749153Z,1697901193749
0.1378002166748047,0.08322334289550781,-0.0021414905786514282,2023-10-21T15:13:13.769084Z,1697901193769
0.10724067687988281,0.06554555892944336,-7.680617272853851E-4,2023-10-21T15:13:13.789460Z,1697901193789
0.061260223388671875,0.037989139556884766,4.084128886461258E-5,2023-10-21T15:13:13.809658Z,1697901193809
0.0017261505126953125,0.0010886192321777344,1.181289553642273E-5,2023-10-21T15:13:13.832645Z,1697901193832
-0.06511878967285156,-0.04182004928588867,-6.181448698043823E-4,2023-10-21T15:13:13.850172Z,1697901193850
-0.13257980346679688,-0.08685493469238281,-0.0010268837213516235,2023-10-21T15:13:13.870518Z,1697901193870
-0.19689607620239258,-0.1318511962890625,-1.8066400662064552E-4,2023-10-21T15:13:13.890753Z,1697901193890
-0.25577735900878906,-0.17556333541870117,0.002812996506690979,2023-10-21T15:13:13.910898Z,1697901193910
-0.302823543548584,-0.21355915069580078,0.008434697985649109,2023-10-21T15:13:13.932369Z,1697901193932
-0.3283195495605469,-0.2381148338317871,0.01619786024093628,2023-10-21T15:13:13.951467Z,1697901193951
-0.3237795829772949,-0.24116802215576172,0.02403336763381958,2023-10-21T15:13:13.971766Z,1697901193971
-0.2863154411315918,-0.21824264526367188,0.028789401054382324,2023-10-21T15:13:13.991965Z,1697901193991
-0.22139883041381836,-0.17190885543823242,0.027882277965545654,2023-10-21T15:13:14.012170Z,1697901194012
-0.1387934684753418,-0.10925006866455078,0.020583271980285645,2023-10-21T15:13:14.032498Z,1697901194032
-0.047120094299316406,-0.0374140739440918,0.007836699485778809,2023-10-21T15:13:14.052802Z,1697901194052
0.0476222038269043,0.03793907165527344,-0.00854480266571045,2023-10-21T15:13:14.073052Z,1697901194073
0.14348649978637695,0.11404561996459961,-0.026967406272888184,2023-10-21T15:13:14.093271Z,1697901194093
0.23754405975341797,0.1873927116394043,-0.0456925630569458,2023-10-21T15:13:14.115942Z,1697901194115
0.3220396041870117,0.2511744499206543,-0.062235116958618164,2023-10-21T15:13:14.133832Z,1697901194133
0.38777732849121094,0.2982606887817383,-0.07420432567596436,2023-10-21T15:13:14.154127Z,1697901194154
0.43091869354248047,0.32627010345458984,-0.08100152015686035,2023-10-21T15:13:14.174394Z,1697901194174
0.456789493560791,0.33989477157592773,-0.08437907695770264,2023-10-21T15:13:14.194628Z,1697901194194
0.4761962890625,0.34769773483276367,-0.08718526363372803,2023-10-21T15:13:14.215700Z,1697901194215
0.4971733093261719,0.35599279403686523,-0.09143507480621338,2023-10-21T15:13:14.235145Z,1697901194235
0.5202569961547852,0.3656439781188965,-0.09739577770233154,2023-10-21T15:13:14.255384Z,1697901194255
0.5421009063720703,0.37482309341430664,-0.10434901714324951,2023-10-21T15:13:14.275674Z,1697901194275
0.5598940849304199,0.3817720413208008,-0.11144208908081055,2023-10-21T15:13:14.299032Z,1697901194298
0.5733785629272461,0.38614988327026367,-0.11813497543334961,2023-10-21T15:13:14.316196Z,1697901194316
0.5836706161499023,0.3882784843444824,-0.12407970428466797,2023-10-21T15:13:14.336488Z,1697901194336
0.5891580581665039,0.38681650161743164,-0.12826085090637207,2023-10-21T15:13:14.356746Z,1697901194356
0.5839681625366211,0.3780097961425781,-0.12868785858154297,2023-10-21T15:13:14.376946Z,1697901194376
0.5600805282592773,0.35709095001220703,-0.12312602996826172,2023-10-21T15:13:14.398800Z,1697901194398
0.5132675170898438,0.32189035415649414,-0.11076581478118896,2023-10-21T15:13:14.417525Z,1697901194417
0.4451122283935547,0.27408313751220703,-0.09278678894042969,2023-10-21T15:13:14.437857Z,1697901194437
0.3599967956542969,0.21723318099975586,-0.07142102718353271,2023-10-21T15:13:14.458048Z,1697901194458
0.26340770721435547,0.15555620193481445,-0.04912161827087402,2023-10-21T15:13:14.478264Z,1697901194478
0.1620931625366211,0.09368705749511719,-0.02815377712249756,2023-10-21T15:13:14.498805Z,1697901194498
0.0675668716430664,0.038277626037597656,-0.010882735252380371,2023-10-21T15:13:14.518851Z,1697901194518
-0.004439353942871094,-0.0024728775024414062,6.64830207824707E-4,2023-10-21T15:13:14.539166Z,1697901194539
-0.043033599853515625,-0.023672103881835938,0.006037473678588867,2023-10-21T15:13:14.559329Z,1697901194559
-0.04425525665283203,-0.024189472198486328,0.005890846252441406,2023-10-21T15:13:14.581865Z,1697901194581
-0.012258529663085938,-0.00670623779296875,0.001567840576171875,2023-10-21T15:13:14.599943Z,1697901194599
0.04322242736816406,0.023839950561523438,-0.005379080772399902,2023-10-21T15:13:14.620199Z,1697901194620
0.11253833770751953,0.06298971176147461,-0.013707637786865234,2023-10-21T15:13:14.640456Z,1697901194640
0.1877756118774414,0.10709238052368164,-0.02244102954864502,2023-10-21T15:13:14.660693Z,1697901194660
0.2624702453613281,0.15274333953857422,-0.030660390853881836,2023-10-21T15:13:14.682554Z,1697901194682
0.32734012603759766,0.194244384765625,-0.03703278303146362,2023-10-21T15:13:14.701254Z,1697901194701
0.37097930908203125,0.22412395477294922,-0.04005312919616699,2023-10-21T15:13:14.721520Z,1697901194721
0.38328075408935547,0.23528194427490234,-0.038732051849365234,2023-10-21T15:13:14.741726Z,1697901194741
0.3636474609375,0.22625398635864258,-0.03369951248168945,2023-10-21T15:13:14.761979Z,1697901194761
0.31989192962646484,0.20110225677490234,-0.026687264442443848,2023-10-21T15:13:14.782306Z,1697901194782
0.26343631744384766,0.16680622100830078,-0.019481778144836426,2023-10-21T15:13:14.802626Z,1697901194802
0.2045116424560547,0.1300983428955078,-0.013232290744781494,2023-10-21T15:13:14.822835Z,1697901194822
0.148773193359375,0.09497308731079102,-0.008304953575134277,2023-10-21T15:13:14.843030Z,1697901194842
0.10065555572509766,0.06449413299560547,-0.004763960838317871,2023-10-21T15:13:14.865549Z,1697901194865
0.0641927719116211,0.04132843017578125,-0.0025394856929779053,2023-10-21T15:13:14.883631Z,1697901194883
0.04378795623779297,0.028367042541503906,-0.001437842845916748,2023-10-21T15:13:14.903937Z,1697901194903
0.039259910583496094,0.025638580322265625,-0.0010675787925720215,2023-10-21T15:13:14.924148Z,1697901194924
0.04367256164550781,0.028806686401367188,-9.720921516418457E-4,2023-10-21T15:13:14.944366Z,1697901194944
0.048079490661621094,0.03209352493286133,-8.363574743270874E-4,2023-10-21T15:13:14.965091Z,1697901194964
0.045050621032714844,0.030476093292236328,-5.655959248542786E-4,2023-10-21T15:13:14.984998Z,1697901194984
0.03061199188232422,0.02099895477294922,-2.406686544418335E-4,2023-10-21T15:13:15.005276Z,1697901195005
0.0027551651000976562,0.00191497802734375,-1.0011717677116394E-5,2023-10-21T15:13:15.025442Z,1697901195025
-0.04071331024169922,-0.02865886688232422,6.3746701925992966E-6,2023-10-21T15:13:15.048550Z,1697901195048
-0.0998983383178711,-0.07108545303344727,-2.5683827698230743E-4,2023-10-21T15:13:15.066058Z,1697901195065
-0.17209196090698242,-0.12356185913085938,-7.300525903701782E-4,2023-10-21T15:13:15.086381Z,1697901195086
-0.25063419342041016,-0.18109893798828125,-0.0011235661804676056,2023-10-21T15:13:15.106691Z,1697901195106
-0.32416391372680664,-0.23479509353637695,-8.33369791507721E-4,2023-10-21T15:13:15.126834Z,1697901195126
-0.3795914649963379,-0.27437257766723633,8.587855845689774E-4,2023-10-21T15:13:15.148567Z,1697901195148
-0.40699338912963867,-0.292449951171875,0.004164144396781921,2023-10-21T15:13:15.167382Z,1697901195167
-0.40367746353149414,-0.2877082824707031,0.0083065927028656,2023-10-21T15:13:15.187608Z,1697901195187
-0.3709268569946289,-0.26200056076049805,0.011874020099639893,2023-10-21T15:13:15.207836Z,1697901195207
-0.3112177848815918,-0.21779918670654297,0.013511955738067627,2023-10-21T15:13:15.228188Z,1697901195228
-0.22568845748901367,-0.15640926361083984,0.012237489223480225,2023-10-21T15:13:15.248722Z,1697901195248
-0.11812877655029297,-0.08102798461914062,0.007561981678009033,2023-10-21T15:13:15.268640Z,1697901195268
0.0031270980834960938,0.0021228790283203125,-2.2518634796142578E-4,2023-10-21T15:13:15.289140Z,1697901195289
0.12558841705322266,0.08437776565551758,-0.009957313537597656,2023-10-21T15:13:15.309303Z,1697901195309
0.2361440658569336,0.1572399139404297,-0.01994568109512329,2023-10-21T15:13:15.331991Z,1697901195331
0.3248882293701172,0.21465539932250977,-0.028691589832305908,2023-10-21T15:13:15.349674Z,1697901195349
0.38689422607421875,0.25377321243286133,-0.03536391258239746,2023-10-21T15:13:15.369954Z,1697901195369
0.4224672317504883,0.27501916885375977,-0.039891839027404785,2023-10-21T15:13:15.390249Z,1697901195390
0.4340858459472656,0.28022193908691406,-0.042546093463897705,2023-10-21T15:13:15.410444Z,1697901195410
0.42619895935058594,0.27257394790649414,-0.04372352361679077,2023-10-21T15:13:15.431269Z,1697901195431
0.40527915954589844,0.25656843185424805,-0.04390430450439453,2023-10-21T15:13:15.450989Z,1697901195450
0.37932395935058594,0.23753070831298828,-0.04370534420013428,2023-10-21T15:13:15.471282Z,1697901195471
0.3564596176147461,0.22068119049072266,-0.04388701915740967,2023-10-21T15:13:15.491494Z,1697901195491
0.34337902069091797,0.21014022827148438,-0.04523968696594238,2023-10-21T15:13:15.514749Z,1697901195514
0.3424663543701172,0.20724725723266602,-0.04815387725830078,2023-10-21T15:13:15.532020Z,1697901195531
0.35272884368896484,0.21123981475830078,-0.05259120464324951,2023-10-21T15:13:15.552330Z,1697901195552
0.3701019287109375,0.21959924697875977,-0.057952046394348145,2023-10-21T15:13:15.572650Z,1697901195572
0.3899202346801758,0.22952747344970703,-0.06342518329620361,2023-10-21T15:13:15.592803Z,1697901195592
0.4069976806640625,0.2380237579345703,-0.06799602508544922,2023-10-21T15:13:15.614828Z,1697901195614
0.41548633575439453,0.2417922019958496,-0.07049882411956787,2023-10-21T15:13:15.633357Z,1697901195633
0.410125732421875,0.23784494400024414,-0.06995141506195068,2023-10-21T15:13:15.653635Z,1697901195653
0.3877544403076172,0.2243666648864746,-0.06591534614562988,2023-10-21T15:13:15.673830Z,1697901195673
0.3487224578857422,0.2015209197998047,-0.05877065658569336,2023-10-21T15:13:15.694085Z,1697901195694
0.29526519775390625,0.17053556442260742,-0.04924321174621582,2023-10-21T15:13:15.714648Z,1697901195714
0.2310810089111328,0.13350248336791992,-0.038177490234375,2023-10-21T15:13:15.734714Z,1697901195734
0.16040515899658203,0.09280586242675781,-0.026322007179260254,2023-10-21T15:13:15.754973Z,1697901195754
0.088134765625,0.05114173889160156,-0.014413237571716309,2023-10-21T15:13:15.775275Z,1697901195775
0.01923370361328125,0.011211395263671875,-0.0031474828720092773,2023-10-21T15:13:15.798302Z,1697901195798
-0.0406036376953125,-0.02380847930908203,0.006674051284790039,2023-10-21T15:13:15.815719Z,1697901195815
-0.08649730682373047,-0.0510563850402832,0.014371156692504883,2023-10-21T15:13:15.836035Z,1697901195835
-0.11548614501953125,-0.06866645812988281,0.019507646560668945,2023-10-21T15:13:15.856237Z,1697901195856
-0.1282796859741211,-0.07689666748046875,0.022133946418762207,2023-10-21T15:13:15.876462Z,1697901195876
-0.12882041931152344,-0.07796573638916016,0.022733092308044434,2023-10-21T15:13:15.897662Z,1697901195897
-0.12208938598632812,-0.07472085952758789,0.02196478843688965,2023-10-21T15:13:15.917065Z,1697901195917
-0.11213397979736328,-0.06947183609008789,0.020424723625183105,2023-10-21T15:13:15.937338Z,1697901195937
-0.10123634338378906,-0.06348896026611328,0.018495917320251465,2023-10-21T15:13:15.957540Z,1697901195957
-0.09013080596923828,-0.057150840759277344,0.016360163688659668,2023-10-21T15:13:15.977730Z,1697901195977
-0.07729721069335938,-0.049469947814941406,0.013818502426147461,2023-10-21T15:13:15.998064Z,1697901195998
-0.06009864807128906,-0.03874492645263672,0.010497093200683594,2023-10-21T15:13:16.018405Z,1697901196018
-0.0355682373046875,-0.023064136505126953,0.006020069122314453,2023-10-21T15:13:16.038633Z,1697901196038
-0.0037517547607421875,-0.0024437904357910156,6.098747253417969E-4,2023-10-21T15:13:16.058919Z,1697901196058
0.03354644775390625,0.02192544937133789,-0.005163073539733887,2023-10-21T15:13:16.081068Z,1697901196081
0.07415580749511719,0.04859018325805664,-0.010674715042114258,2023-10-21T15:13:16.099418Z,1697901196099
0.11789321899414062,0.07738876342773438,-0.01569962501525879,2023-10-21T15:13:16.119696Z,1697901196119
0.16469860076904297,0.1082611083984375,-0.020124316215515137,2023-10-21T15:13:16.139920Z,1697901196139
0.2133617401123047,0.14044809341430664,-0.023771286010742188,2023-10-21T15:13:16.160134Z,1697901196160
0.2607736587524414,0.17199373245239258,-0.02631056308746338,2023-10-21T15:13:16.180838Z,1697901196180
0.3024940490722656,0.200042724609375,-0.0273514986038208,2023-10-21T15:13:16.200760Z,1697901196200
0.33354949951171875,0.22132349014282227,-0.02664494514465332,2023-10-21T15:13:16.221036Z,1697901196220
0.35056400299072266,0.23351764678955078,-0.024319052696228027,2023-10-21T15:13:16.241226Z,1697901196241
0.35321521759033203,0.2362809181213379,-0.020931005477905273,2023-10-21T15:13:16.264092Z,1697901196264
0.34461402893066406,0.23151922225952148,-0.017188668251037598,2023-10-21T15:13:16.281793Z,1697901196281
0.32927799224853516,0.22211074829101562,-0.013580411672592163,2023-10-21T15:13:16.302078Z,1697901196302
0.31032276153564453,0.21009159088134766,-0.010260343551635742,2023-10-21T15:13:16.322347Z,1697901196322
0.29018306732177734,0.19709444046020508,-0.007260382175445557,2023-10-21T15:13:16.342561Z,1697901196342
0.2708158493041992,0.18443059921264648,-0.004616647958755493,2023-10-21T15:13:16.364168Z,1697901196364
0.25425052642822266,0.17348957061767578,-0.0023629367351531982,2023-10-21T15:13:16.383140Z,1697901196383
0.24172019958496094,0.1651477813720703,-5.263462662696838E-4,2023-10-21T15:13:16.403433Z,1697901196403
0.23374462127685547,0.15984487533569336,9.245611727237701E-4,2023-10-21T15:13:16.423679Z,1697901196423
0.2293710708618164,0.1570744514465332,0.0020040497183799744,2023-10-21T15:13:16.443845Z,1697901196443
0.2262115478515625,0.15529870986938477,0.0027297213673591614,2023-10-21T15:13:16.464146Z,1697901196464
0.2204608917236328,0.15187931060791016,0.003069549798965454,2023-10-21T15:13:16.484435Z,1697901196484
0.2075662612915039,0.143524169921875,0.0029754638671875,2023-10-21T15:13:16.504680Z,1697901196504
0.1830453872680664,0.12694406509399414,0.00240180641412735,2023-10-21T15:13:16.524932Z,1697901196524
0.14327526092529297,0.0995931625366211,0.0013880878686904907,2023-10-21T15:13:16.547206Z,1697901196547
0.08882427215576172,0.0618743896484375,2.8365105390548706E-4,2023-10-21T15:13:16.565506Z,1697901196565
0.025104522705078125,0.017526626586914062,-1.839064061641693E-4,2023-10-21T15:13:16.585798Z,1697901196585
-0.03956747055053711,-0.027685165405273438,8.741766214370728E-4,2023-10-21T15:13:16.606039Z,1697901196605
-0.09844446182250977,-0.0690298080444336,0.004021763801574707,2023-10-21T15:13:16.626300Z,1697901196626
-0.1484827995300293,-0.10433053970336914,0.009291976690292358,2023-10-21T15:13:16.647273Z,1697901196647
-0.18758058547973633,-0.13208532333374023,0.016206681728363037,2023-10-21T15:13:16.666879Z,1697901196666
-0.21327447891235352,-0.15056133270263672,0.023831427097320557,2023-10-21T15:13:16.687098Z,1697901196687
-0.22260618209838867,-0.15768194198608398,0.03077065944671631,2023-10-21T15:13:16.707315Z,1697901196707
-0.21332693099975586,-0.1517786979675293,0.03526937961578369,2023-10-21T15:13:16.730564Z,1697901196730
-0.18556785583496094,-0.13267278671264648,0.03562963008880615,2023-10-21T15:13:16.747850Z,1697901196747
-0.14283514022827148,-0.10257339477539062,0.031002402305603027,2023-10-21T15:13:16.768147Z,1697901196768
-0.09208393096923828,-0.0663447380065918,0.022053122520446777,2023-10-21T15:13:16.788394Z,1697901196788
-0.04079103469848633,-0.029444217681884766,0.010572433471679688,2023-10-21T15:13:16.808648Z,1697901196808
0.005700111389160156,0.0041141510009765625,-0.001575469970703125,2023-10-21T15:13:16.830513Z,1697901196830
0.045599937438964844,0.03284454345703125,-0.01332998275756836,2023-10-21T15:13:16.849178Z,1697901196849
0.07918787002563477,0.0567774772644043,-0.02431941032409668,2023-10-21T15:13:16.869478Z,1697901196869
0.10793113708496094,0.07686614990234375,-0.034682273864746094,2023-10-21T15:13:16.889663Z,1697901196889
0.13385772705078125,0.09452152252197266,-0.04484963417053223,2023-10-21T15:13:16.909873Z,1697901196909
0.1592998504638672,0.11135101318359375,-0.0554656982421875,2023-10-21T15:13:16.930389Z,1697901196930
0.18649911880493164,0.12879419326782227,-0.06722497940063477,2023-10-21T15:13:16.950554Z,1697901196950
0.2170276641845703,0.14780807495117188,-0.08069181442260742,2023-10-21T15:13:16.970814Z,1697901196970
0.2512226104736328,0.1685948371887207,-0.09600186347961426,2023-10-21T15:13:16.991157Z,1697901196991
0.2870159149169922,0.18994569778442383,-0.11234116554260254,2023-10-21T15:13:17.014022Z,1697901197013
0.32152700424194336,0.21026086807250977,-0.12845325469970703,2023-10-21T15:13:17.031553Z,1697901197031
0.35247135162353516,0.22820043563842773,-0.14312100410461426,2023-10-21T15:13:17.051858Z,1697901197051
0.37877845764160156,0.24309396743774414,-0.15565752983093262,2023-10-21T15:13:17.072091Z,1697901197072
0.3983139991760254,0.2535991668701172,-0.16496658325195312,2023-10-21T15:13:17.092326Z,1697901197092
0.40819454193115234,0.25806236267089844,-0.16986298561096191,2023-10-21T15:13:17.113626Z,1697901197113
0.4058041572570801,0.25509214401245117,-0.16936469078063965,2023-10-21T15:13:17.132931Z,1697901197132
0.39203643798828125,0.2454357147216797,-0.1640336513519287,2023-10-21T15:13:17.153200Z,1697901197153
0.36847782135009766,0.2300734519958496,-0.15459823608398438,2023-10-21T15:13:17.173345Z,1697901197173
0.3375377655029297,0.21031713485717773,-0.14203190803527832,2023-10-21T15:13:17.193542Z,1697901197193
0.30197763442993164,0.18769264221191406,-0.12740135192871094,2023-10-21T15:13:17.213894Z,1697901197213
0.26508331298828125,0.1641855239868164,-0.11204051971435547,2023-10-21T15:13:17.234244Z,1697901197234
0.22974872589111328,0.14170455932617188,-0.09721922874450684,2023-10-21T15:13:17.254520Z,1697901197254
0.19777250289916992,0.12145614624023438,-0.08371806144714355,2023-10-21T15:13:17.274724Z,1697901197274
0.17096710205078125,0.10457563400268555,-0.07233834266662598,2023-10-21T15:13:17.296902Z,1697901197296
0.15151453018188477,0.09233856201171875,-0.06400203704833984,2023-10-21T15:13:17.315253Z,1697901197315
0.14169883728027344,0.08607244491577148,-0.059648752212524414,2023-10-21T15:13:17.335526Z,1697901197335
0.14114713668823242,0.08551454544067383,-0.059072017669677734,2023-10-21T15:13:17.355730Z,1697901197355
0.14830970764160156,0.08971691131591797,-0.061553955078125,2023-10-21T15:13:17.375908Z,1697901197375
0.16048526763916016,0.09706735610961914,-0.06588864326477051,2023-10-21T15:13:17.396657Z,1697901197396
0.17514896392822266,0.10605955123901367,-0.0709836483001709,2023-10-21T15:13:17.416668Z,1697901197416
0.18988037109375,0.11523818969726562,-0.07584381103515625,2023-10-21T15:13:17.436958Z,1697901197436
0.2027454376220703,0.12345218658447266,-0.07974958419799805,2023-10-21T15:13:17.457149Z,1697901197457
0.2130899429321289,0.1303119659423828,-0.08253002166748047,2023-10-21T15:13:17.480162Z,1697901197480
0.2217850685119629,0.1363391876220703,-0.08460354804992676,2023-10-21T15:13:17.497727Z,1697901197497
0.2304849624633789,0.14251327514648438,-0.0866386890411377,2023-10-21T15:13:17.517925Z,1697901197517
0.23960113525390625,0.14908075332641602,-0.08878278732299805,2023-10-21T15:13:17.538168Z,1697901197538
0.24814128875732422,0.1554555892944336,-0.09064745903015137,2023-10-21T15:13:17.558370Z,1697901197558
0.25424623489379883,0.16048955917358398,-0.09151196479797363,2023-10-21T15:13:17.580112Z,1697901197580
0.2564067840576172,0.1631765365600586,-0.09080123901367188,2023-10-21T15:13:17.598961Z,1697901197598
0.25452280044555664,0.16330623626708984,-0.08846902847290039,2023-10-21T15:13:17.619346Z,1697901197619
0.24963760375976562,0.16138362884521484,-0.08489179611206055,2023-10-21T15:13:17.639561Z,1697901197639
0.24322795867919922,0.15821552276611328,-0.08061647415161133,2023-10-21T15:13:17.659775Z,1697901197659
0.2367877960205078,0.15472126007080078,-0.0762019157409668,2023-10-21T15:13:17.680111Z,1697901197680
0.23079586029052734,0.15125131607055664,-0.07187366485595703,2023-10-21T15:13:17.700400Z,1697901197700
0.2251262664794922,0.1478257179260254,-0.06768059730529785,2023-10-21T15:13:17.720672Z,1697901197720
0.22005176544189453,0.14470958709716797,-0.06379985809326172,2023-10-21T15:13:17.740875Z,1697901197740
0.2164139747619629,0.14252424240112305,-0.060547590255737305,2023-10-21T15:13:17.763257Z,1697901197763
0.21541833877563477,0.14209651947021484,-0.05829215049743652,2023-10-21T15:13:17.781321Z,1697901197781
0.21792030334472656,0.14401960372924805,-0.05723762512207031,2023-10-21T15:13:17.801604Z,1697901197801
0.22345972061157227,0.14801406860351562,-0.057198524475097656,2023-10-21T15:13:17.821839Z,1697901197821
0.230804443359375,0.15327930450439453,-0.05780649185180664,2023-10-21T15:13:17.842021Z,1697901197841
0.23847103118896484,0.15884160995483398,-0.05864834785461426,2023-10-21T15:13:17.863120Z,1697901197863
0.24485540390014648,0.1636204719543457,-0.05929136276245117,2023-10-21T15:13:17.882763Z,1697901197882
0.2488384246826172,0.16681957244873047,-0.05944788455963135,2023-10-21T15:13:17.902948Z,1697901197902
0.24933958053588867,0.16765213012695312,-0.0588381290435791,2023-10-21T15:13:17.923112Z,1697901197923
0.24596023559570312,0.165802001953125,-0.05736088752746582,2023-10-21T15:13:17.946810Z,1697901197946
0.2384176254272461,0.16104459762573242,-0.05495345592498779,2023-10-21T15:13:17.963666Z,1697901197963
0.22661972045898438,0.15332889556884766,-0.051628947257995605,2023-10-21T15:13:17.983971Z,1697901197983
0.21016263961791992,0.14241695404052734,-0.04734301567077637,2023-10-21T15:13:18.004225Z,1697901198004
0.18874168395996094,0.12816190719604492,-0.04209029674530029,2023-10-21T15:13:18.024447Z,1697901198024
0.1629934310913086,0.11099767684936523,-0.03605818748474121,2023-10-21T15:13:18.046384Z,1697901198046
0.13467025756835938,0.09207344055175781,-0.029639601707458496,2023-10-21T15:13:18.064997Z,1697901198064
0.10614728927612305,0.07293558120727539,-0.02331101894378662,2023-10-21T15:13:18.085459Z,1697901198085
0.07968759536743164,0.055075645446777344,-0.01750814914703369,2023-10-21T15:13:18.105524Z,1697901198105
0.057059288024902344,0.03969001770019531,-0.012570500373840332,2023-10-21T15:13:18.125705Z,1697901198125
0.03936052322387695,0.02756214141845703,-0.008704423904418945,2023-10-21T15:13:18.146155Z,1697901198146
0.02753925323486328,0.019413471221923828,-0.006118059158325195,2023-10-21T15:13:18.166362Z,1697901198166
0.02166128158569336,0.015367984771728516,-0.004835844039916992,2023-10-21T15:13:18.186637Z,1697901198186
0.021599292755126953,0.015415668487548828,-0.004841446876525879,2023-10-21T15:13:18.206832Z,1697901198206
0.026874065399169922,0.019283771514892578,-0.006042003631591797,2023-10-21T15:13:18.229546Z,1697901198229
0.03606986999511719,0.026000499725341797,-0.008114099502563477,2023-10-21T15:13:18.247383Z,1697901198247
0.04724597930908203,0.03418922424316406,-0.010614752769470215,2023-10-21T15:13:18.267669Z,1697901198267
0.05821084976196289,0.04225349426269531,-0.013037443161010742,2023-10-21T15:13:18.287920Z,1697901198287
0.06743478775024414,0.04906892776489258,-0.015037178993225098,2023-10-21T15:13:18.308152Z,1697901198308
0.07415008544921875,0.054071903228759766,-0.016463279724121094,2023-10-21T15:13:18.329674Z,1697901198329
0.07768392562866211,0.05678081512451172,-0.017191529273986816,2023-10-21T15:13:18.348712Z,1697901198348
0.077667236328125,0.05693483352661133,-0.017168045043945312,2023-10-21T15:13:18.368988Z,1697901198368
0.07421112060546875,0.05459165573120117,-0.01642632484436035,2023-10-21T15:13:18.389198Z,1697901198389
0.06817960739135742,0.05035829544067383,-0.015149950981140137,2023-10-21T15:13:18.412929Z,1697901198412
0.061400413513183594,0.045540809631347656,-0.013725996017456055,2023-10-21T15:13:18.429841Z,1697901198429
0.0557098388671875,0.041489601135253906,-0.012551188468933105,2023-10-21T15:13:18.450035Z,1697901198449
0.05276012420654297,0.039444923400878906,-0.01199638843536377,2023-10-21T15:13:18.470337Z,1697901198470
0.05297422409057617,0.039746761322021484,-0.01215505599975586,2023-10-21T15:13:18.490520Z,1697901198490
0.056120872497558594,0.042241573333740234,-0.012986302375793457,2023-10-21T15:13:18.512692Z,1697901198512
0.06154060363769531,0.04643535614013672,-0.014337658882141113,2023-10-21T15:13:18.531077Z,1697901198531
0.06884002685546875,0.05201435089111328,-0.01610279083251953,2023-10-21T15:13:18.551351Z,1697901198551
0.07778167724609375,0.058771610260009766,-0.018211841583251953,2023-10-21T15:13:18.571589Z,1697901198571
0.0880742073059082,0.06646156311035156,-0.020591259002685547,2023-10-21T15:13:18.591801Z,1697901198591
0.09922933578491211,0.07470512390136719,-0.023128986358642578,2023-10-21T15:13:18.612199Z,1697901198612
0.10995912551879883,0.08255720138549805,-0.02552962303161621,2023-10-21T15:13:18.632379Z,1697901198632
0.11914634704589844,0.08922195434570312,-0.027558207511901855,2023-10-21T15:13:18.652662Z,1697901198652
0.12547683715820312,0.09375905990600586,-0.028937697410583496,2023-10-21T15:13:18.672873Z,1697901198672
0.12871026992797852,0.09602117538452148,-0.029637694358825684,2023-10-21T15:13:18.695884Z,1697901198695
0.12859535217285156,0.09583663940429688,-0.02960836887359619,2023-10-21T15:13:18.713402Z,1697901198713
0.12506628036499023,0.09316444396972656,-0.02883601188659668,2023-10-21T15:13:18.733714Z,1697901198733
0.11847734451293945,0.08825397491455078,-0.027390480041503906,2023-10-21T15:13:18.753958Z,1697901198753
0.1093745231628418,0.08150625228881836,-0.025379061698913574,2023-10-21T15:13:18.774177Z,1697901198774
0.0990285873413086,0.07384490966796875,-0.02307748794555664,2023-10-21T15:13:18.795754Z,1697901198795
0.08843851089477539,0.06600284576416016,-0.020700573921203613,2023-10-21T15:13:18.814784Z,1697901198814
0.07842445373535156,0.058577537536621094,-0.018430709838867188,2023-10-21T15:13:18.835051Z,1697901198835
0.06944465637207031,0.05190849304199219,-0.016373872756958008,2023-10-21T15:13:18.855305Z,1697901198855
0.06209754943847656,0.046434879302978516,-0.014672279357910156,2023-10-21T15:13:18.875442Z,1697901198875
0.056993961334228516,0.04261970520019531,-0.013473987579345703,2023-10-21T15:13:18.895795Z,1697901198895
0.05464935302734375,0.04084205627441406,-0.01290750503540039,2023-10-21T15:13:18.916111Z,1697901198916
0.0551457405090332,0.04116058349609375,-0.012987732887268066,2023-10-21T15:13:18.936367Z,1697901198936
0.0580291748046875,0.04323291778564453,-0.013613104820251465,2023-10-21T15:13:18.956558Z,1697901198956
0.06250953674316406,0.04645872116088867,-0.014594078063964844,2023-10-21T15:13:18.978802Z,1697901198978
0.06811237335205078,0.05048084259033203,-0.01582014560699463,2023-10-21T15:13:18.997129Z,1697901198997
0.07463359832763672,0.05513954162597656,-0.01725137233734131,2023-10-21T15:13:19.017409Z,1697901199017
0.08204984664916992,0.06041288375854492,-0.01889336109161377,2023-10-21T15:13:19.037650Z,1697901199037
0.09006071090698242,0.06608343124389648,-0.02068638801574707,2023-10-21T15:13:19.057857Z,1697901199057
0.09787702560424805,0.0715794563293457,-0.022461414337158203,2023-10-21T15:13:19.078740Z,1697901199078
0.10467910766601562,0.0763096809387207,-0.024036884307861328,2023-10-21T15:13:19.098481Z,1697901199098
0.11024761199951172,0.08012866973876953,-0.025368690490722656,2023-10-21T15:13:19.118737Z,1697901199118
0.11501455307006836,0.08334589004516602,-0.026549935340881348,2023-10-21T15:13:19.138996Z,1697901199138
0.11920166015625,0.08611774444580078,-0.02762293815612793,2023-10-21T15:13:19.162068Z,1697901199162
0.12297296524047852,0.08857107162475586,-0.028615117073059082,2023-10-21T15:13:19.179465Z,1697901199179
0.12585067749023438,0.09036779403686523,-0.02940046787261963,2023-10-21T15:13:19.199788Z,1697901199199
0.12782716751098633,0.09149837493896484,-0.029969215393066406,2023-10-21T15:13:19.220012Z,1697901199219
0.12964344024658203,0.0924830436706543,-0.03048074245452881,2023-10-21T15:13:19.240240Z,1697901199240
0.13222980499267578,0.09397315979003906,-0.031153440475463867,2023-10-21T15:13:19.262114Z,1697901199262
0.13665342330932617,0.09672880172729492,-0.032241225242614746,2023-10-21T15:13:19.280790Z,1697901199280
0.14327001571655273,0.10099554061889648,-0.03383326530456543,2023-10-21T15:13:19.301101Z,1697901199301
0.15194463729858398,0.10669326782226562,-0.03590548038482666,2023-10-21T15:13:19.321322Z,1697901199321
0.1622772216796875,0.1135416030883789,-0.03837299346923828,2023-10-21T15:13:19.341512Z,1697901199341
0.1738576889038086,0.12126350402832031,-0.04114949703216553,2023-10-21T15:13:19.361841Z,1697901199361
0.18587493896484375,0.1292872428894043,-0.044051408767700195,2023-10-21T15:13:19.382160Z,1697901199382
0.19729042053222656,0.13690853118896484,-0.04684019088745117,2023-10-21T15:13:19.402420Z,1697901199402
0.20704936981201172,0.1434316635131836,-0.04927563667297363,2023-10-21T15:13:19.422634Z,1697901199422
0.2142620086669922,0.14828109741210938,-0.051154494285583496,2023-10-21T15:13:19.445424Z,1697901199445
0.21844148635864258,0.15113592147827148,-0.05236673355102539,2023-10-21T15:13:19.463202Z,1697901199463
0.21929550170898438,0.15177583694458008,-0.05283820629119873,2023-10-21T15:13:19.483496Z,1697901199483
0.21666622161865234,0.1500701904296875,-0.05251359939575195,2023-10-21T15:13:19.503719Z,1697901199503
0.21068811416625977,0.14608478546142578,-0.051407694816589355,2023-10-21T15:13:19.523940Z,1697901199523
0.20181846618652344,0.14011240005493164,-0.0496060848236084,2023-10-21T15:13:19.545144Z,1697901199545
0.191070556640625,0.13282537460327148,-0.04732489585876465,2023-10-21T15:13:19.564575Z,1697901199564
0.17987537384033203,0.1251997947692871,-0.04489326477050781,2023-10-21T15:13:19.584795Z,1697901199584
0.1697072982788086,0.11825132369995117,-0.04266762733459473,2023-10-21T15:13:19.605013Z,1697901199604
0.1613941192626953,0.11255264282226562,-0.04084634780883789,2023-10-21T15:13:19.625209Z,1697901199625
0.1552143096923828,0.10830259323120117,-0.039504289627075195,2023-10-21T15:13:19.645525Z,1697901199645
0.15155029296875,0.10575675964355469,-0.0387418270111084,2023-10-21T15:13:19.665850Z,1697901199665
0.15058517456054688,0.10503292083740234,-0.038598060607910156,2023-10-21T15:13:19.686127Z,1697901199686
0.15241384506225586,0.10618734359741211,-0.03910017013549805,2023-10-21T15:13:19.706334Z,1697901199706
0.15667486190795898,0.10896015167236328,-0.04015231132507324,2023-10-21T15:13:19.728284Z,1697901199728
0.16248035430908203,0.11273479461669922,-0.04152417182922363,2023-10-21T15:13:19.746874Z,1697901199746
0.16871261596679688,0.11674785614013672,-0.04293465614318848,2023-10-21T15:13:19.767168Z,1697901199767
0.17401599884033203,0.12006664276123047,-0.04405331611633301,2023-10-21T15:13:19.787435Z,1697901199787
0.17745161056518555,0.12204694747924805,-0.04466700553894043,2023-10-21T15:13:19.807631Z,1697901199807
0.17847490310668945,0.12231922149658203,-0.04465961456298828,2023-10-21T15:13:19.828309Z,1697901199828
0.17676925659179688,0.12069082260131836,-0.04398345947265625,2023-10-21T15:13:19.848211Z,1697901199848
0.1722421646118164,0.11713123321533203,-0.04263877868652344,2023-10-21T15:13:19.868526Z,1697901199868
0.16519594192504883,0.11189126968383789,-0.040723562240600586,2023-10-21T15:13:19.888669Z,1697901199888
0.15655899047851562,0.10562658309936523,-0.03847658634185791,2023-10-21T15:13:19.911703Z,1697901199911
0.14742755889892578,0.09908533096313477,-0.03616964817047119,2023-10-21T15:13:19.929239Z,1697901199929
0.13879776000976562,0.0929269790649414,-0.03402447700500488,2023-10-21T15:13:19.949550Z,1697901199949
0.13158082962036133,0.08775186538696289,-0.032251954078674316,2023-10-21T15:13:19.969784Z,1697901199969
0.12676572799682617,0.08420658111572266,-0.03107309341430664,2023-10-21T15:13:19.989988Z,1697901199989
0.12476158142089844,0.08254289627075195,-0.030573129653930664,2023-10-21T15:13:20.011634Z,1697901200011
0.1254711151123047,0.08268070220947266,-0.030705928802490234,2023-10-21T15:13:20.030623Z,1697901200030
0.12837600708007812,0.08425617218017578,-0.03132939338684082,2023-10-21T15:13:20.050874Z,1697901200050
0.13266754150390625,0.08672475814819336,-0.0322420597076416,2023-10-21T15:13:20.071128Z,1697901200071
0.13779163360595703,0.08971405029296875,-0.033297061920166016,2023-10-21T15:13:20.091340Z,1697901200091
0.1429920196533203,0.0927286148071289,-0.03431844711303711,2023-10-21T15:13:20.111627Z,1697901200111
0.14765548706054688,0.09537696838378906,-0.03517639636993408,2023-10-21T15:13:20.131941Z,1697901200131
0.1513681411743164,0.09741735458374023,-0.035791754722595215,2023-10-21T15:13:20.152273Z,1697901200152
0.15363407135009766,0.09856224060058594,-0.036078810691833496,2023-10-21T15:13:20.172439Z,1697901200172
0.15436553955078125,0.0987844467163086,-0.03604888916015625,2023-10-21T15:13:20.194901Z,1697901200194
0.15387344360351562,0.09829378128051758,-0.03578794002532959,2023-10-21T15:13:20.212950Z,1697901200212
0.15279865264892578,0.09750032424926758,-0.03545844554901123,2023-10-21T15:13:20.233241Z,1697901200233
0.1515960693359375,0.09668731689453125,-0.03516578674316406,2023-10-21T15:13:20.253479Z,1697901200253
0.15050029754638672,0.09599113464355469,-0.03495442867279053,2023-10-21T15:13:20.273708Z,1697901200273
0.14944076538085938,0.09535598754882812,-0.03479719161987305,2023-10-21T15:13:20.294767Z,1697901200294
0.1482067108154297,0.09463262557983398,-0.03462016582489014,2023-10-21T15:13:20.314348Z,1697901200314
0.14684200286865234,0.09384298324584961,-0.034413814544677734,2023-10-21T15:13:20.334586Z,1697901200334
0.14552593231201172,0.09308576583862305,-0.034212589263916016,2023-10-21T15:13:20.354764Z,1697901200354
0.1446685791015625,0.0926046371459961,-0.03409767150878906,2023-10-21T15:13:20.377742Z,1697901200377
0.14442729949951172,0.09249639511108398,-0.03410077095031738,2023-10-21T15:13:20.395357Z,1697901200395
0.1446695327758789,0.09266996383666992,-0.03419673442840576,2023-10-21T15:13:20.415613Z,1697901200415
0.14501380920410156,0.09288644790649414,-0.03429138660430908,2023-10-21T15:13:20.435905Z,1697901200435
0.1452627182006836,0.09302806854248047,-0.03434562683105469,2023-10-21T15:13:20.456155Z,1697901200456
0.14531993865966797,0.09304094314575195,-0.03434431552886963,2023-10-21T15:13:20.477665Z,1697901200477
0.14507579803466797,0.09286117553710938,-0.034270524978637695,2023-10-21T15:13:20.496690Z,1697901200496
0.14484024047851562,0.09269189834594727,-0.03420281410217285,2023-10-21T15:13:20.516956Z,1697901200516
0.14482879638671875,0.0926656723022461,-0.03419959545135498,2023-10-21T15:13:20.537171Z,1697901200537
0.1451883316040039,0.09287309646606445,-0.03429234027862549,2023-10-21T15:13:20.557399Z,1697901200557
0.14592933654785156,0.09332036972045898,-0.034484148025512695,2023-10-21T15:13:20.577968Z,1697901200577
0.1467266082763672,0.09379863739013672,-0.03469228744506836,2023-10-21T15:13:20.597988Z,1697901200597
0.1475353240966797,0.09428024291992188,-0.03490936756134033,2023-10-21T15:13:20.618251Z,1697901200618
0.14850997924804688,0.09485530853271484,-0.03516197204589844,2023-10-21T15:13:20.638477Z,1697901200638
0.14971923828125,0.09556055068969727,-0.03547012805938721,2023-10-21T15:13:20.661103Z,1697901200661
0.1511974334716797,0.09640932083129883,-0.035831332206726074,2023-10-21T15:13:20.679021Z,1697901200678
0.15271568298339844,0.09725379943847656,-0.03619992733001709,2023-10-21T15:13:20.699309Z,1697901200699
0.15397071838378906,0.09790945053100586,-0.03650224208831787,2023-10-21T15:13:20.719542Z,1697901200719
0.15471649169921875,0.09821891784667969,-0.036694884300231934,2023-10-21T15:13:20.739755Z,1697901200739
0.15486621856689453,0.09813690185546875,-0.03674888610839844,2023-10-21T15:13:20.761343Z,1697901200761
0.15442371368408203,0.09766244888305664,-0.03666830062866211,2023-10-21T15:13:20.780326Z,1697901200780
0.15375232696533203,0.0970296859741211,-0.03653764724731445,2023-10-21T15:13:20.800617Z,1697901200800
0.15309619903564453,0.09639644622802734,-0.03641200065612793,2023-10-21T15:13:20.820806Z,1697901200820
0.15247631072998047,0.09577274322509766,-0.03629565238952637,2023-10-21T15:13:20.840990Z,1697901200840
0.1518535614013672,0.09513473510742188,-0.03617739677429199,2023-10-21T15:13:20.861375Z,1697901200861
0.15107250213623047,0.09439229965209961,-0.03601634502410889,2023-10-21T15:13:20.881671Z,1697901200881
0.15028667449951172,0.09363698959350586,-0.035849809646606445,2023-10-21T15:13:20.901908Z,1697901200901
0.1494903564453125,0.0928645133972168,-0.03567171096801758,2023-10-21T15:13:20.922169Z,1697901200922
0.14866352081298828,0.09206295013427734,-0.03547489643096924,2023-10-21T15:13:20.944380Z,1697901200944
0.1479339599609375,0.09130859375,-0.03529322147369385,2023-10-21T15:13:20.962717Z,1697901200962
0.14737606048583984,0.09064912796020508,-0.035143256187438965,2023-10-21T15:13:20.983040Z,1697901200982
0.1469745635986328,0.0900721549987793,-0.035027265548706055,2023-10-21T15:13:21.003200Z,1697901201003
0.14656734466552734,0.08947944641113281,-0.03491032123565674,2023-10-21T15:13:21.023460Z,1697901201023
0.14609241485595703,0.08884000778198242,-0.0347822904586792,2023-10-21T15:13:21.044563Z,1697901201044
0.1457080841064453,0.08825159072875977,-0.034685730934143066,2023-10-21T15:13:21.064022Z,1697901201063
0.1455059051513672,0.08776521682739258,-0.034639596939086914,2023-10-21T15:13:21.084359Z,1697901201084
0.14545536041259766,0.08735847473144531,-0.034638285636901855,2023-10-21T15:13:21.104518Z,1697901201104
0.14536094665527344,0.08691263198852539,-0.03462862968444824,2023-10-21T15:13:21.127171Z,1697901201127
0.14501953125,0.08631324768066406,-0.034566402435302734,2023-10-21T15:13:21.145068Z,1697901201145
0.14432239532470703,0.08550024032592773,-0.03442525863647461,2023-10-21T15:13:21.165352Z,1697901201165
0.14316368103027344,0.08442258834838867,-0.034178972244262695,2023-10-21T15:13:21.185587Z,1697901201185
0.14151287078857422,0.08307123184204102,-0.03382134437561035,2023-10-21T15:13:21.205827Z,1697901201205
0.13946914672851562,0.08151578903198242,-0.03337526321411133,2023-10-21T15:13:21.227552Z,1697901201227
0.13712692260742188,0.07982206344604492,-0.03286600112915039,2023-10-21T15:13:21.246396Z,1697901201246
0.1345233917236328,0.0780186653137207,-0.03229928016662598,2023-10-21T15:13:21.266681Z,1697901201266
0.13187789916992188,0.0762324333190918,-0.031731605529785156,2023-10-21T15:13:21.286914Z,1697901201286
0.1291637420654297,0.07445573806762695,-0.03115367889404297,2023-10-21T15:13:21.307227Z,1697901201307
0.12656307220458984,0.0727987289428711,-0.030608654022216797,2023-10-21T15:13:21.327450Z,1697901201327
0.12427997589111328,0.07137584686279297,-0.03014087677001953,2023-10-21T15:13:21.347752Z,1697901201347
0.12253856658935547,0.07030677795410156,-0.029803752899169922,2023-10-21T15:13:21.367999Z,1697901201367
0.1215667724609375,0.06970930099487305,-0.029653072357177734,2023-10-21T15:13:21.388251Z,1697901201388
0.12126922607421875,0.06951475143432617,-0.02966141700744629,2023-10-21T15:13:21.410933Z,1697901201410
0.1213674545288086,0.06955575942993164,-0.02976059913635254,2023-10-21T15:13:21.428741Z,1697901201428
0.12163543701171875,0.06969738006591797,-0.029901742935180664,2023-10-21T15:13:21.449046Z,1697901201449
0.12180805206298828,0.06979131698608398,-0.03001999855041504,2023-10-21T15:13:21.469287Z,1697901201469
0.121551513671875,0.06964492797851562,-0.03003668785095215,2023-10-21T15:13:21.489527Z,1697901201489
0.12078285217285156,0.06920862197875977,-0.029929399490356445,2023-10-21T15:13:21.510175Z,1697901201510
0.11947059631347656,0.06845903396606445,-0.02969050407409668,2023-10-21T15:13:21.530059Z,1697901201530
0.117767333984375,0.06747817993164062,-0.02935624122619629,2023-10-21T15:13:21.550361Z,1697901201550
0.11573028564453125,0.06629610061645508,-0.02893829345703125,2023-10-21T15:13:21.570552Z,1697901201570
0.11355876922607422,0.06502771377563477,-0.028484821319580078,2023-10-21T15:13:21.593644Z,1697901201593
0.11149120330810547,0.06381511688232422,-0.028048276901245117,2023-10-21T15:13:21.611125Z,1697901201611
0.10989570617675781,0.0628662109375,-0.0277252197265625,2023-10-21T15:13:21.631419Z,1697901201631
0.1091165542602539,0.06237459182739258,-0.027591228485107422,2023-10-21T15:13:21.651717Z,1697901201651
0.10929203033447266,0.06241559982299805,-0.027685880661010742,2023-10-21T15:13:21.671898Z,1697901201671
0.11048126220703125,0.06302452087402344,-0.028022050857543945,2023-10-21T15:13:21.693468Z,1697901201693
0.11257553100585938,0.06413030624389648,-0.028572559356689453,2023-10-21T15:13:21.712457Z,1697901201712
0.11536693572998047,0.06560802459716797,-0.02928471565246582,2023-10-21T15:13:21.732775Z,1697901201732
0.11861324310302734,0.06731176376342773,-0.030098915100097656,2023-10-21T15:13:21.752960Z,1697901201752
0.12203598022460938,0.06907463073730469,-0.03094768524169922,2023-10-21T15:13:21.773147Z,1697901201773
0.12530136108398438,0.07070398330688477,-0.03174638748168945,2023-10-21T15:13:21.793482Z,1697901201793
0.1283702850341797,0.07216596603393555,-0.032485008239746094,2023-10-21T15:13:21.813817Z,1697901201813
0.13114070892333984,0.07339715957641602,-0.03314781188964844,2023-10-21T15:13:21.834035Z,1697901201833
0.13347148895263672,0.07431697845458984,-0.033704280853271484,2023-10-21T15:13:21.854276Z,1697901201854
0.13513565063476562,0.0748138427734375,-0.03409934043884277,2023-10-21T15:13:21.876657Z,1697901201876
0.13617229461669922,0.07492494583129883,-0.034351348876953125,2023-10-21T15:13:21.894821Z,1697901201894
0.13712215423583984,0.07496213912963867,-0.03459954261779785,2023-10-21T15:13:21.915112Z,1697901201915
0.13872909545898438,0.07533597946166992,-0.035025835037231445,2023-10-21T15:13:21.935375Z,1697901201935
0.14166259765625,0.07638120651245117,-0.035784244537353516,2023-10-21T15:13:21.955569Z,1697901201955
0.1461191177368164,0.07816886901855469,-0.03691840171813965,2023-10-21T15:13:21.976853Z,1697901201976
0.15210628509521484,0.08067035675048828,-0.038450002670288086,2023-10-21T15:13:21.996191Z,1697901201996
0.1587810516357422,0.08342218399047852,-0.04017758369445801,2023-10-21T15:13:22.016450Z,1697901202016
0.16396617889404297,0.08527898788452148,-0.04156613349914551,2023-10-21T15:13:22.036635Z,1697901202036
0.1652975082397461,0.08504199981689453,-0.04199647903442383,2023-10-21T15:13:22.056851Z,1697901202056
0.16177940368652344,0.08227062225341797,-0.041213035583496094,2023-10-21T15:13:22.077225Z,1697901202077
0.15526771545410156,0.07799434661865234,-0.03973197937011719,2023-10-21T15:13:22.097534Z,1697901202097
0.14859580993652344,0.07368993759155273,-0.038288116455078125,2023-10-21T15:13:22.117737Z,1697901202117
0.14264774322509766,0.06979799270629883,-0.03709268569946289,2023-10-21T15:13:22.137937Z,1697901202137
0.13565444946289062,0.06548357009887695,-0.035650014877319336,2023-10-21T15:13:22.160046Z,1697901202159
0.1263418197631836,0.06017303466796875,-0.033594369888305664,2023-10-21T15:13:22.178646Z,1697901202178
0.11563396453857422,0.05431795120239258,-0.031148433685302734,2023-10-21T15:13:22.198824Z,1697901202198
0.10669994354248047,0.04939150810241699,-0.02916693687438965,2023-10-21T15:13:22.219076Z,1697901202219
0.10252094268798828,0.046730995178222656,-0.02851390838623047,2023-10-21T15:13:22.239280Z,1697901202239
0.10451412200927734,0.04689168930053711,-0.029688596725463867,2023-10-21T15:13:22.259990Z,1697901202259
0.11219978332519531,0.04954981803894043,-0.03267717361450195,2023-10-21T15:13:22.279846Z,1697901202279
0.12265491485595703,0.05332541465759277,-0.03672361373901367,2023-10-21T15:13:22.300138Z,1697901202300
0.1325216293334961,0.056734323501586914,-0.0408782958984375,2023-10-21T15:13:22.320414Z,1697901202320
0.14069271087646484,0.05935311317443848,-0.04481983184814453,2023-10-21T15:13:22.343195Z,1697901202343
0.14913177490234375,0.06203508377075195,-0.04921102523803711,2023-10-21T15:13:22.360860Z,1697901202360
0.15939044952392578,0.06542515754699707,-0.0546419620513916,2023-10-21T15:13:22.381208Z,1697901202381
0.17020416259765625,0.06902432441711426,-0.060746192932128906,2023-10-21T15:13:22.401429Z,1697901202401
0.1781301498413086,0.07148051261901855,-0.06623649597167969,2023-10-21T15:13:22.421707Z,1697901202421
0.18173789978027344,0.07226347923278809,-0.07036638259887695,2023-10-21T15:13:22.443217Z,1697901202443
0.1813955307006836,0.07154440879821777,-0.07302069664001465,2023-10-21T15:13:22.462303Z,1697901202462
0.17812728881835938,0.06971859931945801,-0.0743868350982666,2023-10-21T15:13:22.482594Z,1697901202482
0.17238235473632812,0.06695389747619629,-0.07448172569274902,2023-10-21T15:13:22.502776Z,1697901202502
0.16446781158447266,0.06335568428039551,-0.07330155372619629,2023-10-21T15:13:22.522945Z,1697901202522
0.15550994873046875,0.05936169624328613,-0.0712738037109375,2023-10-21T15:13:22.543260Z,1697901202543
0.14653396606445312,0.055376291275024414,-0.06886053085327148,2023-10-21T15:13:22.563524Z,1697901202563
0.13742446899414062,0.05136442184448242,-0.06602334976196289,2023-10-21T15:13:22.583810Z,1697901202583
0.12591075897216797,0.04650402069091797,-0.06164216995239258,2023-10-21T15:13:22.604070Z,1697901202604
0.11004066467285156,0.04013657569885254,-0.05472707748413086,2023-10-21T15:13:22.626426Z,1697901202626
0.09085464477539062,0.032724618911743164,-0.04578256607055664,2023-10-21T15:13:22.644649Z,1697901202644
0.0734243392944336,0.026124238967895508,-0.03740739822387695,2023-10-21T15:13:22.664882Z,1697901202664
0.06409835815429688,0.022551536560058594,-0.032948970794677734,2023-10-21T15:13:22.685138Z,1697901202685
0.0670919418334961,0.023396730422973633,-0.03472137451171875,2023-10-21T15:13:22.705325Z,1697901202705
0.08382225036621094,0.02909231185913086,-0.04356861114501953,2023-10-21T15:13:22.726352Z,1697901202726
0.1139059066772461,0.039537906646728516,-0.059271812438964844,2023-10-21T15:13:22.745976Z,1697901202745
0.15686511993408203,0.05475497245788574,-0.08136367797851562,2023-10-21T15:13:22.766228Z,1697901202766
0.2123126983642578,0.07494711875915527,-0.10924386978149414,2023-10-21T15:13:22.786450Z,1697901202786
0.28041648864746094,0.10065269470214844,-0.14247751235961914,2023-10-21T15:13:22.809690Z,1697901202809
0.35939979553222656,0.13173937797546387,-0.17948055267333984,2023-10-21T15:13:22.826926Z,1697901202826
0.4436836242675781,0.1664423942565918,-0.21671533584594727,2023-10-21T15:13:22.847223Z,1697901202847
0.523808479309082,0.20116972923278809,-0.24899983406066895,2023-10-21T15:13:22.867515Z,1697901202867
0.5906801223754883,0.23198199272155762,-0.2720165252685547,2023-10-21T15:13:22.887779Z,1697901202887
0.6379070281982422,0.2555665969848633,-0.2834792137145996,2023-10-21T15:13:22.909587Z,1697901202909
0.6613388061523438,0.2693357467651367,-0.2827606201171875,2023-10-21T15:13:22.928296Z,1697901202928
0.6570844650268555,0.2709085941314697,-0.26979970932006836,2023-10-21T15:13:22.948572Z,1697901202948
0.6220722198486328,0.25846028327941895,-0.24513506889343262,2023-10-21T15:13:22.968831Z,1697901202968
0.5574150085449219,0.23230648040771484,-0.21090912818908691,2023-10-21T15:13:22.989038Z,1697901202988
0.46790313720703125,0.19472742080688477,-0.17026472091674805,2023-10-21T15:13:23.009715Z,1697901203009
0.3620119094848633,0.1499018669128418,-0.12706327438354492,2023-10-21T15:13:23.029649Z,1697901203029
0.25171661376953125,0.10347962379455566,-0.08559966087341309,2023-10-21T15:13:23.049925Z,1697901203049
0.15182018280029297,0.061934709548950195,-0.05033564567565918,2023-10-21T15:13:23.070163Z,1697901203070
0.07671260833740234,0.031093358993530273,-0.024990081787109375,2023-10-21T15:13:23.092749Z,1697901203092
0.036777496337890625,0.014852285385131836,-0.011877775192260742,2023-10-21T15:13:23.110743Z,1697901203110
0.03459739685058594,0.01397252082824707,-0.01117849349975586,2023-10-21T15:13:23.130949Z,1697901203130
0.0688333511352539,0.027920246124267578,-0.022438526153564453,2023-10-21T15:13:23.151211Z,1697901203151
0.13492298126220703,0.05521059036254883,-0.04471254348754883,2023-10-21T15:13:23.171426Z,1697901203171
0.2245349884033203,0.0930790901184082,-0.07609176635742188,2023-10-21T15:13:23.192665Z,1697901203192
0.32728099822998047,0.1379261016845703,-0.11385774612426758,2023-10-21T15:13:23.211975Z,1697901203211
0.4305696487426758,0.1848750114440918,-0.15402936935424805,2023-10-21T15:13:23.232255Z,1697901203232
0.5218677520751953,0.22844743728637695,-0.1919701099395752,2023-10-21T15:13:23.252506Z,1697901203252
0.5887622833251953,0.2624964714050293,-0.22240734100341797,2023-10-21T15:13:23.272701Z,1697901203272
0.6213274002075195,0.2814621925354004,-0.24052000045776367,2023-10-21T15:13:23.293013Z,1697901203292
0.6148805618286133,0.2820773124694824,-0.24335241317749023,2023-10-21T15:13:23.313271Z,1697901203313
0.573211669921875,0.2654132843017578,-0.23148441314697266,2023-10-21T15:13:23.333560Z,1697901203333
0.5035467147827148,0.23471546173095703,-0.20711350440979004,2023-10-21T15:13:23.353805Z,1697901203353
0.4143972396850586,0.19416046142578125,-0.17321443557739258,2023-10-21T15:13:23.376028Z,1697901203375
0.31472301483154297,0.14812779426574707,-0.13332891464233398,2023-10-21T15:13:23.394387Z,1697901203394
0.21520137786865234,0.10174870491027832,-0.09211564064025879,2023-10-21T15:13:23.414635Z,1697901203414
0.12840557098388672,0.06104564666748047,-0.055381059646606445,2023-10-21T15:13:23.434904Z,1697901203434
0.06459522247314453,0.03095388412475586,-0.028005599975585938,2023-10-21T15:13:23.455135Z,1697901203455
0.031111717224121094,0.015092849731445312,-0.013530731201171875,2023-10-21T15:13:23.475825Z,1697901203475
0.0301055908203125,0.014873027801513672,-0.013107776641845703,2023-10-21T15:13:23.495702Z,1697901203495
0.059533119201660156,0.030166149139404297,-0.025883913040161133,2023-10-21T15:13:23.515953Z,1697901203515
0.11384773254394531,0.05956554412841797,-0.049242258071899414,2023-10-21T15:13:23.536268Z,1697901203536
0.18448829650878906,0.10022735595703125,-0.07902956008911133,2023-10-21T15:13:23.559190Z,1697901203559
0.26082515716552734,0.14776611328125,-0.11007332801818848,2023-10-21T15:13:23.576803Z,1697901203576
0.3330211639404297,0.19742202758789062,-0.13765454292297363,2023-10-21T15:13:23.597012Z,1697901203596
0.3934626579284668,0.24487781524658203,-0.15833806991577148,2023-10-21T15:13:23.617321Z,1697901203617
0.44057273864746094,0.2888040542602539,-0.17148184776306152,2023-10-21T15:13:23.637544Z,1697901203637
0.47539281845092773,0.3292398452758789,-0.17762041091918945,2023-10-21T15:13:23.659084Z,1697901203659
0.499575138092041,0.36660003662109375,-0.17761516571044922,2023-10-21T15:13:23.678082Z,1697901203678
0.514988899230957,0.4016556739807129,-0.1725468635559082,2023-10-21T15:13:23.698339Z,1697901203698
0.5245137214660645,0.4364352226257324,-0.1639842987060547,2023-10-21T15:13:23.718673Z,1697901203718
0.5331664085388184,0.4755687713623047,-0.15412306785583496,2023-10-21T15:13:23.738805Z,1697901203738
0.5479331016540527,0.5268893241882324,-0.14544928073883057,2023-10-21T15:13:23.759130Z,1697901203759
0.5773282051086426,0.6019129753112793,-0.1405642032623291,2023-10-21T15:13:23.779409Z,1697901203779
0.6265945434570312,0.7114262580871582,-0.14117217063903809,2023-10-21T15:13:23.799676Z,1697901203799
0.6969060897827148,0.8619804382324219,-0.14856231212615967,2023-10-21T15:13:23.819936Z,1697901203819
0.7830920219421387,1.0501785278320312,-0.16352379322052002,2023-10-21T15:13:23.842262Z,1697901203842
0.8791747093200684,1.266465187072754,-0.1876213550567627,2023-10-21T15:13:23.860420Z,1697901203860
0.9818906784057617,1.498605728149414,-0.2212280035018921,2023-10-21T15:13:23.880695Z,1697901203880
1.089820384979248,1.7350225448608398,-0.2640810012817383,2023-10-21T15:13:23.900976Z,1697901203900
1.1986923217773438,1.9636821746826172,-0.3162633180618286,2023-10-21T15:13:23.921233Z,1697901203921
1.3026175498962402,2.1726760864257812,-0.378068208694458,2023-10-21T15:13:23.942139Z,1697901203942
1.3947124481201172,2.347874641418457,-0.44924092292785645,2023-10-21T15:13:23.961732Z,1697901203961
1.4707098007202148,2.473224639892578,-0.5251481533050537,2023-10-21T15:13:23.982022Z,1697901203981
1.527942180633545,2.5370330810546875,-0.5980057716369629,2023-10-21T15:13:24.002269Z,1697901204002
1.5602030754089355,2.5353403091430664,-0.6592509746551514,2023-10-21T15:13:24.025518Z,1697901204025
1.560117244720459,2.469785690307617,-0.7016487121582031,2023-10-21T15:13:24.042775Z,1697901204042
1.5221962928771973,2.3451337814331055,-0.7204644680023193,2023-10-21T15:13:24.063058Z,1697901204063
1.4424991607666016,2.1674652099609375,-0.7159793376922607,2023-10-21T15:13:24.083354Z,1697901204083
1.3209309577941895,1.9409942626953125,-0.6887862682342529,2023-10-21T15:13:24.103597Z,1697901204103
1.163285732269287,1.6693115234375,-0.6371779441833496,2023-10-21T15:13:24.125360Z,1697901204125
0.9748005867004395,1.3566761016845703,-0.5581412315368652,2023-10-21T15:13:24.144128Z,1697901204144
0.7574596405029297,1.010535717010498,-0.4489109516143799,2023-10-21T15:13:24.164403Z,1697901204164
0.509099006652832,0.6427688598632812,-0.30948710441589355,2023-10-21T15:13:24.184642Z,1697901204184
0.22775793075561523,0.2684164047241211,-0.14120197296142578,2023-10-21T15:13:24.204878Z,1697901204204
-0.08587932586669922,-0.09279060363769531,0.05404496192932129,2023-10-21T15:13:24.225238Z,1697901204225
-0.4292263984680176,-0.41513919830322266,0.27300167083740234,2023-10-21T15:13:24.245466Z,1697901204245
-0.7987766265869141,-0.669896125793457,0.5110409259796143,2023-10-21T15:13:24.265709Z,1697901204265
-1.1873698234558105,-0.8264241218566895,0.7592806816101074,2023-10-21T15:13:24.285976Z,1697901204285
-1.578162670135498,-0.855288028717041,1.0002822875976562,2023-10-21T15:13:24.308677Z,1697901204308
-1.9452996253967285,-0.7427544593811035,1.2110052108764648,2023-10-21T15:13:24.326487Z,1697901204326
-2.2580814361572266,-0.49864089488983154,1.3687424659729004,2023-10-21T15:13:24.346774Z,1697901204346
-2.48935604095459,-0.15486112236976624,1.4577288627624512,2023-10-21T15:13:24.367028Z,1697901204366
-2.6196632385253906,0.24335819482803345,1.4782931804656982,2023-10-21T15:13:24.387278Z,1697901204387
-2.645026206970215,0.6508111953735352,1.4409244060516357,2023-10-21T15:13:24.408621Z,1697901204408
-2.5728869438171387,1.029630184173584,1.3530795574188232,2023-10-21T15:13:24.427811Z,1697901204427
-2.421297550201416,1.350492000579834,1.221968650817871,2023-10-21T15:13:24.448100Z,1697901204448
-2.2170777320861816,1.594970703125,1.0590951442718506,2023-10-21T15:13:24.468311Z,1697901204468
-1.9923243522644043,1.764091968536377,0.8879015445709229,2023-10-21T15:13:24.488551Z,1697901204488
-1.769859790802002,1.8724408149719238,0.7279156446456909,2023-10-21T15:13:24.508908Z,1697901204508
-1.5534753799438477,1.9238438606262207,0.5848804712295532,2023-10-21T15:13:24.529154Z,1697901204529
-1.3431358337402344,1.9142084121704102,0.46030914783477783,2023-10-21T15:13:24.549332Z,1697901204549
-1.140923023223877,1.8409781455993652,0.35478031635284424,2023-10-21T15:13:24.569563Z,1697901204569
-0.9513092041015625,1.7062740325927734,0.2646467685699463,2023-10-21T15:13:24.591673Z,1697901204591
-0.7791476249694824,1.5227351188659668,0.1882116198539734,2023-10-21T15:13:24.610159Z,1697901204610
-0.6288466453552246,1.3164963722229004,0.12736964225769043,2023-10-21T15:13:24.630464Z,1697901204630
-0.5027782917022705,1.1135869026184082,0.0828937292098999,2023-10-21T15:13:24.650651Z,1697901204650
-0.40101051330566406,0.9320621490478516,0.05335354804992676,2023-10-21T15:13:24.670860Z,1697901204670
-0.31946706771850586,0.7728071212768555,0.0344061553478241,2023-10-21T15:13:24.691406Z,1697901204691
-0.2537715435028076,0.6325836181640625,0.022105276584625244,2023-10-21T15:13:24.711497Z,1697901204711
-0.2021312713623047,0.5141916275024414,0.014081299304962158,2023-10-21T15:13:24.731791Z,1697901204731
-0.16317009925842285,0.4197406768798828,0.008783742785453796,2023-10-21T15:13:24.751962Z,1697901204751
-0.1361072063446045,0.3507204055786133,0.005296617746353149,2023-10-21T15:13:24.774945Z,1697901204774
-0.12085628509521484,0.3088665008544922,0.0030514299869537354,2023-10-21T15:13:24.792532Z,1697901204792
-0.11793375015258789,0.2957315444946289,0.001571759581565857,2023-10-21T15:13:24.812865Z,1697901204812
-0.12790751457214355,0.3110189437866211,4.985891282558441E-4,2023-10-21T15:13:24.833109Z,1697901204833
-0.1513504981994629,0.3525228500366211,-3.6759302020072937E-4,2023-10-21T15:13:24.853346Z,1697901204853
-0.18803048133850098,0.41483592987060547,-0.0010989531874656677,2023-10-21T15:13:24.875116Z,1697901204875
-0.23722505569458008,0.49122142791748047,-0.0017405208200216293,2023-10-21T15:13:24.893904Z,1697901204893
-0.29865169525146484,0.5762624740600586,-0.0022528991103172302,2023-10-21T15:13:24.914139Z,1697901204914
-0.3736872673034668,0.6677765846252441,-0.002383846789598465,2023-10-21T15:13:24.934347Z,1697901204934
-0.46556711196899414,0.7655239105224609,-0.001400301232933998,2023-10-21T15:13:24.954607Z,1697901204954
-0.5780839920043945,0.8678827285766602,0.0019545909017324448,2023-10-21T15:13:24.974893Z,1697901204974
-0.7139840126037598,0.9696364402770996,0.009323656558990479,2023-10-21T15:13:24.995199Z,1697901204995
-0.8744778633117676,1.062950611114502,0.02265128493309021,2023-10-21T15:13:25.015447Z,1697901205015
-1.0591468811035156,1.138598918914795,0.043794482946395874,2023-10-21T15:13:25.035681Z,1697901205035
-1.2641468048095703,1.1850934028625488,0.07425743341445923,2023-10-21T15:13:25.058102Z,1697901205058
-1.4800968170166016,1.1886897087097168,0.11478766798973083,2023-10-21T15:13:25.076241Z,1697901205076
-1.6891536712646484,1.1357831954956055,0.16460710763931274,2023-10-21T15:13:25.096536Z,1697901205096
-1.866529941558838,1.0194876194000244,0.22049206495285034,2023-10-21T15:13:25.116853Z,1697901205116
-1.9863581657409668,0.8457543849945068,0.27651017904281616,2023-10-21T15:13:25.137212Z,1697901205137
-2.0307278633117676,0.6344540119171143,0.3252776861190796,2023-10-21T15:13:25.158059Z,1697901205158
-1.993886947631836,0.4126901626586914,0.3600507974624634,2023-10-21T15:13:25.177727Z,1697901205177
-1.8812198638916016,0.20656949281692505,0.37656593322753906,2023-10-21T15:13:25.197817Z,1697901205197
-1.7061748504638672,0.0356488972902298,0.3736485242843628,2023-10-21T15:13:25.218035Z,1697901205217
-1.4866304397583008,-0.08925735950469971,0.3529001474380493,2023-10-21T15:13:25.241179Z,1697901205241
-1.2428321838378906,-0.1658865213394165,0.31775617599487305,2023-10-21T15:13:25.258765Z,1697901205258
-0.9948892593383789,-0.19897735118865967,0.27276158332824707,2023-10-21T15:13:25.278877Z,1697901205278
-0.7579965591430664,-0.19745087623596191,0.22210264205932617,2023-10-21T15:13:25.299114Z,1697901205299
-0.5416784286499023,-0.17117786407470703,0.16924405097961426,2023-10-21T15:13:25.319352Z,1697901205319
-0.34850597381591797,-0.12811493873596191,0.11592793464660645,2023-10-21T15:13:25.341216Z,1697901205341
-0.17714691162109375,-0.07369089126586914,0.0626380443572998,2023-10-21T15:13:25.359912Z,1697901205359
-0.0247039794921875,-0.01140737533569336,0.009269475936889648,2023-10-21T15:13:25.380178Z,1697901205380
0.1114969253540039,0.05636405944824219,-0.044294118881225586,2023-10-21T15:13:25.400391Z,1697901205400
0.2332744598388672,0.12778711318969727,-0.0978696346282959,2023-10-21T15:13:25.420614Z,1697901205420
0.3417525291442871,0.2011857032775879,-0.15088987350463867,2023-10-21T15:13:25.440967Z,1697901205440
0.4359598159790039,0.2737293243408203,-0.20161032676696777,2023-10-21T15:13:25.461249Z,1697901205461
0.5142912864685059,0.34191179275512695,-0.24767160415649414,2023-10-21T15:13:25.481513Z,1697901205481
0.5753278732299805,0.40215015411376953,-0.2866811752319336,2023-10-21T15:13:25.501739Z,1697901205501
0.6186909675598145,0.4513568878173828,-0.31670641899108887,2023-10-21T15:13:25.524370Z,1697901205524
0.6437702178955078,0.48625755310058594,-0.3358159065246582,2023-10-21T15:13:25.542340Z,1697901205542
0.6487851142883301,0.5030403137207031,-0.3418285846710205,2023-10-21T15:13:25.562633Z,1697901205562
0.6315603256225586,0.4982452392578125,-0.33303308486938477,2023-10-21T15:13:25.582822Z,1697901205582
0.5917806625366211,0.47090864181518555,-0.3095738887786865,2023-10-21T15:13:25.602995Z,1697901205602
0.5323214530944824,0.42363691329956055,-0.27399444580078125,2023-10-21T15:13:25.624167Z,1697901205624
0.45949649810791016,0.3626213073730469,-0.23099565505981445,2023-10-21T15:13:25.643634Z,1697901205643
0.3830246925354004,0.29720163345336914,-0.186906099319458,2023-10-21T15:13:25.663910Z,1697901205663
0.3126211166381836,0.23668622970581055,-0.14743781089782715,2023-10-21T15:13:25.684125Z,1697901205684
0.2547111511230469,0.1871199607849121,-0.1158294677734375,2023-10-21T15:13:25.704310Z,1697901205704
0.2107386589050293,0.14985895156860352,-0.09235024452209473,2023-10-21T15:13:25.724640Z,1697901205724
0.1790771484375,0.12333965301513672,-0.07564496994018555,2023-10-21T15:13:25.744956Z,1697901205744
0.1581888198852539,0.10582876205444336,-0.06446313858032227,2023-10-21T15:13:25.765187Z,1697901205765
0.1490631103515625,0.09724760055541992,-0.05863165855407715,2023-10-21T15:13:25.785378Z,1697901205785
0.15064716339111328,0.09626531600952148,-0.05718708038330078,2023-10-21T15:13:25.807550Z,1697901205807
0.1589512825012207,0.09992551803588867,-0.058138132095336914,2023-10-21T15:13:25.825983Z,1697901205825
0.1663503646850586,0.10329580307006836,-0.05843973159790039,2023-10-21T15:13:25.846304Z,1697901205846
0.16517257690429688,0.10170412063598633,-0.05549979209899902,2023-10-21T15:13:25.866601Z,1697901205866
0.1524209976196289,0.0933685302734375,-0.048760414123535156,2023-10-21T15:13:25.886755Z,1697901205886
0.1311187744140625,0.08005189895629883,-0.03978443145751953,2023-10-21T15:13:25.907669Z,1697901205907
0.10905838012695312,0.06634283065795898,-0.03131890296936035,2023-10-21T15:13:25.927323Z,1697901205927
0.0947122573852539,0.05729198455810547,-0.02575826644897461,2023-10-21T15:13:25.947612Z,1697901205947
0.09395503997802734,0.05637025833129883,-0.024290800094604492,2023-10-21T15:13:25.967753Z,1697901205967
0.1065511703491211,0.06328105926513672,-0.026369571685791016,2023-10-21T15:13:25.991092Z,1697901205991
0.129425048828125,0.07598733901977539,-0.03095698356628418,2023-10-21T15:13:26.008326Z,1697901206008
0.15835189819335938,0.09183454513549805,-0.037068843841552734,2023-10-21T15:13:26.028642Z,1697901206028
0.19073200225830078,0.1092371940612793,-0.04435908794403076,2023-10-21T15:13:26.048919Z,1697901206048
0.2250518798828125,0.1273031234741211,-0.05283713340759277,2023-10-21T15:13:26.069120Z,1697901206069
0.2573375701904297,0.14388275146484375,-0.06189894676208496,2023-10-21T15:13:26.090673Z,1697901206090
0.28165245056152344,0.1558823585510254,-0.07018423080444336,2023-10-21T15:13:26.109722Z,1697901206109
0.2923879623413086,0.16052961349487305,-0.07603693008422852,2023-10-21T15:13:26.129957Z,1697901206129
0.28566741943359375,0.15602636337280273,-0.07790160179138184,2023-10-21T15:13:26.150171Z,1697901206150
0.2607097625732422,0.14208650588989258,-0.0747520923614502,2023-10-21T15:13:26.170462Z,1697901206170
0.2199420928955078,0.11991357803344727,-0.06637716293334961,2023-10-21T15:13:26.190730Z,1697901206190
0.16808223724365234,0.09182357788085938,-0.053365468978881836,2023-10-21T15:13:26.211006Z,1697901206210
0.11263465881347656,0.0616917610168457,-0.03755545616149902,2023-10-21T15:13:26.231247Z,1697901206231
0.060916900634765625,0.03343629837036133,-0.021267414093017578,2023-10-21T15:13:26.251508Z,1697901206251
0.018642425537109375,0.0102386474609375,-0.006786346435546875,2023-10-21T15:13:26.273843Z,1697901206273
-0.010711669921875,-0.005872249603271484,0.004045963287353516,2023-10-21T15:13:26.292042Z,1697901206292
-0.024251937866210938,-0.01322317123413086,0.009454011917114258,2023-10-21T15:13:26.312337Z,1697901206312
-0.020338058471679688,-0.010986328125,0.008151531219482422,2023-10-21T15:13:26.332551Z,1697901206332
0.0015764236450195312,8.406639099121094E-4,-6.482601165771484E-4,2023-10-21T15:13:26.352856Z,1697901206352
0.04027557373046875,0.02109384536743164,-0.016902923583984375,2023-10-21T15:13:26.373711Z,1697901206373
0.09193897247314453,0.0471186637878418,-0.03934955596923828,2023-10-21T15:13:26.393346Z,1697901206393
0.1508960723876953,0.07542228698730469,-0.06572341918945312,2023-10-21T15:13:26.413664Z,1697901206413
0.20952892303466797,0.1019296646118164,-0.09266424179077148,2023-10-21T15:13:26.433873Z,1697901206433
0.26082420349121094,0.12337541580200195,-0.11684894561767578,2023-10-21T15:13:26.457142Z,1697901206457
0.3003044128417969,0.13808321952819824,-0.13594841957092285,2023-10-21T15:13:26.474442Z,1697901206474
0.3287200927734375,0.14689135551452637,-0.14999914169311523,2023-10-21T15:13:26.494723Z,1697901206494
0.3483247756958008,0.15129303932189941,-0.1597893238067627,2023-10-21T15:13:26.514940Z,1697901206514
0.3617258071899414,0.15289807319641113,-0.1663360595703125,2023-10-21T15:13:26.535160Z,1697901206535
0.3715686798095703,0.1531836986541748,-0.17074990272521973,2023-10-21T15:13:26.556953Z,1697901206556
0.38097667694091797,0.1537306308746338,-0.1744709014892578,2023-10-21T15:13:26.575751Z,1697901206575
0.3956565856933594,0.15698647499084473,-0.1801455020904541,2023-10-21T15:13:26.596030Z,1697901206595
0.4209718704223633,0.16514945030212402,-0.1902761459350586,2023-10-21T15:13:26.616259Z,1697901206616
0.4586181640625,0.17899250984191895,-0.20565509796142578,2023-10-21T15:13:26.636444Z,1697901206636
0.5067358016967773,0.19803261756896973,-0.22540879249572754,2023-10-21T15:13:26.656883Z,1697901206656
0.5602779388427734,0.22064995765686035,-0.24722003936767578,2023-10-21T15:13:26.677045Z,1697901206677
0.6131505966186523,0.2447376251220703,-0.2682607173919678,2023-10-21T15:13:26.697308Z,1697901206697
0.6615085601806641,0.2687947750091553,-0.2867121696472168,2023-10-21T15:13:26.717556Z,1697901206717
0.7027149200439453,0.2914433479309082,-0.3013002872467041,2023-10-21T15:13:26.740220Z,1697901206740
0.7346487045288086,0.31138062477111816,-0.3111133575439453,2023-10-21T15:13:26.758079Z,1697901206758
0.7557735443115234,0.3274714946746826,-0.3156149387359619,2023-10-21T15:13:26.778426Z,1697901206778
0.7641029357910156,0.3384523391723633,-0.31427836418151855,2023-10-21T15:13:26.798605Z,1697901206798
0.7595815658569336,0.34391117095947266,-0.3074321746826172,2023-10-21T15:13:26.818853Z,1697901206818
0.7448873519897461,0.34463071823120117,-0.29645609855651855,2023-10-21T15:13:26.839831Z,1697901206839
0.7237176895141602,0.3420393466949463,-0.2829897403717041,2023-10-21T15:13:26.859488Z,1697901206859
0.7003250122070312,0.3379836082458496,-0.26874232292175293,2023-10-21T15:13:26.879714Z,1697901206879
0.6778850555419922,0.3340487480163574,-0.25495076179504395,2023-10-21T15:13:26.899903Z,1697901206899
0.6575889587402344,0.33098936080932617,-0.242034912109375,2023-10-21T15:13:26.920127Z,1697901206920
0.6392002105712891,0.32880401611328125,-0.22988009452819824,2023-10-21T15:13:26.940465Z,1697901206940
0.621190071105957,0.32673168182373047,-0.2178945541381836,2023-10-21T15:13:26.960756Z,1697901206960
0.6011018753051758,0.32337045669555664,-0.20517420768737793,2023-10-21T15:13:26.981002Z,1697901206980
0.5763816833496094,0.3171210289001465,-0.19084548950195312,2023-10-21T15:13:27.001231Z,1697901207001
0.545745849609375,0.3068833351135254,-0.17454743385314941,2023-10-21T15:13:27.023357Z,1697901207023
0.5090665817260742,0.2921929359436035,-0.1564466953277588,2023-10-21T15:13:27.041796Z,1697901207041
0.4669189453125,0.27309513092041016,-0.13709139823913574,2023-10-21T15:13:27.062082Z,1697901207062
0.4196453094482422,0.24967288970947266,-0.11703753471374512,2023-10-21T15:13:27.082322Z,1697901207082
0.36630821228027344,0.2213292121887207,-0.09648442268371582,2023-10-21T15:13:27.102609Z,1697901207102
0.3063631057739258,0.18767213821411133,-0.07575082778930664,2023-10-21T15:13:27.123100Z,1697901207123
0.2406473159790039,0.14919710159301758,-0.05549931526184082,2023-10-21T15:13:27.143130Z,1697901207143
0.17119884490966797,0.10726118087768555,-0.03657674789428711,2023-10-21T15:13:27.163426Z,1697901207163
0.10082721710205078,0.06377077102661133,-0.019817352294921875,2023-10-21T15:13:27.183630Z,1697901207183
0.033489227294921875,0.02137136459350586,-0.006016850471496582,2023-10-21T15:13:27.206512Z,1697901207206
-0.02770709991455078,-0.017841815948486328,0.004525542259216309,2023-10-21T15:13:27.224159Z,1697901207224
-0.07915115356445312,-0.05147695541381836,0.011725425720214844,2023-10-21T15:13:27.244459Z,1697901207244
-0.11794090270996094,-0.07761240005493164,0.015853524208068848,2023-10-21T15:13:27.264679Z,1697901207264
-0.14314603805541992,-0.09557676315307617,0.017525792121887207,2023-10-21T15:13:27.284897Z,1697901207284
-0.1528935432434082,-0.10393524169921875,0.01714348793029785,2023-10-21T15:13:27.306238Z,1697901207306
-0.14493656158447266,-0.10070419311523438,0.015007078647613525,2023-10-21T15:13:27.325601Z,1697901207325
-0.11700725555419922,-0.08347082138061523,0.011327862739562988,2023-10-21T15:13:27.345778Z,1697901207345
-0.0670309066772461,-0.0493316650390625,0.006178915500640869,2023-10-21T15:13:27.366024Z,1697901207365
0.004944324493408203,0.0037736892700195312,-4.432201385498047E-4,2023-10-21T15:13:27.386307Z,1697901207386
0.0954446792602539,0.07594442367553711,-0.008518576622009277,2023-10-21T15:13:27.406635Z,1697901207406
0.19976806640625,0.16674041748046875,-0.01814103126525879,2023-10-21T15:13:27.426822Z,1697901207426
0.3132023811340332,0.2759838104248047,-0.029597461223602295,2023-10-21T15:13:27.447113Z,1697901207447
0.4342989921569824,0.4060673713684082,-0.043761491775512695,2023-10-21T15:13:27.467328Z,1697901207467
0.5637655258178711,0.5606069564819336,-0.06227982044219971,2023-10-21T15:13:27.489638Z,1697901207489
0.6978812217712402,0.7380499839782715,-0.08739125728607178,2023-10-21T15:13:27.507891Z,1697901207507
0.8287925720214844,0.9309449195861816,-0.12180757522583008,2023-10-21T15:13:27.528156Z,1697901207528
0.9479961395263672,1.128788948059082,-0.16829454898834229,2023-10-21T15:13:27.548482Z,1697901207548
1.0515532493591309,1.3215703964233398,-0.22935914993286133,2023-10-21T15:13:27.568769Z,1697901207568
1.1419529914855957,1.499868392944336,-0.30455923080444336,2023-10-21T15:13:27.589550Z,1697901207589
1.2241830825805664,1.6556034088134766,-0.3900585174560547,2023-10-21T15:13:27.609204Z,1697901207609
1.3035845756530762,1.7862939834594727,-0.4830899238586426,2023-10-21T15:13:27.629531Z,1697901207629
1.3768177032470703,1.8883628845214844,-0.5799775123596191,2023-10-21T15:13:27.649706Z,1697901207649
1.4379706382751465,1.9601917266845703,-0.6810123920440674,2023-10-21T15:13:27.672862Z,1697901207672
1.480480670928955,1.9944524765014648,-0.7814486026763916,2023-10-21T15:13:27.690264Z,1697901207690
1.5037403106689453,1.9866809844970703,-0.8732264041900635,2023-10-21T15:13:27.710562Z,1697901207710
1.5123562812805176,1.939939022064209,-0.9497828483581543,2023-10-21T15:13:27.730814Z,1697901207730
1.507145881652832,1.8581767082214355,-1.0046889781951904,2023-10-21T15:13:27.750973Z,1697901207750
1.484116554260254,1.7452311515808105,-1.0320396423339844,2023-10-21T15:13:27.772703Z,1697901207772
1.4385185241699219,1.609015941619873,-1.032763957977295,2023-10-21T15:13:27.791560Z,1697901207791
1.368955135345459,1.4580073356628418,-1.012749195098877,2023-10-21T15:13:27.811863Z,1697901207811
1.2747259140014648,1.2936506271362305,-0.9731178283691406,2023-10-21T15:13:27.832096Z,1697901207832
1.1628336906433105,1.118556022644043,-0.9156150817871094,2023-10-21T15:13:27.852300Z,1697901207852
1.034712791442871,0.9319233894348145,-0.8343648910522461,2023-10-21T15:13:27.872769Z,1697901207872
0.893059253692627,0.7419576644897461,-0.7311677932739258,2023-10-21T15:13:27.892916Z,1697901207892
0.741426944732666,0.5596828460693359,-0.6125974655151367,2023-10-21T15:13:27.913168Z,1697901207913
0.5833659172058105,0.39354467391967773,-0.4847273826599121,2023-10-21T15:13:27.933380Z,1697901207933
0.4272494316101074,0.25192785263061523,-0.35596799850463867,2023-10-21T15:13:27.956026Z,1697901207955
0.2799344062805176,0.14005708694458008,-0.23328161239624023,2023-10-21T15:13:27.973902Z,1697901207973
0.1427016258239746,0.05822181701660156,-0.11870098114013672,2023-10-21T15:13:27.994221Z,1697901207994
0.016338825225830078,0.005128145217895508,-0.013525962829589844,2023-10-21T15:13:28.014439Z,1697901208014
-0.09691715240478516,-0.021234631538391113,0.07946538925170898,2023-10-21T15:13:28.034656Z,1697901208034
-0.19396543502807617,-0.024260401725769043,0.1563854217529297,2023-10-21T15:13:28.055955Z,1697901208055
-0.2766857147216797,-0.009441405534744263,0.21758747100830078,2023-10-21T15:13:28.075284Z,1697901208075
-0.3535037040710449,0.01800808310508728,0.2701573371887207,2023-10-21T15:13:28.095529Z,1697901208095
-0.43230199813842773,0.0559048056602478,0.3220996856689453,2023-10-21T15:13:28.115722Z,1697901208115
-0.5199947357177734,0.10553503036499023,0.38028621673583984,2023-10-21T15:13:28.135969Z,1697901208135
-0.6051645278930664,0.16617774963378906,0.43683290481567383,2023-10-21T15:13:28.156280Z,1697901208156
-0.6773905754089355,0.2342369556427002,0.4817690849304199,2023-10-21T15:13:28.176578Z,1697901208176
-0.7289648056030273,0.30267786979675293,0.5086102485656738,2023-10-21T15:13:28.196813Z,1697901208196
-0.7613849639892578,0.36666107177734375,0.5208473205566406,2023-10-21T15:13:28.217085Z,1697901208217
-0.7810559272766113,0.4260578155517578,0.5265579223632812,2023-10-21T15:13:28.239051Z,1697901208239
-0.7875394821166992,0.47925662994384766,0.5282611846923828,2023-10-21T15:13:28.257608Z,1697901208257
-0.7721495628356934,0.5189390182495117,0.521416187286377,2023-10-21T15:13:28.277926Z,1697901208277
-0.7256965637207031,0.5341181755065918,0.4966130256652832,2023-10-21T15:13:28.298228Z,1697901208298
-0.6495914459228516,0.5187101364135742,0.44948482513427734,2023-10-21T15:13:28.318377Z,1697901208318
-0.5540614128112793,0.47437381744384766,0.3850526809692383,2023-10-21T15:13:28.339047Z,1697901208339
-0.46091556549072266,0.4181704521179199,0.31991052627563477,2023-10-21T15:13:28.359012Z,1697901208358
-0.3828916549682617,0.3643975257873535,0.2661323547363281,2023-10-21T15:13:28.379287Z,1697901208379
-0.32068824768066406,0.3176717758178711,0.22429275512695312,2023-10-21T15:13:28.399499Z,1697901208399
-0.26766490936279297,0.27399158477783203,0.18854856491088867,2023-10-21T15:13:28.422363Z,1697901208422
-0.21665382385253906,0.22725582122802734,0.15309619903564453,2023-10-21T15:13:28.439994Z,1697901208439
-0.16779422760009766,0.17875432968139648,0.11818456649780273,2023-10-21T15:13:28.460298Z,1697901208460
-0.12384939193725586,0.13281965255737305,0.08628559112548828,2023-10-21T15:13:28.480491Z,1697901208480
-0.08594703674316406,0.09197759628295898,0.0587458610534668,2023-10-21T15:13:28.500720Z,1697901208500
-0.05462217330932617,0.05782127380371094,0.036316871643066406,2023-10-21T15:13:28.522274Z,1697901208522
-0.029657840728759766,0.03077983856201172,0.019018173217773438,2023-10-21T15:13:28.541345Z,1697901208541
-0.010308265686035156,0.010396957397460938,0.006326913833618164,2023-10-21T15:13:28.561611Z,1697901208561
0.003078460693359375,-0.0029926300048828125,-0.0017960071563720703,2023-10-21T15:13:28.581853Z,1697901208581
0.009519100189208984,-0.008852005004882812,-0.0052490234375,2023-10-21T15:13:28.602087Z,1697901208602
0.006916046142578125,-0.006103992462158203,-0.003588438034057617,2023-10-21T15:13:28.622391Z,1697901208622
-0.007205486297607422,0.005983829498291016,0.0035066604614257812,2023-10-21T15:13:28.642687Z,1697901208642
-0.035520076751708984,0.027481555938720703,0.016203641891479492,2023-10-21T15:13:28.662904Z,1697901208662
-0.08022260665893555,0.0571751594543457,0.03434109687805176,2023-10-21T15:13:28.683131Z,1697901208683
-0.14227724075317383,0.09222888946533203,0.0573272705078125,2023-10-21T15:13:28.705483Z,1697901208705
-0.21902132034301758,0.12723541259765625,0.0835120677947998,2023-10-21T15:13:28.723692Z,1697901208723
-0.3042154312133789,0.15555238723754883,0.11066818237304688,2023-10-21T15:13:28.744009Z,1697901208743
-0.3892354965209961,0.17125701904296875,0.136566162109375,2023-10-21T15:13:28.764201Z,1697901208764
-0.46440696716308594,0.17070794105529785,0.1591358184814453,2023-10-21T15:13:28.784489Z,1697901208784
-0.5200443267822266,0.15338897705078125,0.17627477645874023,2023-10-21T15:13:28.805384Z,1697901208805
-0.5488462448120117,0.12239944934844971,0.18622636795043945,2023-10-21T15:13:28.824999Z,1697901208824
-0.5479602813720703,0.08365976810455322,0.1881551742553711,2023-10-21T15:13:28.845307Z,1697901208845
-0.5184736251831055,0.043917179107666016,0.1819446086883545,2023-10-21T15:13:28.865581Z,1697901208865
-0.4620065689086914,0.009042471647262573,0.16713523864746094,2023-10-21T15:13:28.888733Z,1697901208888
-0.3808269500732422,-0.016167044639587402,0.14299774169921875,2023-10-21T15:13:28.906044Z,1697901208906
-0.28039073944091797,-0.02838355302810669,0.10981965065002441,2023-10-21T15:13:28.926363Z,1697901208926
-0.17050457000732422,-0.02672743797302246,0.06984663009643555,2023-10-21T15:13:28.946606Z,1697901208946
-0.06245613098144531,-0.013067364692687988,0.026778459548950195,2023-10-21T15:13:28.966813Z,1697901208966
0.03701305389404297,0.009586811065673828,-0.01660299301147461,2023-10-21T15:13:28.988696Z,1697901208988
0.1252584457397461,0.038407087326049805,-0.05874204635620117,2023-10-21T15:13:29.007390Z,1697901209007
0.2028961181640625,0.07152533531188965,-0.09940338134765625,2023-10-21T15:13:29.027671Z,1697901209027
0.27109432220458984,0.10759973526000977,-0.13861846923828125,2023-10-21T15:13:29.047874Z,1697901209047
0.33112621307373047,0.1456444263458252,-0.17647600173950195,2023-10-21T15:13:29.068075Z,1697901209068
0.3840312957763672,0.18488621711730957,-0.21298980712890625,2023-10-21T15:13:29.088392Z,1697901209088
0.43024253845214844,0.2244863510131836,-0.24787282943725586,2023-10-21T15:13:29.108710Z,1697901209108
0.46972084045410156,0.2633957862854004,-0.280454158782959,2023-10-21T15:13:29.128948Z,1697901209128
0.5023155212402344,0.30036401748657227,-0.3098902702331543,2023-10-21T15:13:29.149234Z,1697901209149
0.5283231735229492,0.3342475891113281,-0.33554887771606445,2023-10-21T15:13:29.171978Z,1697901209171
0.5474882125854492,0.3636136054992676,-0.35652828216552734,2023-10-21T15:13:29.189729Z,1697901209189
0.558903694152832,0.38663578033447266,-0.3715028762817383,2023-10-21T15:13:29.210020Z,1697901209209
0.5605225563049316,0.40084171295166016,-0.3784317970275879,2023-10-21T15:13:29.230321Z,1697901209230
0.5505084991455078,0.40407800674438477,-0.37544822692871094,2023-10-21T15:13:29.250531Z,1697901209250
0.527531623840332,0.39480018615722656,-0.36120128631591797,2023-10-21T15:13:29.271732Z,1697901209271
0.4908180236816406,0.37218523025512695,-0.3350973129272461,2023-10-21T15:13:29.291102Z,1697901209291
0.44069433212280273,0.3366580009460449,-0.29789209365844727,2023-10-21T15:13:29.311381Z,1697901209311
0.37928152084350586,0.29032325744628906,-0.2520480155944824,2023-10-21T15:13:29.331666Z,1697901209331
0.3107929229736328,0.23714685440063477,-0.2016162872314453,2023-10-21T15:13:29.355215Z,1697901209355
0.23981761932373047,0.18153047561645508,-0.1508035659790039,2023-10-21T15:13:29.372147Z,1697901209372
0.16937732696533203,0.12664222717285156,-0.1025094985961914,2023-10-21T15:13:29.392443Z,1697901209392
0.1023397445678711,0.0753331184387207,-0.05919981002807617,2023-10-21T15:13:29.412748Z,1697901209412
0.043375492095947266,0.03135824203491211,-0.023830652236938477,2023-10-21T15:13:29.432858Z,1697901209432
1.6117095947265625E-4,1.1396408081054688E-4,-8.344650268554688E-5,2023-10-21T15:13:29.455058Z,1697901209454
-0.020119190216064453,-0.013948917388916016,0.009836196899414062,2023-10-21T15:13:29.473460Z,1697901209473
-0.01465463638305664,-0.009931087493896484,0.006742954254150391,2023-10-21T15:13:29.493741Z,1697901209493
0.013550758361816406,0.008971214294433594,-0.0058743953704833984,2023-10-21T15:13:29.514009Z,1697901209513
0.056996822357177734,0.03690004348754883,-0.023318767547607422,2023-10-21T15:13:29.534171Z,1697901209534
0.10714435577392578,0.06791830062866211,-0.04148674011230469,2023-10-21T15:13:29.554888Z,1697901209554
0.15589523315429688,0.09692144393920898,-0.05729937553405762,2023-10-21T15:13:29.575177Z,1697901209574
0.19692516326904297,0.12026834487915039,-0.06893086433410645,2023-10-21T15:13:29.595067Z,1697901209595
0.22446155548095703,0.1348276138305664,-0.07505917549133301,2023-10-21T15:13:29.615283Z,1697901209615
0.2333698272705078,0.13793516159057617,-0.07474184036254883,2023-10-21T15:13:29.637988Z,1697901209637
0.21952342987060547,0.12762880325317383,-0.06744575500488281,2023-10-21T15:13:29.655818Z,1697901209655
0.18285274505615234,0.10443449020385742,-0.05392909049987793,2023-10-21T15:13:29.676109Z,1697901209676
0.12930870056152344,0.07236576080322266,-0.03661775588989258,2023-10-21T15:13:29.696335Z,1697901209696
0.06942176818847656,0.03792762756347656,-0.01890087127685547,2023-10-21T15:13:29.716539Z,1697901209716
0.014811515808105469,0.007867813110351562,-0.0038907527923583984,2023-10-21T15:13:29.738078Z,1697901209738
-0.027009963989257812,-0.013910770416259766,0.006883382797241211,2023-10-21T15:13:29.757143Z,1697901209757
-0.05136585235595703,-0.025630950927734375,0.012806177139282227,2023-10-21T15:13:29.777406Z,1697901209777
-0.05611610412597656,-0.02716541290283203,0.013815879821777344,2023-10-21T15:13:29.797636Z,1697901209797
-0.039870262145996094,-0.018779754638671875,0.00979161262512207,2023-10-21T15:13:29.817835Z,1697901209817
-0.0036163330078125,-0.0016646385192871094,8.933544158935547E-4,2023-10-21T15:13:29.838241Z,1697901209838
0.04773521423339844,0.021562576293945312,-0.011987924575805664,2023-10-21T15:13:29.858462Z,1697901209858
0.10796928405761719,0.04815673828125,-0.027725934982299805,2023-10-21T15:13:29.878719Z,1697901209878
0.16982269287109375,0.07525086402893066,-0.04487323760986328,2023-10-21T15:13:29.898929Z,1697901209898
0.22513294219970703,0.09972596168518066,-0.06153225898742676,2023-10-21T15:13:29.921386Z,1697901209921
0.2659721374511719,0.11843585968017578,-0.07544732093811035,2023-10-21T15:13:29.939505Z,1697901209939
0.2868614196777344,0.12897753715515137,-0.08461451530456543,2023-10-21T15:13:29.959809Z,1697901209959
0.2861471176147461,0.13025116920471191,-0.08776092529296875,2023-10-21T15:13:29.980017Z,1697901209979
0.26645946502685547,0.12283945083618164,-0.08485913276672363,2023-10-21T15:13:30.000251Z,1697901210000
0.23147106170654297,0.10793685913085938,-0.07643699645996094,2023-10-21T15:13:30.021265Z,1697901210021
0.18628311157226562,0.08767032623291016,-0.06370091438293457,2023-10-21T15:13:30.040858Z,1697901210040
0.13690757751464844,0.06486320495605469,-0.048436641693115234,2023-10-21T15:13:30.061117Z,1697901210061
0.08798980712890625,0.04186820983886719,-0.032187461853027344,2023-10-21T15:13:30.081427Z,1697901210081
0.04377937316894531,0.020878314971923828,-0.016544818878173828,2023-10-21T15:13:30.104742Z,1697901210104
0.009779930114746094,0.0046656131744384766,-0.0038118362426757812,2023-10-21T15:13:30.121930Z,1697901210121
-0.008211135864257812,-0.003912925720214844,0.003298044204711914,2023-10-21T15:13:30.142171Z,1697901210142
-0.0066318511962890625,-0.003156900405883789,0.0027441978454589844,2023-10-21T15:13:30.162418Z,1697901210162
0.013588905334472656,0.0064661502838134766,-0.005788564682006836,2023-10-21T15:13:30.182611Z,1697901210182
0.04648113250732422,0.022166013717651367,-0.02039480209350586,2023-10-21T15:13:30.204513Z,1697901210204
0.0847005844116211,0.040624380111694336,-0.03827834129333496,2023-10-21T15:13:30.223218Z,1697901210223
0.121429443359375,0.05879020690917969,-0.056466102600097656,2023-10-21T15:13:30.243489Z,1697901210243
0.15271472930908203,0.0748291015625,-0.07295799255371094,2023-10-21T15:13:30.263776Z,1697901210263
0.17721939086914062,0.08794927597045898,-0.08678889274597168,2023-10-21T15:13:30.283937Z,1697901210283
0.1965312957763672,0.09867477416992188,-0.09840106964111328,2023-10-21T15:13:30.304363Z,1697901210304
0.21185302734375,0.10741662979125977,-0.1081547737121582,2023-10-21T15:13:30.324571Z,1697901210324
0.2235126495361328,0.11420106887817383,-0.11604738235473633,2023-10-21T15:13:30.344796Z,1697901210344
0.2325439453125,0.11945438385009766,-0.12250280380249023,2023-10-21T15:13:30.365043Z,1697901210365
0.24079132080078125,0.12409210205078125,-0.12847137451171875,2023-10-21T15:13:30.389149Z,1697901210389
0.25249385833740234,0.13028573989868164,-0.1362156867980957,2023-10-21T15:13:30.405561Z,1697901210405
0.271852970123291,0.14020061492919922,-0.1480727195739746,2023-10-21T15:13:30.425855Z,1697901210425
0.3005695343017578,0.15476226806640625,-0.1651158332824707,2023-10-21T15:13:30.446123Z,1697901210446
0.33560895919799805,0.17255353927612305,-0.18581771850585938,2023-10-21T15:13:30.466405Z,1697901210466
0.37282562255859375,0.19167757034301758,-0.20801782608032227,2023-10-21T15:13:30.487561Z,1697901210487
0.4063720703125,0.20949983596801758,-0.2285017967224121,2023-10-21T15:13:30.506910Z,1697901210506
0.43331289291381836,0.22471380233764648,-0.24550199508666992,2023-10-21T15:13:30.527210Z,1697901210527
0.4537997245788574,0.23743486404418945,-0.25893592834472656,2023-10-21T15:13:30.547375Z,1697901210547
0.46916675567626953,0.24825382232666016,-0.26932477951049805,2023-10-21T15:13:30.567602Z,1697901210567
0.4821596145629883,0.2583913803100586,-0.27797746658325195,2023-10-21T15:13:30.587941Z,1697901210587
0.4941120147705078,0.2684001922607422,-0.28555917739868164,2023-10-21T15:13:30.608210Z,1697901210608
0.5054388046264648,0.2784252166748047,-0.29230546951293945,2023-10-21T15:13:30.628487Z,1697901210628
0.517247200012207,0.2889070510864258,-0.29879140853881836,2023-10-21T15:13:30.648680Z,1697901210648
0.5321516990661621,0.30119895935058594,-0.3064579963684082,2023-10-21T15:13:30.670694Z,1697901210670
0.5518884658813477,0.31640148162841797,-0.3162498474121094,2023-10-21T15:13:30.689237Z,1697901210689
0.5769729614257812,0.33501386642456055,-0.3284182548522949,2023-10-21T15:13:30.709528Z,1697901210709
0.604827880859375,0.3558783531188965,-0.341524600982666,2023-10-21T15:13:30.729767Z,1697901210729
0.6313886642456055,0.37679243087768555,-0.35321617126464844,2023-10-21T15:13:30.749970Z,1697901210749
0.6532678604125977,0.39571332931518555,-0.3615531921386719,2023-10-21T15:13:30.770494Z,1697901210770
0.6669225692749023,0.41033029556274414,-0.3646211624145508,2023-10-21T15:13:30.790631Z,1697901210790
0.6691436767578125,0.4183216094970703,-0.3608055114746094,2023-10-21T15:13:30.810875Z,1697901210810
0.6576108932495117,0.4177131652832031,-0.3491244316101074,2023-10-21T15:13:30.831064Z,1697901210831
0.6316046714782715,0.4075655937194824,-0.3296082019805908,2023-10-21T15:13:30.854007Z,1697901210853
0.5916957855224609,0.3877582550048828,-0.3029489517211914,2023-10-21T15:13:30.871636Z,1697901210871
0.5390090942382812,0.35847902297973633,-0.270064115524292,2023-10-21T15:13:30.891931Z,1697901210891
0.4745063781738281,0.3198976516723633,-0.23187971115112305,2023-10-21T15:13:30.912187Z,1697901210912
0.3998832702636719,0.27286434173583984,-0.1898486614227295,2023-10-21T15:13:30.932385Z,1697901210932
0.31783533096313477,0.21920061111450195,-0.14601898193359375,2023-10-21T15:13:30.953926Z,1697901210953
0.23182916641235352,0.16142702102661133,-0.10268735885620117,2023-10-21T15:13:30.972979Z,1697901210972
0.1456899642944336,0.1023707389831543,-0.06202507019042969,2023-10-21T15:13:30.993278Z,1697901210993
0.06422185897827148,0.04553556442260742,-0.026212692260742188,2023-10-21T15:13:31.013480Z,1697901211013
-0.007568836212158203,-0.0054187774658203125,0.0029573440551757812,2023-10-21T15:13:31.033645Z,1697901211033
-0.06608057022094727,-0.047817230224609375,0.0247039794921875,2023-10-21T15:13:31.054008Z,1697901211053
-0.10994386672973633,-0.08057689666748047,0.039371490478515625,2023-10-21T15:13:31.074347Z,1697901211074
-0.13954877853393555,-0.1038665771484375,0.0480036735534668,2023-10-21T15:13:31.094595Z,1697901211094
-0.15583038330078125,-0.11819791793823242,0.05172896385192871,2023-10-21T15:13:31.115164Z,1697901211115
-0.16006803512573242,-0.12423896789550781,0.05158376693725586,2023-10-21T15:13:31.137565Z,1697901211137
-0.15345144271850586,-0.1224207878112793,0.04833984375,2023-10-21T15:13:31.155333Z,1697901211155
-0.13629579544067383,-0.11225318908691406,0.04225969314575195,2023-10-21T15:13:31.175693Z,1697901211175
-0.10866355895996094,-0.09277677536010742,0.033393144607543945,2023-10-21T15:13:31.195893Z,1697901211195
-0.07086706161499023,-0.0629873275756836,0.021732091903686523,2023-10-21T15:13:31.216220Z,1697901211216
-0.02323293685913086,-0.02158069610595703,0.00715947151184082,2023-10-21T15:13:31.237476Z,1697901211237
0.034951210021972656,0.03405141830444336,-0.010894775390625,2023-10-21T15:13:31.256727Z,1697901211256
0.10545730590820312,0.10812902450561523,-0.03349709510803223,2023-10-21T15:13:31.276943Z,1697901211276
0.18915605545043945,0.20476818084716797,-0.06170177459716797,2023-10-21T15:13:31.297201Z,1697901211297
0.2859969139099121,0.3278970718383789,-0.09653139114379883,2023-10-21T15:13:31.320465Z,1697901211320
0.39470338821411133,0.4805440902709961,-0.1387486457824707,2023-10-21T15:13:31.337668Z,1697901211337
0.5121245384216309,0.6636133193969727,-0.18852829933166504,2023-10-21T15:13:31.357992Z,1697901211357
0.6324138641357422,0.8746414184570312,-0.24523162841796875,2023-10-21T15:13:31.378277Z,1697901211378
0.751030445098877,1.1121749877929688,-0.3086674213409424,2023-10-21T15:13:31.398516Z,1697901211398
0.8663287162780762,1.3770666122436523,-0.37947797775268555,2023-10-21T15:13:31.420310Z,1697901211420
0.9777035713195801,1.6695060729980469,-0.4584314823150635,2023-10-21T15:13:31.439004Z,1697901211438
1.0822367668151855,1.9834480285644531,-0.5450489521026611,2023-10-21T15:13:31.459304Z,1697901211459
1.1748108863830566,2.304215431213379,-0.6359407901763916,2023-10-21T15:13:31.479541Z,1697901211479
1.2520232200622559,2.617995262145996,-0.7261626720428467,2023-10-21T15:13:31.499738Z,1697901211499
1.3134267330169678,2.9183568954467773,-0.8147478103637695,2023-10-21T15:13:31.520212Z,1697901211520
1.3604021072387695,3.2001218795776367,-0.9010884761810303,2023-10-21T15:13:31.540364Z,1697901211540
1.3925933837890625,3.4560375213623047,-0.9870238304138184,2023-10-21T15:13:31.560626Z,1697901211560
1.4142212867736816,3.672088623046875,-1.0685985088348389,2023-10-21T15:13:31.580842Z,1697901211580
1.4281635284423828,3.8333520889282227,-1.1387114524841309,2023-10-21T15:13:31.603585Z,1697901211603
1.4349966049194336,3.9309301376342773,-1.192359447479248,2023-10-21T15:13:31.621405Z,1697901211621
1.4331347942352295,3.960232734680176,-1.225977897644043,2023-10-21T15:13:31.641690Z,1697901211641
1.4204435348510742,3.9205989837646484,-1.2368018627166748,2023-10-21T15:13:31.661943Z,1697901211661
1.3965764045715332,3.8181934356689453,-1.225261926651001,2023-10-21T15:13:31.682136Z,1697901211682
1.362290620803833,3.657902717590332,-1.1939671039581299,2023-10-21T15:13:31.703396Z,1697901211703
1.3172111511230469,3.438157081604004,-1.1410257816314697,2023-10-21T15:13:31.723035Z,1697901211722
1.2585680484771729,3.1599769592285156,-1.0659477710723877,2023-10-21T15:13:31.743362Z,1697901211743
1.184333324432373,2.8269405364990234,-0.9662644863128662,2023-10-21T15:13:31.763244Z,1697901211763
1.089132308959961,2.450529098510742,-0.8463213443756104,2023-10-21T15:13:31.783415Z,1697901211783
0.969512939453125,2.042487144470215,-0.7125239372253418,2023-10-21T15:13:31.803750Z,1697901211803
0.8212766647338867,1.6087913513183594,-0.5677416324615479,2023-10-21T15:13:31.824046Z,1697901211824
0.6400070190429688,1.156599998474121,-0.41422009468078613,2023-10-21T15:13:31.844278Z,1697901211844
0.42229175567626953,0.6970977783203125,-0.2545657157897949,2023-10-21T15:13:31.864511Z,1697901211864
0.16562318801879883,0.24662399291992188,-0.09244751930236816,2023-10-21T15:13:31.886699Z,1697901211886
-0.13312530517578125,-0.17616701126098633,0.06840395927429199,2023-10-21T15:13:31.905081Z,1697901211905
-0.4774203300476074,-0.5520811080932617,0.2246229648590088,2023-10-21T15:13:31.925380Z,1697901211925
-0.8678598403930664,-0.8601131439208984,0.37181591987609863,2023-10-21T15:13:31.945607Z,1697901211945
-1.2954339981079102,-1.0744881629943848,0.5020043849945068,2023-10-21T15:13:31.965983Z,1697901211965
-1.7355217933654785,-1.1695261001586914,0.6043810844421387,2023-10-21T15:13:31.987042Z,1697901211987
-2.1516919136047363,-1.130516529083252,0.6706478595733643,2023-10-21T15:13:32.006678Z,1697901212006
-2.5037927627563477,-0.9613580703735352,0.6933375597000122,2023-10-21T15:13:32.026805Z,1697901212026
-2.753262519836426,-0.6888006925582886,0.6697518825531006,2023-10-21T15:13:32.046998Z,1697901212046
-2.8693971633911133,-0.3588712215423584,0.5986300706863403,2023-10-21T15:13:32.069860Z,1697901212069
-2.856874465942383,-0.032557129859924316,0.4976801872253418,2023-10-21T15:13:32.087555Z,1697901212087
-2.7442879676818848,0.24665522575378418,0.3886517286300659,2023-10-21T15:13:32.107870Z,1697901212107
-2.5650339126586914,0.4603126049041748,0.28546983003616333,2023-10-21T15:13:32.128126Z,1697901212128
-2.3463134765625,0.6060374975204468,0.1954505443572998,2023-10-21T15:13:32.148262Z,1697901212148
-2.108424663543701,0.6901547908782959,0.12225964665412903,2023-10-21T15:13:32.169710Z,1697901212169
-1.8666129112243652,0.7243313789367676,0.0658501386642456,2023-10-21T15:13:32.188787Z,1697901212188
-1.6350789070129395,0.7216024398803711,0.023439019918441772,2023-10-21T15:13:32.209047Z,1697901212208
-1.4268031120300293,0.6953692436218262,-0.005988297984004021,2023-10-21T15:13:32.229432Z,1697901212229
-1.2460312843322754,0.6557328701019287,-0.024922415614128113,2023-10-21T15:13:32.249475Z,1697901212249
-1.0992364883422852,0.6143569946289062,-0.034601420164108276,2023-10-21T15:13:32.269799Z,1697901212269
-0.9737458229064941,0.5707321166992188,-0.03824082016944885,2023-10-21T15:13:32.290088Z,1697901212290
-0.8605237007141113,0.5234308242797852,-0.03872489929199219,2023-10-21T15:13:32.310359Z,1697901212310
-0.7575478553771973,0.47336721420288086,-0.037367403507232666,2023-10-21T15:13:32.330606Z,1697901212330
-0.6651339530944824,0.42267799377441406,-0.035038381814956665,2023-10-21T15:13:32.353379Z,1697901212353
-0.5863490104675293,0.3753242492675781,-0.03250277042388916,2023-10-21T15:13:32.371166Z,1697901212371
-0.521944522857666,0.3334012031555176,-0.03030344843864441,2023-10-21T15:13:32.391437Z,1697901212391
-0.4719820022583008,0.298095703125,-0.02871096134185791,2023-10-21T15:13:32.411665Z,1697901212411
-0.437654972076416,0.27082014083862305,-0.027922451496124268,2023-10-21T15:13:32.431905Z,1697901212431
-0.4196949005126953,0.2521696090698242,-0.02805924415588379,2023-10-21T15:13:32.453115Z,1697901212453
-0.41757774353027344,0.2414250373840332,-0.029200375080108643,2023-10-21T15:13:32.472526Z,1697901212472
