GYR_X,GYR_Y,GYR_Z,DATE,UNIX_TIMESTAMP
0.0023945067077875137,-0.0034587320405989885,-0.0022614786867052317,2023-10-21T15:13:08.805176Z,1697901188805
0.003325703786686063,-0.004256900865584612,-0.004389929119497538,2023-10-21T15:13:08.825372Z,1697901188825
-0.003325703786686063,-0.001064225216396153,-0.004389929119497538,2023-10-21T15:13:08.835804Z,1697901188835
0.0023945067077875137,-0.003325703786686063,1.3302815204951912E-4,2023-10-21T15:13:08.845671Z,1697901188845
-0.0017293660202994943,-0.0014633096288889647,-0.0,2023-10-21T15:13:08.855261Z,1697901188855
0.004256900865584612,0.0025275349617004395,0.003059647511690855,2023-10-21T15:13:08.865945Z,1697901188865
-0.0034587320405989885,0.0018623941577970982,0.0034587320405989885,2023-10-21T15:13:08.875524Z,1697901188875
0.0017293660202994943,-0.0038578163366764784,0.001064225216396153,2023-10-21T15:13:08.886368Z,1697901188886
0.004256900865584612,0.004389929119497538,0.0025275349617004395,2023-10-21T15:13:08.895635Z,1697901188895
-3.990844707004726E-4,-0.004123872611671686,-0.0014633096288889647,2023-10-21T15:13:08.906564Z,1697901188906
-0.0035917600616812706,-0.004922041669487953,-0.0038578163366764784,2023-10-21T15:13:08.915900Z,1697901188915
0.0034587320405989885,0.0034587320405989885,0.0013302814913913608,2023-10-21T15:13:08.926802Z,1697901188926
-1.3302815204951912E-4,0.0019954221788793802,-0.0011972533538937569,2023-10-21T15:13:08.936344Z,1697901188936
-0.0047890134155750275,-0.0017293660202994943,-2.6605630409903824E-4,2023-10-21T15:13:08.947076Z,1697901188947
-0.0047890134155750275,-0.0011972533538937569,0.003325703786686063,2023-10-21T15:13:08.956610Z,1697901188956
0.001064225216396153,-0.002128450432792306,-0.0031926757656037807,2023-10-21T15:13:08.970318Z,1697901188970
-0.0011972533538937569,0.0038578163366764784,-2.6605630409903824E-4,2023-10-21T15:13:08.976810Z,1697901188976
0.003059647511690855,-0.0019954221788793802,-0.0023945067077875137,2023-10-21T15:13:08.987503Z,1697901188987
0.0017293660202994943,-0.0035917600616812706,0.004256900865584612,2023-10-21T15:13:08.997056Z,1697901188996
-0.0038578163366764784,-0.0038578163366764784,-0.0027935912366956472,2023-10-21T15:13:09.008125Z,1697901189008
2.6605630409903824E-4,-0.004123872611671686,-0.004256900865584612,2023-10-21T15:13:09.019817Z,1697901189019
5.321126081980765E-4,-0.0026605629827827215,1.3302815204951912E-4,2023-10-21T15:13:09.028270Z,1697901189028
-0.0026605629827827215,0.002128450432792306,-7.981689414009452E-4,2023-10-21T15:13:09.037615Z,1697901189037
0.0035917600616812706,-0.0035917600616812706,7.981689414009452E-4,2023-10-21T15:13:09.048455Z,1697901189048
-0.002128450432792306,0.004389929119497538,0.004522957373410463,2023-10-21T15:13:09.057902Z,1697901189057
-6.651407456956804E-4,0.0017293660202994943,-0.0019954221788793802,2023-10-21T15:13:09.070030Z,1697901189069
0.0026605629827827215,-0.0031926757656037807,0.003325703786686063,2023-10-21T15:13:09.078153Z,1697901189078
0.0025275349617004395,-0.0023945067077875137,-1.3302815204951912E-4,2023-10-21T15:13:09.089098Z,1697901189089
-3.990844707004726E-4,-0.004655985161662102,3.990844707004726E-4,2023-10-21T15:13:09.098333Z,1697901189098
-0.0013302814913913608,0.0019954221788793802,-0.004922041669487953,2023-10-21T15:13:09.109349Z,1697901189109
-0.004922041669487953,0.0015963378828018904,0.0013302814913913608,2023-10-21T15:13:09.119574Z,1697901189119
-0.0014633096288889647,-0.004522957373410463,-0.004389929119497538,2023-10-21T15:13:09.129447Z,1697901189129
0.0026605629827827215,3.990844707004726E-4,-0.0038578163366764784,2023-10-21T15:13:09.138940Z,1697901189138
0.002128450432792306,0.001064225216396153,-0.004522957373410463,2023-10-21T15:13:09.153233Z,1697901189153
0.0031926757656037807,0.004389929119497538,0.0035917600616812706,2023-10-21T15:13:09.159190Z,1697901189159
0.0037247883155941963,0.0,-0.0037247883155941963,2023-10-21T15:13:09.170058Z,1697901189170
-0.0013302814913913608,0.0018623941577970982,0.002128450432792306,2023-10-21T15:13:09.179491Z,1697901189179
-0.0027935912366956472,0.003325703786686063,0.0023945067077875137,2023-10-21T15:13:09.190419Z,1697901189190
-0.0015963378828018904,0.003325703786686063,0.004389929119497538,2023-10-21T15:13:09.202556Z,1697901189202
0.0018623941577970982,6.651407456956804E-4,0.0035917600616812706,2023-10-21T15:13:09.210578Z,1697901189210
0.0038578163366764784,-0.0031926757656037807,1.3302815204951912E-4,2023-10-21T15:13:09.219955Z,1697901189219
-9.311970788985491E-4,-0.001064225216396153,-0.0022614786867052317,2023-10-21T15:13:09.230838Z,1697901189230
-0.004389929119497538,-0.003059647511690855,0.0011972533538937569,2023-10-21T15:13:09.240273Z,1697901189240
-0.0018623941577970982,0.004123872611671686,3.990844707004726E-4,2023-10-21T15:13:09.253147Z,1697901189253
9.311970788985491E-4,-0.0015963378828018904,-0.003059647511690855,2023-10-21T15:13:09.260546Z,1697901189260
-0.004123872611671686,-0.0037247883155941963,1.3302815204951912E-4,2023-10-21T15:13:09.271523Z,1697901189271
0.0038578163366764784,-0.0026605629827827215,-0.0017293660202994943,2023-10-21T15:13:09.280680Z,1697901189280
0.004922041669487953,0.0039908443577587605,0.0018623941577970982,2023-10-21T15:13:09.291754Z,1697901189291
0.003325703786686063,-0.004389929119497538,-0.0014633096288889647,2023-10-21T15:13:09.302841Z,1697901189302
-0.0015963378828018904,2.6605630409903824E-4,2.6605630409903824E-4,2023-10-21T15:13:09.311875Z,1697901189311
-0.004123872611671686,-0.004123872611671686,0.004123872611671686,2023-10-21T15:13:09.321284Z,1697901189321
-0.004522957373410463,0.0031926757656037807,9.311970788985491E-4,2023-10-21T15:13:09.332084Z,1697901189332
-0.0015963378828018904,0.0037247883155941963,0.003325703786686063,2023-10-21T15:13:09.341601Z,1697901189341
0.0031926757656037807,0.002128450432792306,0.004522957373410463,2023-10-21T15:13:09.353016Z,1697901189352
0.014500068500638008,0.01942211017012596,0.0872664675116539,2023-10-21T15:13:09.361775Z,1697901189361
0.02288084290921688,0.021816616877913475,0.10083533823490143,2023-10-21T15:13:09.372740Z,1697901189372
0.026738658547401428,0.023412954062223434,0.10761977732181549,2023-10-21T15:13:09.381930Z,1697901189381
0.030064363032579422,0.02474323660135269,0.11333998292684555,2023-10-21T15:13:09.393213Z,1697901189393
0.03259189799427986,0.027536828070878983,0.1169317439198494,2023-10-21T15:13:09.402824Z,1697901189402
0.03485337644815445,0.029931334778666496,0.12012442201375961,2023-10-21T15:13:09.413163Z,1697901189413
0.029665278270840645,0.025674432516098022,0.10256470739841461,2023-10-21T15:13:09.422718Z,1697901189422
0.03299098089337349,0.02886710874736309,0.1053582951426506,2023-10-21T15:13:09.436615Z,1697901189436
0.035917602479457855,0.03166069835424423,0.10761977732181549,2023-10-21T15:13:09.442876Z,1697901189442
0.030596474185585976,0.02700471505522728,0.09192245453596115,2023-10-21T15:13:09.453893Z,1697901189453
0.026206545531749725,0.023146897554397583,0.0784866064786911,2023-10-21T15:13:09.463098Z,1697901189463
0.02700471505522728,0.03352309390902519,0.08739949762821198,2023-10-21T15:13:09.474167Z,1697901189474
0.027802884578704834,0.04243598133325577,0.09511512517929077,2023-10-21T15:13:09.486101Z,1697901189486
0.023679010570049286,0.03618365898728371,0.08114717155694962,2023-10-21T15:13:09.494296Z,1697901189494
0.020220279693603516,0.030862530693411827,0.06930766999721527,2023-10-21T15:13:09.503655Z,1697901189503
0.0172936599701643,0.02633957378566265,0.059197526425123215,2023-10-21T15:13:09.514550Z,1697901189514
0.01476612500846386,0.02261478640139103,0.05055069923400879,2023-10-21T15:13:09.523957Z,1697901189523
0.013169786892831326,0.034986402839422226,0.061059921979904175,2023-10-21T15:13:09.536500Z,1697901189536
0.011706477031111717,0.04562865570187569,0.07010583579540253,2023-10-21T15:13:09.544157Z,1697901189544
0.009977111592888832,0.0389772467315197,0.05986266955733299,2023-10-21T15:13:09.555225Z,1697901189555
0.008513801731169224,0.03325703740119934,0.05108281224966049,2023-10-21T15:13:09.564301Z,1697901189564
0.007316548377275467,0.028468023985624313,0.04363323375582695,2023-10-21T15:13:09.575562Z,1697901189575
0.006252323277294636,0.02421112358570099,0.037247881293296814,2023-10-21T15:13:09.585805Z,1697901189585
0.0063853515312075615,0.03671576827764511,0.04842224717140198,2023-10-21T15:13:09.595643Z,1697901189595
0.0063853515312075615,0.047224994748830795,0.057867247611284256,2023-10-21T15:13:09.604977Z,1697901189604
0.005454154219478369,0.040307529270648956,0.04948647320270538,2023-10-21T15:13:09.619271Z,1697901189619
0.004655985161662102,0.03445428982377052,0.04230295121669769,2023-10-21T15:13:09.625217Z,1697901189625
0.0039908443577587605,0.029399221763014793,0.03605062887072563,2023-10-21T15:13:09.636222Z,1697901189636
0.0034587320405989885,0.02514232136309147,0.030862530693411827,2023-10-21T15:13:09.645431Z,1697901189645
0.0029266192577779293,0.021417532116174698,0.02633957378566265,2023-10-21T15:13:09.656578Z,1697901189656
0.0025275349617004395,0.018357884138822556,0.022481758147478104,2023-10-21T15:13:09.669164Z,1697901189669
0.015032181516289711,0.028201967477798462,0.03924330323934555,2023-10-21T15:13:09.676607Z,1697901189676
0.025674432516098022,0.03671576827764511,0.05374337360262871,2023-10-21T15:13:09.686034Z,1697901189685
0.0219496451318264,0.03139464557170868,0.04589471220970154,2023-10-21T15:13:09.696826Z,1697901189696
0.03325703740119934,0.031261615455150604,0.05547273904085159,2023-10-21T15:13:09.706333Z,1697901189706
0.042835064232349396,0.03112858720123768,0.06358745694160461,2023-10-21T15:13:09.719411Z,1697901189719
0.036582741886377335,0.026472602039575577,0.05427548661828041,2023-10-21T15:13:09.726560Z,1697901189726
0.05148189514875412,0.029399221763014793,0.05866541340947151,2023-10-21T15:13:09.737567Z,1697901189737
0.06425260007381439,0.03179372847080231,0.06225717440247536,2023-10-21T15:13:09.746731Z,1697901189746
0.0707709789276123,0.03618365898728371,0.05201400816440582,2023-10-21T15:13:09.757914Z,1697901189757
0.07649118453264236,0.03990844637155533,0.04310112074017525,2023-10-21T15:13:09.768985Z,1697901189768
0.07968386262655258,0.04044055938720703,0.02008725143969059,2023-10-21T15:13:09.777914Z,1697901189777
0.0823444277048111,0.04083964228630066,5.321126081980765E-4,2023-10-21T15:13:09.787431Z,1697901189787
0.07582604885101318,0.026206545531749725,-0.04070661589503288,2023-10-21T15:13:09.798139Z,1697901189798
0.0653168261051178,-0.0,-0.10881702601909637,2023-10-21T15:13:09.807658Z,1697901189807
0.03924330323934555,-0.035917602479457855,-0.166817307472229,2023-10-21T15:13:09.819465Z,1697901189819
0.006651407573372126,-0.08088111877441406,-0.23120293021202087,2023-10-21T15:13:09.827822Z,1697901189827
-0.023013871163129807,-0.12810611724853516,-0.29665279388427734,2023-10-21T15:13:09.838991Z,1697901189838
-0.04057358577847481,-0.17493201792240143,-0.3545200228691101,2023-10-21T15:13:09.848016Z,1697901189847
-0.04496351629495621,-0.22894145548343658,-0.3940293788909912,2023-10-21T15:13:09.859183Z,1697901189859
-0.04017450287938118,-0.3029051125049591,-0.40693312883377075,2023-10-21T15:13:09.869162Z,1697901189869
-0.02979830652475357,-0.40214410424232483,-0.3908367156982422,2023-10-21T15:13:09.879249Z,1697901189879
-0.015830349177122116,-0.5193418860435486,-0.35318973660469055,2023-10-21T15:13:09.888680Z,1697901189888
-9.311970788985491E-4,-0.6426590085029602,-0.30809319019317627,2023-10-21T15:13:09.903186Z,1697901189903
0.012105561792850494,-0.7593246698379517,-0.2721756100654602,2023-10-21T15:13:09.908977Z,1697901189908
0.022082673385739326,-0.8572334051132202,-0.2586067318916321,2023-10-21T15:13:09.919882Z,1697901189919
0.032458867877721786,-0.922816276550293,-0.2717765271663666,2023-10-21T15:13:09.929142Z,1697901189929
0.050683725625276566,-0.9438347220420837,-0.3084922730922699,2023-10-21T15:13:09.940218Z,1697901189940
0.08274351060390472,-0.9198896884918213,-0.35917600989341736,2023-10-21T15:13:09.952448Z,1697901189952
0.12970244884490967,-0.863618791103363,-0.41238728165626526,2023-10-21T15:13:09.960301Z,1697901189960
0.18730363249778748,-0.7973707318305969,-0.45908015966415405,2023-10-21T15:13:09.969701Z,1697901189969
0.24995990097522736,-0.7399025559425354,-0.4939335286617279,2023-10-21T15:13:09.980532Z,1697901189980
0.3132812976837158,-0.6998611092567444,-0.5149520039558411,2023-10-21T15:13:09.990005Z,1697901189989
0.37407517433166504,-0.6785765886306763,-0.5249291062355042,2023-10-21T15:13:10.002780Z,1697901190002
0.43008002638816833,-0.6729894280433655,-0.529984176158905,2023-10-21T15:13:10.010178Z,1697901190010
0.47890135645866394,-0.6785765886306763,-0.5353052616119385,2023-10-21T15:13:10.021392Z,1697901190021
0.5177455544471741,-0.6910812258720398,-0.5439521074295044,2023-10-21T15:13:10.030916Z,1697901190030
0.5434200167655945,-0.708241879940033,-0.560048520565033,2023-10-21T15:13:10.041626Z,1697901190041
0.5532640814781189,-0.730457603931427,-0.5877183675765991,2023-10-21T15:13:10.052583Z,1697901190052
0.5474108457565308,-0.7579944133758545,-0.6272277235984802,2023-10-21T15:13:10.061564Z,1697901190061
0.5285208225250244,-0.789522111415863,-0.6740536689758301,2023-10-21T15:13:10.071067Z,1697901190071
0.4999198019504547,-0.8246415257453918,-0.7224758863449097,2023-10-21T15:13:10.081879Z,1697901190081
0.4637361466884613,-0.8646829724311829,-0.7695678472518921,2023-10-21T15:13:10.091346Z,1697901190091
0.4210340976715088,-0.9133712649345398,-0.8167928457260132,2023-10-21T15:13:10.102675Z,1697901190102
0.3727448880672455,-0.9737660884857178,-0.8661463260650635,2023-10-21T15:13:10.111520Z,1697901190111
0.3200657367706299,-1.0448031425476074,-0.9160318374633789,2023-10-21T15:13:10.122674Z,1697901190122
0.26592326164245605,-1.122890591621399,-0.9621925950050354,2023-10-21T15:13:10.131720Z,1697901190131
0.2135101854801178,-1.203771710395813,-1.0021010637283325,2023-10-21T15:13:10.142901Z,1697901190142
0.16668426990509033,-1.283721685409546,-1.033761739730835,2023-10-21T15:13:10.152331Z,1697901190152
0.1283721625804901,-1.3588825464248657,-1.0553122758865356,2023-10-21T15:13:10.162853Z,1697901190162
0.1009683683514595,-1.426061749458313,-1.066353678703308,2023-10-21T15:13:10.172405Z,1697901190172
0.0867343544960022,-1.4835299253463745,-1.0671517848968506,2023-10-21T15:13:10.186359Z,1697901190186
0.0872664675116539,-1.5288925170898438,-1.0577068328857422,2023-10-21T15:13:10.192651Z,1697901190192
0.10322984308004379,-1.5605531930923462,-1.0382847785949707,2023-10-21T15:13:10.203659Z,1697901190203
0.13515660166740417,-1.5779799222946167,-1.0088855028152466,2023-10-21T15:13:10.212816Z,1697901190212
0.18317976593971252,-1.5807734727859497,-0.9688440561294556,2023-10-21T15:13:10.223913Z,1697901190223
0.24676722288131714,-1.5689340829849243,-0.9170960783958435,2023-10-21T15:13:10.235770Z,1697901190235
0.3249877691268921,-1.5425944328308105,-0.8535086512565613,2023-10-21T15:13:10.243967Z,1697901190243
0.4161120653152466,-1.5029520988464355,-0.7799440622329712,2023-10-21T15:13:10.253398Z,1697901190253
0.5172134637832642,-1.4521353244781494,-0.7002602219581604,2023-10-21T15:13:10.264152Z,1697901190264
0.6250993013381958,-1.3916075229644775,-0.6180487871170044,2023-10-21T15:13:10.273700Z,1697901190273
0.7363108396530151,-1.321501612663269,-0.5363695025444031,2023-10-21T15:13:10.285882Z,1697901190285
0.8475223779678345,-1.2407535314559937,-0.45748382806777954,2023-10-21T15:13:10.293906Z,1697901190293
0.9562063813209534,-1.1489641666412354,-0.3835201561450958,2023-10-21T15:13:10.304911Z,1697901190304
1.0602344274520874,-1.0475966930389404,-0.31687304377555847,2023-10-21T15:13:10.314139Z,1697901190314
1.1585421562194824,-0.9385136365890503,-0.25701040029525757,2023-10-21T15:13:10.325290Z,1697901190325
1.250065565109253,-0.8249075412750244,-0.20340004563331604,2023-10-21T15:13:10.335486Z,1697901190335
1.3328090906143188,-0.7120996713638306,-0.1553768813610077,2023-10-21T15:13:10.345289Z,1697901190345
1.405043363571167,-0.6059432029724121,-0.11320696026086807,2023-10-21T15:13:10.354897Z,1697901190354
1.4646399021148682,-0.5118923187255859,-0.07782147079706192,2023-10-21T15:13:10.369203Z,1697901190369
1.508140206336975,-0.4364653527736664,-0.05174795165657997,2023-10-21T15:13:10.375057Z,1697901190374
1.5311540365219116,-0.38604769110679626,-0.037247881293296814,2023-10-21T15:13:10.385975Z,1697901190385
1.5296907424926758,-0.3644971251487732,-0.03578457236289978,2023-10-21T15:13:10.395202Z,1697901190395
1.5006905794143677,-0.37354305386543274,-0.0477571077644825,2023-10-21T15:13:10.406326Z,1697901190406
1.4438875913619995,-0.41398361325263977,-0.07250034064054489,2023-10-21T15:13:10.418848Z,1697901190418
1.3622082471847534,-0.48382338881492615,-0.10642252117395401,2023-10-21T15:13:10.426344Z,1697901190426
1.262437105178833,-0.5772091746330261,-0.14300526678562164,2023-10-21T15:13:10.435796Z,1697901190435
1.1502944231033325,-0.6910812258720398,-0.17812469601631165,2023-10-21T15:13:10.446570Z,1697901190446
1.0293718576431274,-0.8249075412750244,-0.2119138389825821,2023-10-21T15:13:10.456094Z,1697901190456
0.9037932753562927,-0.974165141582489,-0.24410666525363922,2023-10-21T15:13:10.469210Z,1697901190469
0.777815580368042,-1.129675030708313,-0.2739049792289734,2023-10-21T15:13:10.476312Z,1697901190476
0.6542324423789978,-1.2830564975738525,-0.30157482624053955,2023-10-21T15:13:10.487338Z,1697901190487
0.5333098769187927,-1.4287223815917969,-0.3287125527858734,2023-10-21T15:13:10.496503Z,1697901190496
0.41637811064720154,-1.5602872371673584,-0.35545122623443604,2023-10-21T15:13:10.507601Z,1697901190507
0.30662989616394043,-1.6724299192428589,-0.3803274929523468,2023-10-21T15:13:10.518785Z,1697901190518
0.20845511555671692,-1.7639533281326294,-0.40161198377609253,2023-10-21T15:13:10.527672Z,1697901190527
0.12504646182060242,-1.8367197513580322,-0.4177083969116211,2023-10-21T15:13:10.537120Z,1697901190537
0.057601191103458405,-1.893655776977539,-0.4279515743255615,2023-10-21T15:13:10.547920Z,1697901190547
0.004922041669487953,-1.9376881122589111,-0.43274056911468506,2023-10-21T15:13:10.557397Z,1697901190557
-0.03445428982377052,-1.9704129695892334,-0.4320754408836365,2023-10-21T15:13:10.568888Z,1697901190568
-0.06212414801120758,-1.9936928749084473,-0.425956130027771,2023-10-21T15:13:10.577589Z,1697901190577
-0.08008294552564621,-2.0100553035736084,-0.4155799448490143,2023-10-21T15:13:10.588835Z,1697901190588
-0.0905921682715416,-2.022693157196045,-0.40214410424232483,2023-10-21T15:13:10.597747Z,1697901190597
-0.09471604228019714,-2.032271146774292,-0.38564860820770264,2023-10-21T15:13:10.608956Z,1697901190608
-0.09205548465251923,-2.038257360458374,-0.3655613660812378,2023-10-21T15:13:10.618752Z,1697901190618
-0.08274351060390472,-2.0409178733825684,-0.3424144685268402,2023-10-21T15:13:10.628930Z,1697901190628
-0.06824344396591187,-2.041450023651123,-0.3187354505062103,2023-10-21T15:13:10.638643Z,1697901190638
-0.05148189514875412,-2.0395877361297607,-0.29705187678337097,2023-10-21T15:13:10.652341Z,1697901190652
-0.03578457236289978,-2.0324041843414307,-0.2792260944843292,2023-10-21T15:13:10.658723Z,1697901190658
-0.02474323660135269,-2.017371892929077,-0.266588419675827,2023-10-21T15:13:10.669646Z,1697901190669
-0.022215701639652252,-1.9956883192062378,-0.26033610105514526,2023-10-21T15:13:10.678875Z,1697901190678
-0.03179372847080231,-1.9722753763198853,-0.2617993950843811,2023-10-21T15:13:10.689971Z,1697901190689
-0.055073656141757965,-1.9525872468948364,-0.2701801657676697,2023-10-21T15:13:10.702061Z,1697901190702
-0.09032611548900604,-1.9390183687210083,-0.28188666701316833,2023-10-21T15:13:10.710065Z,1697901190710
-0.13462449610233307,-1.937954068183899,-0.2921298146247864,2023-10-21T15:13:10.719482Z,1697901190719
-0.1866385042667389,-1.9640276432037354,-0.29598763585090637,2023-10-21T15:13:10.730354Z,1697901190730
-0.24769842624664307,-2.0365278720855713,-0.2892031967639923,2023-10-21T15:13:10.739786Z,1697901190739
-0.31846940517425537,-2.168092727661133,-0.2677856683731079,2023-10-21T15:13:10.752319Z,1697901190752
-0.3996165692806244,-2.3629791736602783,-0.22920750081539154,2023-10-21T15:13:10.760006Z,1697901190759
-0.4951307773590088,-2.6251776218414307,-0.17466595768928528,2023-10-21T15:13:10.771128Z,1697901190771
-0.6111313104629517,-2.9537570476531982,-0.10841794312000275,2023-10-21T15:13:10.780170Z,1697901190780
-0.751875102519989,-3.337144136428833,-0.03578457236289978,2023-10-21T15:13:10.791328Z,1697901190791
-0.915100634098053,-3.7491323947906494,0.03791302442550659,2023-10-21T15:13:10.801620Z,1697901190801
-1.0916290283203125,-4.156730651855469,0.10761977732181549,2023-10-21T15:13:10.811333Z,1697901190811
-1.2677582502365112,-4.527480125427246,0.1696108877658844,2023-10-21T15:13:10.820836Z,1697901190820
-1.4288554191589355,-4.834641933441162,0.22082673013210297,2023-10-21T15:13:10.835781Z,1697901190835
-1.564677119255066,-5.061721324920654,0.25993701815605164,2023-10-21T15:13:10.841066Z,1697901190841
-1.6700353622436523,-5.201533794403076,0.28720778226852417,2023-10-21T15:13:10.852125Z,1697901190852
-1.7338889837265015,-5.00265645980835,0.3045014441013336,2023-10-21T15:13:10.861270Z,1697901190861
-1.7898937463760376,-5.220822811126709,0.31474462151527405,2023-10-21T15:13:10.872813Z,1697901190872
-1.80918288230896,-5.106285572052002,0.32086390256881714,2023-10-21T15:13:10.885557Z,1697901190885
-1.8070544004440308,-4.91818380355835,0.3253868520259857,2023-10-21T15:13:10.892511Z,1697901190892
-1.7894947528839111,-4.669953346252441,0.3304419219493866,2023-10-21T15:13:10.901835Z,1697901190901
-1.7607606649398804,-4.377025127410889,0.3386896848678589,2023-10-21T15:13:10.912648Z,1697901190912
-1.7229806184768677,-4.055629253387451,0.35199248790740967,2023-10-21T15:13:10.922143Z,1697901190922
-1.6784162521362305,-3.7239902019500732,0.3720797300338745,2023-10-21T15:13:10.935788Z,1697901190935
-1.6319893598556519,-3.401662826538086,0.39921748638153076,2023-10-21T15:13:10.942386Z,1697901190942
-1.5891543626785278,-3.1046109199523926,0.43380481004714966,2023-10-21T15:13:10.953345Z,1697901190953
-1.5533697605133057,-2.8382885456085205,0.4758417010307312,2023-10-21T15:13:10.962640Z,1697901190962
-1.525034785270691,-2.5995030403137207,0.5247960686683655,2023-10-21T15:13:10.973694Z,1697901190973
-1.5024199485778809,-2.381869077682495,0.5797367095947266,2023-10-21T15:13:10.985505Z,1697901190985
-1.482731819152832,-2.17966628074646,0.6384021043777466,2023-10-21T15:13:10.993677Z,1697901190993
-1.4613142013549805,-1.989569067955017,0.6979987025260925,2023-10-21T15:13:11.003184Z,1697901191003
-1.432846188545227,-1.8111783266067505,0.755067765712738,2023-10-21T15:13:11.014036Z,1697901191014
-1.3938689231872559,-1.6498150825500488,0.8046873211860657,2023-10-21T15:13:11.023486Z,1697901191023
-1.343185305595398,-1.5139933824539185,0.8415361046791077,2023-10-21T15:13:11.035776Z,1697901191035
-1.2784005403518677,-1.4089012145996094,0.8593618869781494,2023-10-21T15:13:11.043673Z,1697901191043
-1.1965882778167725,-1.3332080841064453,0.8529765009880066,2023-10-21T15:13:11.054738Z,1697901191054
-1.0976152420043945,-1.2791987657546997,0.8190543055534363,2023-10-21T15:13:11.063834Z,1697901191063
-0.9857386350631714,-1.2384921312332153,0.7567971348762512,2023-10-21T15:13:11.075031Z,1697901191074
-0.8668114542961121,-1.2031066417694092,0.6705949306488037,2023-10-21T15:13:11.085306Z,1697901191085
-0.7462879419326782,-1.166922926902771,0.5681632161140442,2023-10-21T15:13:11.095012Z,1697901191094
-0.6298882961273193,-1.1291429996490479,0.46027740836143494,2023-10-21T15:13:11.104485Z,1697901191104
-0.522800624370575,-1.0946886539459229,0.3573136031627655,2023-10-21T15:13:11.119285Z,1697901191119
-0.4292818605899811,-1.0719408988952637,0.2661893367767334,2023-10-21T15:13:11.124778Z,1697901191124
-0.3522585332393646,-1.0692802667617798,0.19036328792572021,2023-10-21T15:13:11.135694Z,1697901191135
-0.2937261462211609,-1.0909638404846191,0.12917032837867737,2023-10-21T15:13:11.144940Z,1697901191144
-0.25448286533355713,-1.1352622509002686,0.07981689274311066,2023-10-21T15:13:11.156019Z,1697901191155
-0.2305377870798111,-1.189936876296997,0.03831210732460022,2023-10-21T15:13:11.168405Z,1697901191168
-0.21484047174453735,-1.237427830696106,0.0023945067077875137,2023-10-21T15:13:11.176044Z,1697901191176
-0.20127159357070923,-1.2608407735824585,-0.026871686801314354,2023-10-21T15:13:11.185540Z,1697901191185
-0.18677152693271637,-1.248602271080017,-0.04616076871752739,2023-10-21T15:13:11.196326Z,1697901191196
-0.1717393398284912,-1.1953909397125244,-0.050018586218357086,2023-10-21T15:13:11.205844Z,1697901191205
-0.15777139365673065,-1.1009409427642822,-0.03272492438554764,2023-10-21T15:13:11.218971Z,1697901191218
-0.14939060807228088,-0.974564254283905,0.010908308438956738,2023-10-21T15:13:11.226090Z,1697901191226
-0.15338145196437836,-0.8330222964286804,0.08487196266651154,2023-10-21T15:13:11.237211Z,1697901191237
-0.1761292666196823,-0.6948060393333435,0.1899642050266266,2023-10-21T15:13:11.246292Z,1697901191246
-0.21856525540351868,-0.5705577731132507,0.32246023416519165,2023-10-21T15:13:11.257369Z,1697901191257
-0.274304062128067,-0.45974528789520264,0.4726490378379822,2023-10-21T15:13:11.268470Z,1697901191268
-0.33350157737731934,-0.3579787611961365,0.6288240551948547,2023-10-21T15:13:11.277448Z,1697901191277
-0.3869788944721222,-0.26259756088256836,0.7794119715690613,2023-10-21T15:13:11.286863Z,1697901191286
-0.4282176196575165,-0.1734687089920044,0.9143024682998657,2023-10-21T15:13:11.297864Z,1697901191297
-0.45202967524528503,-0.09232153743505478,1.0243167877197266,2023-10-21T15:13:11.307182Z,1697901191307
-0.455488383769989,-0.022082673385739326,1.1006749868392944,2023-10-21T15:13:11.318742Z,1697901191318
-0.43832775950431824,0.03232584148645401,1.137656807899475,2023-10-21T15:13:11.327357Z,1697901191327
-0.40094685554504395,0.06664710491895676,1.1333998441696167,2023-10-21T15:13:11.338403Z,1697901191338
-0.3434786796569824,0.08247745782136917,1.0897666215896606,2023-10-21T15:13:11.347493Z,1697901191347
-0.2869417369365692,0.08008294552564621,0.9808165431022644,2023-10-21T15:13:11.358750Z,1697901191358
-0.19089539349079132,0.08314259350299835,0.8790500164031982,2023-10-21T15:13:11.368314Z,1697901191368
-0.06425260007381439,0.09977111220359802,0.7907193303108215,2023-10-21T15:13:11.378732Z,1697901191378
0.043500207364559174,0.12172076106071472,0.6647416949272156,2023-10-21T15:13:11.388264Z,1697901191388
0.15125301480293274,0.1585695594549179,0.5460805892944336,2023-10-21T15:13:11.402253Z,1697901191402
0.252088338136673,0.20606060326099396,0.4428507089614868,2023-10-21T15:13:11.408457Z,1697901191408
0.3397538959980011,0.2567443251609802,0.36024022102355957,2023-10-21T15:13:11.419459Z,1697901191419
0.411190003156662,0.30330419540405273,0.3001115024089813,2023-10-21T15:13:11.428633Z,1697901191428
0.4653324782848358,0.3402860164642334,0.2619324326515198,2023-10-21T15:13:11.439672Z,1697901191439
0.5033785104751587,0.36529529094696045,0.24237729609012604,2023-10-21T15:13:11.451461Z,1697901191451
0.5262593626976013,0.377533882856369,0.237056165933609,2023-10-21T15:13:11.459761Z,1697901191459
0.5361034274101257,0.3776669204235077,0.2403818666934967,2023-10-21T15:13:11.469216Z,1697901191469
0.4988555610179901,0.34773558378219604,0.22574877738952637,2023-10-21T15:13:11.479970Z,1697901191479
0.49978676438331604,0.3365612328052521,0.23093686997890472,2023-10-21T15:13:11.489525Z,1697901191489
0.5350392460823059,0.3413502275943756,0.2480975091457367,2023-10-21T15:13:11.501757Z,1697901191501
0.5258603096008301,0.3144785463809967,0.2293405383825302,2023-10-21T15:13:11.509704Z,1697901191509
0.5201400518417358,0.27842792868614197,0.19448715448379517,2023-10-21T15:13:11.520723Z,1697901191520
0.5224015712738037,0.2305377870798111,0.13967956602573395,2023-10-21T15:13:11.529933Z,1697901191529
0.537300705909729,0.16774849593639374,0.061325978487730026,2023-10-21T15:13:11.541050Z,1697901191541
0.571355938911438,0.09418392926454544,-0.04682590812444687,2023-10-21T15:13:11.551326Z,1697901191551
0.6362736225128174,0.026472602039575577,-0.19608350098133087,2023-10-21T15:13:11.561075Z,1697901191561
0.7501457333564758,-0.0031926757656037807,-0.3980202376842499,2023-10-21T15:13:11.570630Z,1697901191570
0.9290686249732971,0.04083964228630066,-0.6552966833114624,2023-10-21T15:13:11.581309Z,1697901191581
1.1738404035568237,0.18012011051177979,-0.9507521986961365,2023-10-21T15:13:11.590870Z,1697901191590
1.4670344591140747,0.41571298241615295,-1.2540563344955444,2023-10-21T15:13:11.602019Z,1697901191601
1.7743295431137085,0.7219437956809998,-1.5290255546569824,2023-10-21T15:13:11.611021Z,1697901191610
2.052624464035034,1.0534499883651733,-1.7430678606033325,2023-10-21T15:13:11.622143Z,1697901191622
2.2580199241638184,1.3465110063552856,-1.8715730905532837,2023-10-21T15:13:11.634952Z,1697901191634
2.357125759124756,1.5351449251174927,-1.901105284690857,2023-10-21T15:13:11.642225Z,1697901191642
2.352602958679199,1.5943423509597778,-1.84416925907135,2023-10-21T15:13:11.651725Z,1697901191651
2.2859556674957275,1.5594890117645264,-1.7392100095748901,2023-10-21T15:13:11.662438Z,1697901191662
2.21771240234375,1.507341980934143,-1.6349159479141235,2023-10-21T15:13:11.671886Z,1697901191671
2.193235158920288,1.5058786869049072,-1.5668056011199951,2023-10-21T15:13:11.685290Z,1697901191685
2.225693941116333,1.5875579118728638,-1.5463192462921143,2023-10-21T15:13:11.692155Z,1697901191692
2.305777072906494,1.7575680017471313,-1.5670716762542725,2023-10-21T15:13:11.703150Z,1697901191703
2.4078094959259033,1.9958213567733765,-1.6096405982971191,2023-10-21T15:13:11.712324Z,1697901191712
2.4978697299957275,2.2624096870422363,-1.6492830514907837,2023-10-21T15:13:11.723509Z,1697901191723
2.5343194007873535,2.4966723918914795,-1.6579298973083496,2023-10-21T15:13:11.735031Z,1697901191734
2.4827044010162354,2.639145612716675,-1.6132323741912842,2023-10-21T15:13:11.743546Z,1697901191743
2.333446741104126,2.6584346294403076,-1.5057456493377686,2023-10-21T15:13:11.752921Z,1697901191752
2.103175163269043,2.5598607063293457,-1.34198796749115,2023-10-21T15:13:11.763715Z,1697901191763
1.825146198272705,2.378676414489746,-1.1411155462265015,2023-10-21T15:13:11.773214Z,1697901191773
1.5331494808197021,2.1557211875915527,-0.9242796301841736,2023-10-21T15:13:11.785060Z,1697901191785
1.2561848163604736,1.9262475967407227,-0.7106363773345947,2023-10-21T15:13:11.793442Z,1697901191793
1.0148717164993286,1.71247136592865,-0.5140208005905151,2023-10-21T15:13:11.804464Z,1697901191804
0.819586455821991,1.523172378540039,-0.3424144685268402,2023-10-21T15:13:11.813624Z,1697901191813
0.6737875938415527,1.357818365097046,-0.19794589281082153,2023-10-21T15:13:11.824747Z,1697901191824
0.5682962536811829,1.1867440938949585,-0.12278498709201813,2023-10-21T15:13:11.834792Z,1697901191834
0.5121583938598633,1.0501242876052856,-0.016096405684947968,2023-10-21T15:13:11.844769Z,1697901191844
0.4949977397918701,0.9410411715507507,0.11879414319992065,2023-10-21T15:13:11.854305Z,1697901191854
0.49433261156082153,0.8155956268310547,0.18743667006492615,2023-10-21T15:13:11.868606Z,1697901191868
0.5114932656288147,0.7090400457382202,0.2414460927248001,2023-10-21T15:13:11.874518Z,1697901191874
0.5387639999389648,0.6269617080688477,0.28068938851356506,2023-10-21T15:13:11.885633Z,1697901191885
0.5717549920082092,0.5749476552009583,0.30490052700042725,2023-10-21T15:13:11.894721Z,1697901191894
0.6095349788665771,0.5579200983047485,0.31421250104904175,2023-10-21T15:13:11.905800Z,1697901191905
0.6502416133880615,0.5760118961334229,0.30929043889045715,2023-10-21T15:13:11.918051Z,1697901191918
0.6889528036117554,0.6231038570404053,0.2926619350910187,2023-10-21T15:13:11.925817Z,1697901191925
0.7183520197868347,0.6868243217468262,0.2699141204357147,2023-10-21T15:13:11.935268Z,1697901191935
0.7301915287971497,0.7534714341163635,0.24796447157859802,2023-10-21T15:13:11.946096Z,1697901191946
0.7171547412872314,0.8104075193405151,0.23346440494060516,2023-10-21T15:13:11.955607Z,1697901191955
0.6769802570343018,0.849118709564209,0.23120293021202087,2023-10-21T15:13:11.968433Z,1697901191968
0.6147230863571167,0.8676096200942993,0.2419782131910324,2023-10-21T15:13:11.975793Z,1697901191975
0.5391631126403809,0.867343544960022,0.26432693004608154,2023-10-21T15:13:11.986858Z,1697901191986
0.4628049433231354,0.852311372756958,0.29226285219192505,2023-10-21T15:13:11.996028Z,1697901191995
0.3994835317134857,0.8281002640724182,0.3176712393760681,2023-10-21T15:13:12.007164Z,1697901192007
0.3626347482204437,0.8021597862243652,0.33070799708366394,2023-10-21T15:13:12.017867Z,1697901192017
0.36183658242225647,0.782737672328949,0.3225932717323303,2023-10-21T15:13:12.027129Z,1697901192027
0.39974960684776306,0.7748889923095703,0.28787291049957275,2023-10-21T15:13:12.036632Z,1697901192036
0.4763738214969635,0.7807422280311584,0.22468455135822296,2023-10-21T15:13:12.047365Z,1697901192047
0.5942367315292358,0.8008294701576233,0.13409237563610077,2023-10-21T15:13:12.056918Z,1697901192056
0.7587925791740417,0.8354167938232422,0.018623940646648407,2023-10-21T15:13:12.068165Z,1697901192068
0.9725688099861145,0.8802472949028015,-0.1169317439198494,2023-10-21T15:13:12.077097Z,1697901192077
1.2293131351470947,0.926008939743042,-0.2639278471469879,2023-10-21T15:13:12.088135Z,1697901192088
1.5153236389160156,0.967380702495575,-0.41198819875717163,2023-10-21T15:13:12.101260Z,1697901192101
1.8113113641738892,1.006890058517456,-0.552731990814209,2023-10-21T15:13:12.108258Z,1697901192108
2.085482358932495,1.043738842010498,-0.6759160161018372,2023-10-21T15:13:12.117855Z,1697901192117
2.291010856628418,1.0575737953186035,-0.7633155584335327,2023-10-21T15:13:12.128414Z,1697901192128
2.3657727241516113,1.000504732131958,-0.7839348912239075,2023-10-21T15:13:12.137959Z,1697901192137
2.2542951107025146,0.8175910115242004,-0.7051822543144226,2023-10-21T15:13:12.151496Z,1697901192151
1.9384862184524536,0.4807637333869934,-0.5132226347923279,2023-10-21T15:13:12.158224Z,1697901192158
1.4468141794204712,0.006252323277294636,-0.22189095616340637,2023-10-21T15:13:12.169129Z,1697901192169
0.8433985114097595,-0.5494062900543213,0.12850520014762878,2023-10-21T15:13:12.178443Z,1697901192178
0.19954222440719604,-1.1147758960723877,0.4896766245365143,2023-10-21T15:13:12.189492Z,1697901192189
-0.4142496585845947,-1.617356300354004,0.8141322731971741,2023-10-21T15:13:12.201258Z,1697901192201
-0.9385136365890503,-1.9992800951004028,1.063826084136963,2023-10-21T15:13:12.209536Z,1697901192209
-1.338130235671997,-2.232877492904663,1.2205332517623901,2023-10-21T15:13:12.218996Z,1697901192218
-1.611103892326355,-2.326263189315796,1.2893089056015015,2023-10-21T15:13:12.229905Z,1697901192229
-1.7902928590774536,-2.3221395015716553,1.2986208200454712,2023-10-21T15:13:12.239308Z,1697901192239
-1.920527458190918,-2.2715888023376465,1.283721685409546,2023-10-21T15:13:12.251641Z,1697901192251
-2.0359959602355957,-2.2106618881225586,1.2705519199371338,2023-10-21T15:13:12.259493Z,1697901192259
-2.147606372833252,-2.1488037109375,1.2685564756393433,2023-10-21T15:13:12.270549Z,1697901192270
-2.2483088970184326,-2.075106143951416,1.272813320159912,2023-10-21T15:13:12.279672Z,1697901192279
-2.3261301517486572,-1.9748029708862305,1.2726802825927734,2023-10-21T15:13:12.290812Z,1697901192290
-2.3681671619415283,-1.8367197513580322,1.2573820352554321,2023-10-21T15:13:12.300794Z,1697901192300
-2.3680341243743896,-1.6616545915603638,1.2211984395980835,2023-10-21T15:13:12.310853Z,1697901192310
-2.330254077911377,-1.464107871055603,1.1671890020370483,2023-10-21T15:13:12.320330Z,1697901192320
-2.2662675380706787,-1.265097737312317,1.1037346124649048,2023-10-21T15:13:12.335250Z,1697901192335
-2.1879141330718994,-1.083248257637024,1.0412113666534424,2023-10-21T15:13:12.340617Z,1697901192340
-2.103973150253296,-0.9298667907714844,0.9869358539581299,2023-10-21T15:13:12.351491Z,1697901192351
-2.01910138130188,-0.8069487810134888,0.9433026313781738,2023-10-21T15:13:12.360815Z,1697901192360
-1.9350274801254272,-0.7093061208724976,0.9075180292129517,2023-10-21T15:13:12.371885Z,1697901192371
-1.849623441696167,-0.6245671510696411,0.8753252625465393,2023-10-21T15:13:12.384449Z,1697901192384
-1.759297251701355,-0.5388970375061035,0.8427333235740662,2023-10-21T15:13:12.391935Z,1697901192391
-1.6624528169631958,-0.4440479576587677,0.8076139092445374,2023-10-21T15:13:12.401353Z,1697901192401
-1.5597550868988037,-0.33935481309890747,0.7699669599533081,2023-10-21T15:13:12.412166Z,1697901192412
-1.4538646936416626,-0.23200109601020813,0.7320539355278015,2023-10-21T15:13:12.421659Z,1697901192421
-1.3486393690109253,-0.1322299838066101,0.696801483631134,2023-10-21T15:13:12.434821Z,1697901192434
-1.2479370832443237,-0.04855527728796005,0.6666040420532227,2023-10-21T15:13:12.441859Z,1697901192441
-1.1534870862960815,0.01636246219277382,0.6422598958015442,2023-10-21T15:13:12.452907Z,1697901192452
-1.0648903846740723,0.0663810446858406,0.6237689852714539,2023-10-21T15:13:12.462110Z,1697901192462
-0.981880784034729,0.10668858140707016,0.6105992197990417,2023-10-21T15:13:12.473233Z,1697901192473
-0.9056556820869446,0.14127589762210846,0.6026175022125244,2023-10-21T15:13:12.484355Z,1697901192484
-0.8375452160835266,0.17094117403030396,0.5986266732215881,2023-10-21T15:13:12.493271Z,1697901192493
-0.7767513990402222,0.19608350098133087,0.596365213394165,2023-10-21T15:13:12.502692Z,1697901192502
-0.7203474640846252,0.21776708960533142,0.5937046408653259,2023-10-21T15:13:12.513448Z,1697901192513
-0.6663380265235901,0.2365240603685379,0.5879844427108765,2023-10-21T15:13:12.523053Z,1697901192523
-0.6135258078575134,0.25102412700653076,0.5770761370658875,2023-10-21T15:13:12.534588Z,1697901192534
-0.5615118145942688,0.259537935256958,0.5581861138343811,2023-10-21T15:13:12.543176Z,1697901192543
-0.5076354146003723,0.2617993950843811,0.5275896787643433,2023-10-21T15:13:12.554237Z,1697901192554
-0.44484615325927734,0.24224425852298737,0.47185084223747253,2023-10-21T15:13:12.563422Z,1697901192563
-0.3667586147785187,0.23133595287799835,0.39881840348243713,2023-10-21T15:13:12.574538Z,1697901192574
-0.26273059844970703,0.22787722945213318,0.29878121614456177,2023-10-21T15:13:12.583946Z,1697901192583
-0.1185280829668045,0.201936736702919,0.1492575854063034,2023-10-21T15:13:12.594577Z,1697901192594
0.06957372277975082,0.16708335280418396,-0.03857816383242607,2023-10-21T15:13:12.604044Z,1697901192604
0.2946573495864868,0.11639963090419769,-0.252088338136673,2023-10-21T15:13:12.617926Z,1697901192617
0.5367686152458191,0.049752529710531235,-0.47118571400642395,2023-10-21T15:13:12.624240Z,1697901192624
0.7722284197807312,-0.020619364455342293,-0.6767141819000244,2023-10-21T15:13:12.635308Z,1697901192635
0.9800183773040771,-0.07728935778141022,-0.8535086512565613,2023-10-21T15:13:12.644497Z,1697901192644
1.1420466899871826,-0.11214273422956467,-0.9894633889198303,2023-10-21T15:13:12.655634Z,1697901192655
1.2432811260223389,-0.1283721625804901,-1.0748674869537354,2023-10-21T15:13:12.667470Z,1697901192667
1.274276614189148,-0.1327620893716812,-1.1063951253890991,2023-10-21T15:13:12.675675Z,1697901192675
1.2383590936660767,-0.1301015317440033,-1.0902987718582153,2023-10-21T15:13:12.685029Z,1697901192684
1.149097204208374,-0.12464737892150879,-1.0374865531921387,2023-10-21T15:13:12.695882Z,1697901192695
1.0211241245269775,-0.12358315289020538,-0.9574036002159119,2023-10-21T15:13:12.705345Z,1697901192705
0.8798481822013855,-0.11626660823822021,-0.8444626927375793,2023-10-21T15:13:12.717849Z,1697901192717
0.7183520197868347,-0.14127589762210846,-0.7324529886245728,2023-10-21T15:13:12.725610Z,1697901192725
0.5583191514015198,-0.18650546669960022,-0.633613109588623,2023-10-21T15:13:12.736601Z,1697901192736
0.4545572102069855,-0.18317976593971252,-0.5378327965736389,2023-10-21T15:13:12.745864Z,1697901192745
0.37633663415908813,-0.18863391876220703,-0.470919668674469,2023-10-21T15:13:12.756939Z,1697901192756
0.3205978572368622,-0.20645968616008759,-0.4312772750854492,2023-10-21T15:13:12.767356Z,1697901192767
0.3052996098995209,-0.20765694975852966,-0.4083964228630066,2023-10-21T15:13:12.776903Z,1697901192776
0.30862531065940857,-0.22322124242782593,-0.3956257104873657,2023-10-21T15:13:12.786398Z,1697901192786
0.3215290307998657,-0.2579415738582611,-0.3853825628757477,2023-10-21T15:13:12.801289Z,1697901192801
0.3346988260746002,-0.3132812976837158,-0.3714146018028259,2023-10-21T15:13:12.806644Z,1697901192806
0.33948785066604614,-0.38830918073654175,-0.34933191537857056,2023-10-21T15:13:12.817879Z,1697901192817
0.3304419219493866,-0.47836923599243164,-0.3172721564769745,2023-10-21T15:13:12.826868Z,1697901192826
0.30543264746665955,-0.5760118961334229,-0.27629947662353516,2023-10-21T15:13:12.837900Z,1697901192837
0.26432693004608154,-0.6739206314086914,-0.22840933501720428,2023-10-21T15:13:12.850719Z,1697901192850
0.207523912191391,-0.7679715156555176,-0.17479899525642395,2023-10-21T15:13:12.857987Z,1697901192857
0.13435843586921692,-0.8578985333442688,-0.11506935209035873,2023-10-21T15:13:12.867419Z,1697901192867
0.0438992902636528,-0.9442338347434998,-0.047890134155750275,2023-10-21T15:13:12.878356Z,1697901192878
-0.0614590048789978,-1.024183750152588,0.02633957378566265,2023-10-21T15:13:12.887734Z,1697901192887
-0.17692744731903076,-1.0914959907531738,0.10469315201044083,2023-10-21T15:13:12.900984Z,1697901192900
-0.29665279388427734,-1.1407164335250854,0.18317976593971252,2023-10-21T15:13:12.907976Z,1697901192907
-0.41571298241615295,-1.1679872274398804,0.25873976945877075,2023-10-21T15:13:12.919075Z,1697901192919
-0.5287868976593018,-1.1721110343933105,0.32791438698768616,2023-10-21T15:13:12.928158Z,1697901192928
-0.6310855746269226,-1.1530879735946655,0.3879100978374481,2023-10-21T15:13:12.939350Z,1697901192939
-0.719150185585022,-1.1131795644760132,0.4367314279079437,2023-10-21T15:13:12.950659Z,1697901192950
-0.7921826243400574,-1.0562435388565063,0.47451141476631165,2023-10-21T15:13:12.959368Z,1697901192959
-0.8515132069587708,-0.9869358539581299,0.5037776231765747,2023-10-21T15:13:12.968758Z,1697901192968
-0.9002014994621277,-0.9099125862121582,0.5286538600921631,2023-10-21T15:13:12.979550Z,1697901192979
-0.9422383904457092,-0.8299626111984253,0.5535301566123962,2023-10-21T15:13:12.989042Z,1697901192988
-0.9825459122657776,-0.7517420649528503,0.5813330411911011,2023-10-21T15:13:13.000808Z,1697901193000
-1.0220552682876587,-0.677778422832489,0.6128606796264648,2023-10-21T15:13:13.009228Z,1697901193009
-1.0583720207214355,-0.6084707379341125,0.6466498374938965,2023-10-21T15:13:13.020267Z,1697901193020
-1.0871061086654663,-0.5435530543327332,0.6800399422645569,2023-10-21T15:13:13.029429Z,1697901193029
-1.1057300567626953,-0.48502063751220703,0.7091730833053589,2023-10-21T15:13:13.040592Z,1697901193040
-1.1130465269088745,-0.4356671869754791,0.730058491230011,2023-10-21T15:13:13.050512Z,1697901193050
-1.1077253818511963,-0.3973550796508789,0.7395035028457642,2023-10-21T15:13:13.060598Z,1697901193060
-1.089234471321106,-0.3722127676010132,0.737375020980835,2023-10-21T15:13:13.070083Z,1697901193070
-1.0601013898849487,-0.3648962080478668,0.7258015871047974,2023-10-21T15:13:13.084216Z,1697901193084
-1.0252479314804077,-0.3819238245487213,0.7098382115364075,2023-10-21T15:13:13.090352Z,1697901193090
-0.9914588332176208,-0.4312772750854492,0.6953381299972534,2023-10-21T15:13:13.101352Z,1697901193101
-0.9652522802352905,-0.5205391645431519,0.6881546378135681,2023-10-21T15:13:13.110549Z,1697901193110
-0.9520824551582336,-0.6548975706100464,0.6922785043716431,2023-10-21T15:13:13.121628Z,1697901193121
-0.9535458087921143,-0.8307608366012573,0.7055813074111938,2023-10-21T15:13:13.133878Z,1697901193133
-0.9661834836006165,-1.0353580713272095,0.7212786674499512,2023-10-21T15:13:13.141637Z,1697901193141
-0.9820138216018677,-1.246872901916504,0.7288612723350525,2023-10-21T15:13:13.151149Z,1697901193151
-0.9913257956504822,-1.441493034362793,0.7184850573539734,2023-10-21T15:13:13.161873Z,1697901193161
-0.9872019290924072,-1.598732352256775,0.6834986209869385,2023-10-21T15:13:13.171428Z,1697901193171
-0.9667155742645264,-1.7056869268417358,0.6228377819061279,2023-10-21T15:13:13.184125Z,1697901193184
-0.9317291975021362,-1.7575680017471313,0.54182368516922,2023-10-21T15:13:13.191570Z,1697901193191
-0.886366605758667,-1.7547743320465088,0.4500342309474945,2023-10-21T15:13:13.202626Z,1697901193202
-0.8354167938232422,-1.7012970447540283,0.3611714243888855,2023-10-21T15:13:13.211784Z,1697901193211
-0.7836688160896301,-1.603255271911621,0.2897353172302246,2023-10-21T15:13:13.223056Z,1697901193223
-0.7353796362876892,-1.468763828277588,0.24690024554729462,2023-10-21T15:13:13.233835Z,1697901193233
-0.6954711675643921,-1.307267665863037,0.2403818666934967,2023-10-21T15:13:13.243006Z,1697901193242
-0.6682004332542419,-1.1291429996490479,0.27244165539741516,2023-10-21T15:13:13.252513Z,1697901193252
-0.6544985175132751,-0.9434356689453125,0.34161630272865295,2023-10-21T15:13:13.263250Z,1697901193263
-0.6506406664848328,-0.7557329535484314,0.4389928877353668,2023-10-21T15:13:13.272747Z,1697901193272
-0.6503746509552002,-0.5685623288154602,0.5492732524871826,2023-10-21T15:13:13.284014Z,1697901193283
-0.6471819877624512,-0.38218986988067627,0.6535673141479492,2023-10-21T15:13:13.292930Z,1697901193292
-0.6350764036178589,-0.19555138051509857,0.7353796362876892,2023-10-21T15:13:13.303985Z,1697901193303
-0.607805609703064,-0.0063853515312075615,0.7826046347618103,2023-10-21T15:13:13.317085Z,1697901193317
-0.5611127614974976,0.18730363249778748,0.790054202079773,2023-10-21T15:13:13.324044Z,1697901193324
-0.49646106362342834,0.3841853141784668,0.7610540390014648,2023-10-21T15:13:13.333463Z,1697901193333
-0.4203689694404602,0.5774751901626587,0.7062464356422424,2023-10-21T15:13:13.344304Z,1697901193344
-0.3429465889930725,0.752274215221405,0.6399984359741211,2023-10-21T15:13:13.353795Z,1697901193353
-0.2744370698928833,0.8926188945770264,0.5746816396713257,2023-10-21T15:13:13.367088Z,1697901193367
-0.22135885059833527,0.9862707257270813,0.5181446671485901,2023-10-21T15:13:13.374005Z,1697901193373
-0.18504215776920319,1.0299040079116821,0.47291508316993713,2023-10-21T15:13:13.384961Z,1697901193384
-0.16202828288078308,1.028307557106018,0.4373965561389923,2023-10-21T15:13:13.394239Z,1697901193394
-0.14673005044460297,0.9926560521125793,0.40852946043014526,2023-10-21T15:13:13.405283Z,1697901193405
-0.13209696114063263,0.9390457272529602,0.38165777921676636,2023-10-21T15:13:13.416715Z,1697901193416
-0.11294090002775192,0.8831738829612732,0.35159340500831604,2023-10-21T15:13:13.425369Z,1697901193425
-0.08606921136379242,0.8375452160835266,0.31487762928009033,2023-10-21T15:13:13.434839Z,1697901193434
-0.05055069923400879,0.8097423911094666,0.27151045203208923,2023-10-21T15:13:13.445622Z,1697901193445
-0.006784435827285051,0.8010955452919006,0.22481757402420044,2023-10-21T15:13:13.455116Z,1697901193455
0.04230295121669769,0.8072148561477661,0.17865680158138275,2023-10-21T15:13:13.467086Z,1697901193467
0.09298668056726456,0.8198524713516235,0.13542266190052032,2023-10-21T15:13:13.475331Z,1697901193475
0.1427392065525055,0.8310268521308899,0.09684449434280396,2023-10-21T15:13:13.486344Z,1697901193486
0.19102843105793,0.8350176811218262,0.06372048705816269,2023-10-21T15:13:13.495449Z,1697901193495
0.2387855350971222,0.8286323547363281,0.03698182478547096,2023-10-21T15:13:13.506650Z,1697901193506
0.28627657890319824,0.8105405569076538,0.015830349177122116,2023-10-21T15:13:13.516485Z,1697901193516
0.33336853981018066,0.781806468963623,-0.0014633096288889647,2023-10-21T15:13:13.526749Z,1697901193526
0.38019445538520813,0.7448246479034424,-0.017692744731903076,2023-10-21T15:13:13.536185Z,1697901193536
0.4276854991912842,0.7025216817855835,-0.0351194329559803,2023-10-21T15:13:13.550857Z,1697901193550
0.4758417010307312,0.6564939022064209,-0.053876399993896484,2023-10-21T15:13:13.556442Z,1697901193556
0.5230666995048523,0.6062092781066895,-0.07329851388931274,2023-10-21T15:13:13.567358Z,1697901193567
0.5680302381515503,0.5504704713821411,-0.09232153743505478,2023-10-21T15:13:13.576591Z,1697901193576
0.6107322573661804,0.48768121004104614,-0.11028033494949341,2023-10-21T15:13:13.587704Z,1697901193587
0.6517049074172974,0.41624507308006287,-0.1267758309841156,2023-10-21T15:13:13.600258Z,1697901193600
0.6901500821113586,0.3346988260746002,-0.14087681472301483,2023-10-21T15:13:13.607764Z,1697901193607
0.7250034213066101,0.2447717934846878,-0.15271632373332977,2023-10-21T15:13:13.617161Z,1697901193617
0.7575953006744385,0.15351448953151703,-0.16588610410690308,2023-10-21T15:13:13.627950Z,1697901193627
0.7917835712432861,0.07343153655529022,-0.18623940646648407,2023-10-21T15:13:13.637498Z,1697901193637
0.8335543870925903,0.017027603462338448,-0.21976250410079956,2023-10-21T15:13:13.650267Z,1697901193650
0.8886280655860901,-0.0038578163366764784,-0.2699141204357147,2023-10-21T15:13:13.657718Z,1697901193657
0.9601972103118896,0.019688166677951813,-0.33722636103630066,2023-10-21T15:13:13.668629Z,1697901193668
1.048793911933899,0.09232153743505478,-0.4183735251426697,2023-10-21T15:13:13.677877Z,1697901193677
1.1504274606704712,0.2107165902853012,-0.5076354146003723,2023-10-21T15:13:13.688975Z,1697901193688
1.2552536725997925,0.363432914018631,-0.5953009724617004,2023-10-21T15:13:13.699709Z,1697901193699
1.3505017757415771,0.5346401333808899,-0.6701958179473877,2023-10-21T15:13:13.709110Z,1697901193709
1.4263278245925903,0.7067785859107971,-0.7226089239120483,2023-10-21T15:13:13.718583Z,1697901193718
1.4776767492294312,0.863618791103363,-0.7472191452980042,2023-10-21T15:13:13.729322Z,1697901193729
1.5050804615020752,0.9925230145454407,-0.7442924976348877,2023-10-21T15:13:13.738800Z,1697901193738
1.5126631259918213,1.0869730710983276,-0.7171547412872314,2023-10-21T15:13:13.749993Z,1697901193749
1.5070759057998657,1.1452393531799316,-0.6731224656105042,2023-10-21T15:13:13.758962Z,1697901193758
1.4961676597595215,1.1687853336334229,-0.6208423972129822,2023-10-21T15:13:13.769985Z,1697901193769
1.4875208139419556,1.160936713218689,-0.5684292912483215,2023-10-21T15:13:13.779143Z,1697901193779
1.487387776374817,1.1267484426498413,-0.5220024585723877,2023-10-21T15:13:13.790406Z,1697901193790
1.4988281726837158,1.0691472291946411,-0.4840894341468811,2023-10-21T15:13:13.799780Z,1697901193799
1.5226402282714844,0.989197313785553,-0.45575445890426636,2023-10-21T15:13:13.810427Z,1697901193810
1.559622049331665,0.8892931938171387,-0.4361993074417114,2023-10-21T15:13:13.819879Z,1697901193819
1.6085764169692993,0.7739577889442444,-0.4243597984313965,2023-10-21T15:13:13.833515Z,1697901193833
1.6663106679916382,0.6503746509552002,-0.4194377660751343,2023-10-21T15:13:13.840080Z,1697901193840
1.7269715070724487,0.5261263251304626,-0.4205019772052765,2023-10-21T15:13:13.851069Z,1697901193851
1.7857699394226074,0.4106579124927521,-0.42622220516204834,2023-10-21T15:13:13.860292Z,1697901193860
1.840178370475769,0.3127491772174835,-0.43593326210975647,2023-10-21T15:13:13.871432Z,1697901193871
1.8887337446212769,0.23905159533023834,-0.4496351480484009,2023-10-21T15:13:13.883098Z,1697901193883
1.9303715229034424,0.1920926570892334,-0.4675939679145813,2023-10-21T15:13:13.891455Z,1697901193891
1.9624313116073608,0.16894575953483582,-0.4883463382720947,2023-10-21T15:13:13.900880Z,1697901193900
1.9790598154067993,0.16282646358013153,-0.5071033239364624,2023-10-21T15:13:13.911641Z,1697901193911
1.9726744890213013,0.16389068961143494,-0.5177455544471741,2023-10-21T15:13:13.921160Z,1697901193921
1.937954068183899,0.16428977251052856,-0.5146859288215637,2023-10-21T15:13:13.933206Z,1697901193933
1.8713070154190063,0.16043195128440857,-0.49366748332977295,2023-10-21T15:13:13.941345Z,1697901193941
1.7690083980560303,0.15138603746891022,-0.45136451721191406,2023-10-21T15:13:13.952325Z,1697901193952
1.6272003650665283,0.13795019686222076,-0.3864467740058899,2023-10-21T15:13:13.961559Z,1697901193961
1.4321811199188232,0.12105561792850494,-0.3228593170642853,2023-10-21T15:13:13.972705Z,1697901193972
1.2197351455688477,0.10948216915130615,-0.2179001122713089,2023-10-21T15:13:13.982922Z,1697901193982
0.9993074536323547,0.11081244796514511,-0.08274351060390472,2023-10-21T15:13:13.992678Z,1697901193992
0.7565311193466187,0.12544554471969604,0.02700471505522728,2023-10-21T15:13:14.002190Z,1697901194002
0.5172134637832642,0.15444567799568176,0.13316118717193604,2023-10-21T15:13:14.016470Z,1697901194016
0.28627657890319824,0.19076237082481384,0.2359919399023056,2023-10-21T15:13:14.022503Z,1697901194022
0.06664710491895676,0.22548271715641022,0.33789151906967163,2023-10-21T15:13:14.033362Z,1697901194033
-0.14114287495613098,0.2486296147108078,0.44271770119667053,2023-10-21T15:13:14.042658Z,1697901194042
-0.33948785066604614,0.25049200654029846,0.5536631941795349,2023-10-21T15:13:14.053746Z,1697901194053
-0.5286538600921631,0.22681300342082977,0.6703288555145264,2023-10-21T15:13:14.066320Z,1697901194066
-0.7026547193527222,0.18131737411022186,0.7877927422523499,2023-10-21T15:13:14.073759Z,1697901194073
-0.852311372756958,0.12198681384325027,0.897274911403656,2023-10-21T15:13:14.083199Z,1697901194083
-0.9719036817550659,0.05627090856432915,0.9903945922851562,2023-10-21T15:13:14.094068Z,1697901194094
-1.0577068328857422,-0.009578026831150055,1.0598353147506714,2023-10-21T15:13:14.103567Z,1697901194103
-1.1063951253890991,-0.0691746398806572,1.0989456176757812,2023-10-21T15:13:14.116825Z,1697901194116
-1.1151750087738037,-0.11866111308336258,1.1038676500320435,2023-10-21T15:13:14.123805Z,1697901194123
-1.0867069959640503,-0.15830349922180176,1.0748674869537354,2023-10-21T15:13:14.134789Z,1697901194134
-1.0304360389709473,-0.19462019205093384,1.0177984237670898,2023-10-21T15:13:14.144006Z,1697901194143
-0.9574036002159119,-0.23639102280139923,0.9406420588493347,2023-10-21T15:13:14.155063Z,1697901194155
-0.8774536848068237,-0.29119861125946045,0.8527104258537292,2023-10-21T15:13:14.166057Z,1697901194166
-0.7984349727630615,-0.363166868686676,0.7619852423667908,2023-10-21T15:13:14.175157Z,1697901194175
-0.7276639938354492,-0.4528278410434723,0.6755169630050659,2023-10-21T15:13:14.184532Z,1697901194184
-0.6708609461784363,-0.5571218729019165,0.5982276201248169,2023-10-21T15:13:14.195402Z,1697901194195
-0.6282919645309448,-0.6678013205528259,0.5313144326210022,2023-10-21T15:13:14.204841Z,1697901194204
-0.5950348973274231,-0.7728935480117798,0.47185084223747253,2023-10-21T15:13:14.216522Z,1697901194216
-0.5663008689880371,-0.8613572716712952,0.4153138995170593,2023-10-21T15:13:14.225054Z,1697901194225
-0.5403603315353394,-0.9270731806755066,0.3574466407299042,2023-10-21T15:13:14.236024Z,1697901194235
-0.515084981918335,-0.9667155742645264,0.29505643248558044,2023-10-21T15:13:14.245343Z,1697901194245
-0.485685795545578,-0.9766926765441895,0.2249506115913391,2023-10-21T15:13:14.256168Z,1697901194256
-0.4500342309474945,-0.9564723968505859,0.1460649073123932,2023-10-21T15:13:14.265549Z,1697901194265
-0.41252028942108154,-0.9105777144432068,0.06252323091030121,2023-10-21T15:13:14.276457Z,1697901194276
-0.3654283285140991,-0.8175910115242004,0.019023025408387184,2023-10-21T15:13:14.285886Z,1697901194285
-0.3478686213493347,-0.7466869950294495,-0.05081675574183464,2023-10-21T15:13:14.299799Z,1697901194299
-0.3632998764514923,-0.6985308527946472,-0.13249604403972626,2023-10-21T15:13:14.306090Z,1697901194306
-0.3829880356788635,-0.6160533428192139,-0.1453997641801834,2023-10-21T15:13:14.316980Z,1697901194316
-0.4232955873012543,-0.5361034274101257,-0.13089969754219055,2023-10-21T15:13:14.326381Z,1697901194326
-0.4798325300216675,-0.4586810767650604,-0.09232153743505478,2023-10-21T15:13:14.337324Z,1697901194337
-0.5460805892944336,-0.38165777921676636,-0.03631668537855148,2023-10-21T15:13:14.349229Z,1697901194349
-0.61592036485672,-0.3039693236351013,0.02886710874736309,2023-10-21T15:13:14.357467Z,1697901194357
-0.6842967867851257,-0.2249506115913391,0.09538118541240692,2023-10-21T15:13:14.366947Z,1697901194366
-0.7474851608276367,-0.14526674151420593,0.15817047655582428,2023-10-21T15:13:14.377813Z,1697901194377
-0.8032239675521851,-0.06957372277975082,0.2157716602087021,2023-10-21T15:13:14.387244Z,1697901194387
-0.8511140942573547,-0.005454154219478369,0.2689829170703888,2023-10-21T15:13:14.399588Z,1697901194399
-0.8934170603752136,0.03631668537855148,0.3200657367706299,2023-10-21T15:13:14.407410Z,1697901194407
-0.9315961599349976,0.04642682522535324,0.3688870668411255,2023-10-21T15:13:14.418426Z,1697901194418
-0.9643210768699646,0.02035330794751644,0.4105248749256134,2023-10-21T15:13:14.427640Z,1697901194427
-0.9878670573234558,-0.038711193948984146,0.4369974732398987,2023-10-21T15:13:14.438722Z,1697901194438
-0.997312068939209,-0.1174638569355011,0.43992409110069275,2023-10-21T15:13:14.449298Z,1697901194449
-0.9894633889198303,-0.19714772701263428,0.41571298241615295,2023-10-21T15:13:14.458870Z,1697901194458
-0.9613944292068481,-0.25834065675735474,0.36529529094696045,2023-10-21T15:13:14.468256Z,1697901194468
-0.8729307055473328,-0.2614003121852875,0.30929043889045715,2023-10-21T15:13:14.482646Z,1697901194482
-0.8082790374755859,-0.25501495599746704,0.21550559997558594,2023-10-21T15:13:14.488575Z,1697901194488
-0.7681045532226562,-0.23559285700321198,0.09578026831150055,2023-10-21T15:13:14.499583Z,1697901194499
-0.6825674772262573,-0.15830349922180176,0.0,2023-10-21T15:13:14.508830Z,1697901194508
-0.6083377599716187,-0.07010583579540253,-0.08088111877441406,2023-10-21T15:13:14.519697Z,1697901194519
-0.5535301566123962,0.012903730385005474,-0.13901442289352417,2023-10-21T15:13:14.532445Z,1697901194532
-0.5201400518417358,0.08061505854129791,-0.1717393398284912,2023-10-21T15:13:14.539888Z,1697901194539
-0.5048418641090393,0.13036759197711945,-0.1822485625743866,2023-10-21T15:13:14.549313Z,1697901194549
-0.5017821788787842,0.16562004387378693,-0.17639532685279846,2023-10-21T15:13:14.560147Z,1697901194560
-0.5037776231765747,0.19302384555339813,-0.16202828288078308,2023-10-21T15:13:14.569632Z,1697901194569
-0.5039106607437134,0.21976250410079956,-0.14673005044460297,2023-10-21T15:13:14.582749Z,1697901194582
-0.4967271089553833,0.2512901723384857,-0.13848230242729187,2023-10-21T15:13:14.589820Z,1697901194589
-0.4775710701942444,0.29106560349464417,-0.1438034325838089,2023-10-21T15:13:14.600824Z,1697901194600
-0.4439149498939514,0.340685099363327,-0.16535399854183197,2023-10-21T15:13:14.610059Z,1697901194610
-0.3969559967517853,0.39762115478515625,-0.20153765380382538,2023-10-21T15:13:14.621161Z,1697901194621
-0.34161630272865295,0.455488383769989,-0.24623510241508484,2023-10-21T15:13:14.632869Z,1697901194632
-0.28401511907577515,0.5069702863693237,-0.2919968068599701,2023-10-21T15:13:14.641235Z,1697901194641
-0.22960658371448517,0.5458145141601562,-0.3316391706466675,2023-10-21T15:13:14.650671Z,1697901194650
-0.18291370570659637,0.5673650503158569,-0.3583778440952301,2023-10-21T15:13:14.661454Z,1697901194661
-0.1476612538099289,0.5684292912483215,-0.3678228259086609,2023-10-21T15:13:14.670958Z,1697901194670
-0.1257116049528122,0.5480759739875793,-0.3579787611961365,2023-10-21T15:13:14.683427Z,1697901194683
-0.10934913903474808,0.49380049109458923,-0.322726309299469,2023-10-21T15:13:14.691178Z,1697901194691
-0.10589040815830231,0.4428507089614868,-0.2825517952442169,2023-10-21T15:13:14.702267Z,1697901194702
-0.10296379029750824,0.39921748638153076,-0.24836355447769165,2023-10-21T15:13:14.711328Z,1697901194711
-0.10602343827486038,0.3267171382904053,-0.1942211091518402,2023-10-21T15:13:14.722500Z,1697901194722
-0.11985836178064346,0.24450574815273285,-0.13435843586921692,2023-10-21T15:13:14.732781Z,1697901194732
-0.12544554471969604,0.15923470258712769,-0.0867343544960022,2023-10-21T15:13:14.742475Z,1697901194742
-0.13023455440998077,0.06997280567884445,-0.045362599194049835,2023-10-21T15:13:14.752038Z,1697901194752
-0.12996850907802582,-0.019023025408387184,-0.01144042145460844,2023-10-21T15:13:14.766501Z,1697901194766
-0.1218537837266922,-0.10256470739841461,0.012903730385005474,2023-10-21T15:13:14.772231Z,1697901194772
-0.10495921224355698,-0.17652836441993713,0.02633957378566265,2023-10-21T15:13:14.783180Z,1697901194783
-0.07888569682836533,-0.23412954807281494,0.026738658547401428,2023-10-21T15:13:14.792356Z,1697901194792
-0.04230295121669769,-0.26698750257492065,0.01223859004676342,2023-10-21T15:13:14.803617Z,1697901194803
0.005454154219478369,-0.26751962304115295,-0.01849091239273548,2023-10-21T15:13:14.816044Z,1697901194815
0.06252323091030121,-0.23200109601020813,-0.06438562273979187,2023-10-21T15:13:14.823607Z,1697901194823
0.1257116049528122,-0.16123011708259583,-0.12118864804506302,2023-10-21T15:13:14.832982Z,1697901194832
0.19182659685611725,-0.05839935690164566,-0.18304674327373505,2023-10-21T15:13:14.843775Z,1697901194843
0.25701040029525757,0.06930766999721527,-0.24304243922233582,2023-10-21T15:13:14.853313Z,1697901194853
0.31700608134269714,0.21164779365062714,-0.29558855295181274,2023-10-21T15:13:14.866468Z,1697901194866
0.36742374300956726,0.3551851511001587,-0.33509790897369385,2023-10-21T15:13:14.873445Z,1697901194873
0.40427255630493164,0.48701605200767517,-0.3579787611961365,2023-10-21T15:13:14.884543Z,1697901194884
0.4268873333930969,0.5971633791923523,-0.363166868686676,2023-10-21T15:13:14.893637Z,1697901194893
0.4373965561389923,0.6805720329284668,-0.3534558117389679,2023-10-21T15:13:14.904866Z,1697901194904
0.43979108333587646,0.7364438772201538,-0.33350157737731934,2023-10-21T15:13:14.915520Z,1697901194915
0.4380617141723633,0.7657100558280945,-0.30769410729408264,2023-10-21T15:13:14.924862Z,1697901194924
0.4368644654750824,0.7716963291168213,-0.2804233431816101,2023-10-21T15:13:14.934350Z,1697901194934
0.44098833203315735,0.759590744972229,-0.255680114030838,2023-10-21T15:13:14.949026Z,1697901194948
0.45229572057724,0.7339163422584534,-0.23532679677009583,2023-10-21T15:13:14.954606Z,1697901194954
0.4681260585784912,0.696402370929718,-0.21856525540351868,2023-10-21T15:13:14.965968Z,1697901194965
0.4847545921802521,0.6478471159934998,-0.20393215119838715,2023-10-21T15:13:14.974815Z,1697901194974
0.4995207190513611,0.5901128649711609,-0.19023025035858154,2023-10-21T15:13:14.985935Z,1697901194985
0.5121583938598633,0.52639240026474,-0.1767944097518921,2023-10-21T15:13:14.995026Z,1697901194994
0.5221354961395264,0.4604104459285736,-0.16216132044792175,2023-10-21T15:13:15.006239Z,1697901195006
0.5287868976593018,0.3945614993572235,-0.14460159838199615,2023-10-21T15:13:15.015601Z,1697901195015
0.5303832292556763,0.329776793718338,-0.12251892685890198,2023-10-21T15:13:15.026177Z,1697901195026
0.5247960686683655,0.2660562992095947,-0.09578026831150055,2023-10-21T15:13:15.035659Z,1697901195035
0.5104290246963501,0.20379912853240967,-0.06505076587200165,2023-10-21T15:13:15.049443Z,1697901195049
0.4890114963054657,0.14433553814888,-0.030330419540405273,2023-10-21T15:13:15.055941Z,1697901195055
0.46307098865509033,0.08912885934114456,0.009045914746820927,2023-10-21T15:13:15.067047Z,1697901195067
0.4330066442489624,0.036582741886377335,0.05400943011045456,2023-10-21T15:13:15.076187Z,1697901195076
0.39775416254997253,-0.016761546954512596,0.10456012934446335,2023-10-21T15:13:15.087340Z,1697901195087
0.3567815124988556,-0.0751609057188034,0.16016589105129242,2023-10-21T15:13:15.099139Z,1697901195099
0.31141889095306396,-0.14194104075431824,0.2200285643339157,2023-10-21T15:13:15.107405Z,1697901195107
0.26472601294517517,-0.21883131563663483,0.28241875767707825,2023-10-21T15:13:15.116710Z,1697901195116
0.21976250410079956,-0.3056986927986145,0.3442768454551697,2023-10-21T15:13:15.127560Z,1697901195127
0.1811843365430832,-0.3978872001171112,0.4005477726459503,2023-10-21T15:13:15.137034Z,1697901195136
0.1536475121974945,-0.488878458738327,0.4444470703601837,2023-10-21T15:13:15.149451Z,1697901195149
0.13914744555950165,-0.5697595477104187,0.470919668674469,2023-10-21T15:13:15.157278Z,1697901195157
0.1367529332637787,-0.6329479217529297,0.4785022735595703,2023-10-21T15:13:15.168307Z,1697901195168
0.14340434968471527,-0.6719251871109009,0.4686581790447235,2023-10-21T15:13:15.177435Z,1697901195177
0.15684019029140472,-0.6811041235923767,0.44497916102409363,2023-10-21T15:13:15.188537Z,1697901195188
0.1740008294582367,-0.659553587436676,0.4121212065219879,2023-10-21T15:13:15.198798Z,1697901195198
0.19023025035858154,-0.6105992197990417,0.3754054307937622,2023-10-21T15:13:15.208607Z,1697901195208
0.18317976593971252,-0.5375667810440063,0.3308410048484802,2023-10-21T15:13:15.218095Z,1697901195218
0.19023025035858154,-0.45921316742897034,0.30157482624053955,2023-10-21T15:13:15.233230Z,1697901195233
0.19634954631328583,-0.39216700196266174,0.2765655219554901,2023-10-21T15:13:15.238377Z,1697901195238
0.16761547327041626,-0.33496490120887756,0.23625800013542175,2023-10-21T15:13:15.249723Z,1697901195249
0.14313828945159912,-0.2860105335712433,0.20180371403694153,2023-10-21T15:13:15.258559Z,1697901195258
0.1503218114376068,-0.19914314150810242,0.2282763123512268,2023-10-21T15:13:15.269563Z,1697901195269
0.1564411073923111,-0.12491343170404434,0.2508910894393921,2023-10-21T15:13:15.282350Z,1697901195282
0.13356027007102966,-0.10668858140707016,0.21430835127830505,2023-10-21T15:13:15.289890Z,1697901195289
0.13249604403972626,-0.0477571077644825,0.22308820486068726,2023-10-21T15:13:15.299060Z,1697901195299
0.13156484067440033,0.0026605629827827215,0.2305377870798111,2023-10-21T15:13:15.310045Z,1697901195310
0.14087681472301483,0.041238728910684586,0.205794557929039,2023-10-21T15:13:15.319358Z,1697901195319
0.16814757883548737,0.09444998949766159,0.18317976593971252,2023-10-21T15:13:15.332871Z,1697901195332
0.18411096930503845,0.11892716586589813,0.15085391700267792,2023-10-21T15:13:15.339594Z,1697901195339
0.20100553333759308,0.13289512693881989,0.11945927888154984,2023-10-21T15:13:15.350624Z,1697901195350
0.21590469777584076,0.13382631540298462,0.09258759021759033,2023-10-21T15:13:15.359783Z,1697901195359
0.2063266634941101,0.1213216781616211,0.07476182281970978,2023-10-21T15:13:15.370905Z,1697901195370
0.21417532861232758,0.09564723819494247,0.06265626102685928,2023-10-21T15:13:15.382006Z,1697901195381
0.2343956083059311,0.058266330510377884,0.0570690780878067,2023-10-21T15:13:15.390982Z,1697901195390
0.22375334799289703,0.011839505285024643,0.0609268918633461,2023-10-21T15:13:15.400403Z,1697901195400
0.20818905532360077,-0.04070661589503288,0.06890857964754105,2023-10-21T15:13:15.411213Z,1697901195411
0.1899642050266266,-0.09564723819494247,0.07835358381271362,2023-10-21T15:13:15.420686Z,1697901195420
0.1712072342634201,-0.14939060807228088,0.08686738461256027,2023-10-21T15:13:15.432132Z,1697901195432
0.15391357243061066,-0.19901011884212494,0.09245456755161285,2023-10-21T15:13:15.440892Z,1697901195440
0.13967956602573395,-0.24118003249168396,0.09378484636545181,2023-10-21T15:13:15.451905Z,1697901195451
0.12877124547958374,-0.2733728587627411,0.09032611548900604,2023-10-21T15:13:15.461075Z,1697901195461
0.12012442201375961,-0.2935931384563446,0.08247745782136917,2023-10-21T15:13:15.472216Z,1697901195472
0.11347301304340363,-0.3011757433414459,0.07143611460924149,2023-10-21T15:13:15.481574Z,1697901195481
0.10243167728185654,-0.2797582149505615,0.060394782572984695,2023-10-21T15:13:15.492196Z,1697901195492
0.10309682041406631,-0.2645930051803589,0.042835064232349396,2023-10-21T15:13:15.501731Z,1697901195501
0.10362893342971802,-0.25155624747276306,0.027802884578704834,2023-10-21T15:13:15.515617Z,1697901195515
0.10788583010435104,-0.21324412524700165,0.00611929502338171,2023-10-21T15:13:15.521961Z,1697901195521
0.11147759109735489,-0.18038617074489594,-0.012504646554589272,2023-10-21T15:13:15.532887Z,1697901195532
0.11001428216695786,-0.13036759197711945,-0.02953225001692772,2023-10-21T15:13:15.542115Z,1697901195542
0.10881702601909637,-0.08753252774477005,-0.04403231665492058,2023-10-21T15:13:15.553300Z,1697901195553
0.09311970323324203,-0.03977541625499725,-0.04749105125665665,2023-10-21T15:13:15.565786Z,1697901195565
0.0795508325099945,0.001064225216396153,-0.050417669117450714,2023-10-21T15:13:15.573434Z,1697901195573
0.052280064672231674,0.04057358577847481,-0.03924330323934555,2023-10-21T15:13:15.582716Z,1697901195582
0.015032181516289711,0.09378484636545181,-0.022348729893565178,2023-10-21T15:13:15.593651Z,1697901195593
-0.01822485774755478,0.1169317439198494,-0.0014633096288889647,2023-10-21T15:13:15.603122Z,1697901195603
-0.0526791475713253,0.13316118717193604,0.020885419100522995,2023-10-21T15:13:15.615699Z,1697901195615
-0.08487196266651154,0.14313828945159912,0.04243598133325577,2023-10-21T15:13:15.623271Z,1697901195623
-0.11174365133047104,0.1459318846464157,0.06185809150338173,2023-10-21T15:13:15.634271Z,1697901195634
-0.1327620893716812,0.13954652845859528,0.0784866064786911,2023-10-21T15:13:15.643408Z,1697901195643
-0.148193359375,0.12198681384325027,0.09139034152030945,2023-10-21T15:13:15.654595Z,1697901195654
-0.1432713270187378,0.10243167728185654,0.08966097235679626,2023-10-21T15:13:15.665086Z,1697901195665
-0.14500068128108978,0.06451865285634995,0.09178942441940308,2023-10-21T15:13:15.674651Z,1697901195674
-0.15497779846191406,0.010642251931130886,0.09764266014099121,2023-10-21T15:13:15.684101Z,1697901195684
-0.14952364563941956,-0.04044055938720703,0.08939491957426071,2023-10-21T15:13:15.698659Z,1697901195698
-0.14406949281692505,-0.09418392926454544,0.07822055369615555,2023-10-21T15:13:15.704377Z,1697901195704
-0.13635385036468506,-0.14500068128108978,0.06398653984069824,2023-10-21T15:13:15.715519Z,1697901195715
-0.12451434880495071,-0.18863391876220703,0.04642682522535324,2023-10-21T15:13:15.724521Z,1697901195724
-0.10908308625221252,-0.19289082288742065,0.034055206924676895,2023-10-21T15:13:15.735646Z,1697901195735
-0.09245456755161285,-0.22215701639652252,0.007449576631188393,2023-10-21T15:13:15.748459Z,1697901195748
-0.07542695850133896,-0.270446240901947,-0.032192811369895935,2023-10-21T15:13:15.755711Z,1697901195755
-0.05520668253302574,-0.27204257249832153,-0.06691315770149231,2023-10-21T15:13:15.765127Z,1697901195765
-0.029266193509101868,-0.26100122928619385,-0.10708766430616379,2023-10-21T15:13:15.776025Z,1697901195775
0.0027935912366956472,-0.2375882863998413,-0.15205118060112,2023-10-21T15:13:15.785411Z,1697901195785
0.03924330323934555,-0.20433124899864197,-0.19940920174121857,2023-10-21T15:13:15.799194Z,1697901195799
0.07675724476575851,-0.16615216434001923,-0.2458360195159912,2023-10-21T15:13:15.805629Z,1697901195805
0.11147759109735489,-0.12797307968139648,-0.28734081983566284,2023-10-21T15:13:15.816629Z,1697901195816
0.14127589762210846,-0.09365181624889374,-0.32139602303504944,2023-10-21T15:13:15.825853Z,1697901195825
0.16495491564273834,-0.06571590900421143,-0.3474695384502411,2023-10-21T15:13:15.836951Z,1697901195836
0.18251462280750275,-0.04522957280278206,-0.36635953187942505,2023-10-21T15:13:15.848331Z,1697901195848
0.19395504891872406,-0.032192811369895935,-0.3792632520198822,2023-10-21T15:13:15.856971Z,1697901195856
0.201936736702919,-0.02288084290921688,-0.38884130120277405,2023-10-21T15:13:15.866483Z,1697901195866
0.21151475608348846,-0.011041336692869663,-0.39935052394866943,2023-10-21T15:13:15.877264Z,1697901195877
0.22801025211811066,0.011041336692869663,-0.414781779050827,2023-10-21T15:13:15.886774Z,1697901195886
0.2523544132709503,0.048156190663576126,-0.43606626987457275,2023-10-21T15:13:15.898553Z,1697901195898
0.2805563807487488,0.10123442113399506,-0.4604104459285736,2023-10-21T15:13:15.906917Z,1697901195906
0.30556565523147583,0.16867969930171967,-0.48262614011764526,2023-10-21T15:13:15.917933Z,1697901195917
0.3195336163043976,0.24517089128494263,-0.4956628978252411,2023-10-21T15:13:15.927095Z,1697901195927
0.3162079155445099,0.32352447509765625,-0.4923371970653534,2023-10-21T15:13:15.938307Z,1697901195938
0.29066652059555054,0.3950936198234558,-0.46626368165016174,2023-10-21T15:13:15.948305Z,1697901195948
0.23998278379440308,0.451630562543869,-0.41451573371887207,2023-10-21T15:13:15.958298Z,1697901195958
0.1652209609746933,0.4863509237766266,-0.3392217755317688,2023-10-21T15:13:15.967760Z,1697901195967
0.0697067528963089,0.4951307773590088,-0.24543693661689758,2023-10-21T15:13:15.982335Z,1697901195982
-0.038711193948984146,0.4770389497280121,-0.1415419578552246,2023-10-21T15:13:15.988092Z,1697901195988
-0.14992272853851318,0.43553417921066284,-0.03698182478547096,2023-10-21T15:13:15.999006Z,1697901195998
-0.25381770730018616,0.37833207845687866,0.059463582932949066,2023-10-21T15:13:16.008462Z,1697901196008
-0.34494200348854065,0.3156757950782776,0.14140892028808594,2023-10-21T15:13:16.019385Z,1697901196019
-0.42130014300346375,0.25927186012268066,0.20592758059501648,2023-10-21T15:13:16.031594Z,1697901196031
-0.48169493675231934,0.22109279036521912,0.2523544132709503,2023-10-21T15:13:16.039366Z,1697901196039
-0.5250621438026428,0.21045053005218506,0.28122150897979736,2023-10-21T15:13:16.048779Z,1697901196048
-0.5511356592178345,0.233198344707489,0.29292798042297363,2023-10-21T15:13:16.059642Z,1697901196059
-0.5603145956993103,0.2885380685329437,0.28840503096580505,2023-10-21T15:13:16.069131Z,1697901196069
-0.5535301566123962,0.37088248133659363,0.26924899220466614,2023-10-21T15:13:16.081947Z,1697901196081
-0.5326447486877441,0.46892422437667847,0.23798736929893494,2023-10-21T15:13:16.089312Z,1697901196089
-0.5008509755134583,0.5698925852775574,0.19821195304393768,2023-10-21T15:13:16.100329Z,1697901196100
-0.4620067775249481,0.6610168814659119,0.1541796326637268,2023-10-21T15:13:16.109473Z,1697901196109
-0.4203689694404602,0.7324529886245728,0.10988125205039978,2023-10-21T15:13:16.120600Z,1697901196120
-0.37846508622169495,0.7794119715690613,0.06930766999721527,2023-10-21T15:13:16.131344Z,1697901196131
-0.3365612328052521,0.8021597862243652,0.03525245934724808,2023-10-21T15:13:16.140640Z,1697901196140
-0.29505643248558044,0.8036230802536011,0.009045914746820927,2023-10-21T15:13:16.150168Z,1697901196150
-0.2562122344970703,0.7867285013198853,-0.00944499857723713,2023-10-21T15:13:16.160905Z,1697901196160
-0.2222900390625,0.7538705468177795,-0.02101844735443592,2023-10-21T15:13:16.170459Z,1697901196170
-0.19408807158470154,0.707310676574707,-0.02633957378566265,2023-10-21T15:13:16.181679Z,1697901196181
-0.16814757883548737,0.6310855746269226,-0.025541406124830246,2023-10-21T15:13:16.190621Z,1697901196190
-0.14619794487953186,0.5678972005844116,-0.021550560370087624,2023-10-21T15:13:16.201663Z,1697901196201
-0.12744097411632538,0.5140208005905151,-0.017958801239728928,2023-10-21T15:13:16.210754Z,1697901196210
-0.10895005613565445,0.4389928877353668,-0.015298237092792988,2023-10-21T15:13:16.221986Z,1697901196221
-0.08580315858125687,0.3414832651615143,1.3302815204951912E-4,2023-10-21T15:13:16.231244Z,1697901196231
-0.06185809150338173,0.22694602608680725,0.01822485774755478,2023-10-21T15:13:16.241989Z,1697901196241
-0.04177083820104599,0.12690885365009308,0.022481758147478104,2023-10-21T15:13:16.251495Z,1697901196251
-0.017958801239728928,0.03711485490202904,0.018623940646648407,2023-10-21T15:13:16.264976Z,1697901196264
0.01144042145460844,-0.03445428982377052,0.004123872611671686,2023-10-21T15:13:16.271735Z,1697901196271
0.046958938241004944,-0.08101414144039154,-0.022215701639652252,2023-10-21T15:13:16.282709Z,1697901196282
0.08660132437944412,-0.09923899918794632,-0.06052780896425247,2023-10-21T15:13:16.291916Z,1697901196291
0.12970244884490967,-0.08939491957426071,-0.10934913903474808,2023-10-21T15:13:16.303062Z,1697901196303
0.17519807815551758,-0.054807599633932114,-0.16442279517650604,2023-10-21T15:13:16.314378Z,1697901196314
0.22109279036521912,-0.0013302814913913608,-0.2201615869998932,2023-10-21T15:13:16.323092Z,1697901196323
0.2623315155506134,0.0614590048789978,-0.2700471580028534,2023-10-21T15:13:16.332527Z,1697901196332
0.2942582666873932,0.1218537837266922,-0.3088913559913635,2023-10-21T15:13:16.343320Z,1697901196343
0.3146115839481354,0.1701430082321167,-0.33296945691108704,2023-10-21T15:13:16.352805Z,1697901196352
0.32365748286247253,0.2008725106716156,-0.3412172198295593,2023-10-21T15:13:16.365014Z,1697901196364
0.3239235579967499,0.21204687654972076,-0.3353639841079712,2023-10-21T15:13:16.373Z,1697901196372
0.3190014958381653,0.20446427166461945,-0.3195336163043976,2023-10-21T15:13:16.384017Z,1697901196383
0.315010666847229,0.18131737411022186,-0.2997124195098877,2023-10-21T15:13:16.393210Z,1697901196393
0.31913453340530396,0.14806033670902252,-0.28068938851356506,2023-10-21T15:13:16.404356Z,1697901196404
0.33616214990615845,0.11001428216695786,-0.26751962304115295,2023-10-21T15:13:16.414577Z,1697901196414
0.36902010440826416,0.07050491869449615,-0.2651250958442688,2023-10-21T15:13:16.424399Z,1697901196424
0.4175753593444824,0.030330419540405273,-0.27696460485458374,2023-10-21T15:13:16.433850Z,1697901196433
0.4785022735595703,-0.010243168100714684,-0.30263903737068176,2023-10-21T15:13:16.448374Z,1697901196448
0.540493369102478,-0.05028464272618294,-0.33390066027641296,2023-10-21T15:13:16.454095Z,1697901196454
0.5883834958076477,-0.08979400247335434,-0.3571805953979492,2023-10-21T15:13:16.465008Z,1697901196464
0.6088698506355286,-0.13289512693881989,-0.35917600989341736,2023-10-21T15:13:16.474321Z,1697901196474
0.5954340100288391,-0.18717060983181,-0.33057495951652527,2023-10-21T15:13:16.485369Z,1697901196485
0.5467457175254822,-0.25940489768981934,-0.2672535479068756,2023-10-21T15:13:16.497844Z,1697901196497
0.4637361466884613,-0.3501301109790802,-0.16841363906860352,2023-10-21T15:13:16.505445Z,1697901196505
0.3566484749317169,-0.455488383769989,-0.04150478169322014,2023-10-21T15:13:16.514911Z,1697901196514
0.24517089128494263,-0.5696265697479248,0.09684449434280396,2023-10-21T15:13:16.525626Z,1697901196525
0.15058787167072296,-0.6865583062171936,0.22574877738952637,2023-10-21T15:13:16.535177Z,1697901196535
0.08407378941774368,-0.7998982667922974,0.32964375615119934,2023-10-21T15:13:16.548069Z,1697901196548
0.044697459787130356,-0.9061877727508545,0.40427255630493164,2023-10-21T15:13:16.555397Z,1697901196555
0.027137743309140205,-1.0062249898910522,0.45242875814437866,2023-10-21T15:13:16.566448Z,1697901196566
0.025009293109178543,-1.1029363870620728,0.47930043935775757,2023-10-21T15:13:16.575593Z,1697901196575
0.03205978497862816,-1.1965882778167725,0.4902087450027466,2023-10-21T15:13:16.586776Z,1697901196586
0.041903868317604065,-1.2830564975738525,0.48980966210365295,2023-10-21T15:13:16.597850Z,1697901196597
0.05055069923400879,-1.3562220335006714,0.4808967709541321,2023-10-21T15:13:16.606801Z,1697901196606
0.059197526425123215,-1.4079699516296387,0.46187373995780945,2023-10-21T15:13:16.616214Z,1697901196616
0.07223428785800934,-1.4309837818145752,0.42662128806114197,2023-10-21T15:13:16.627011Z,1697901196626
0.09458301961421967,-1.4199424982070923,0.3687540292739868,2023-10-21T15:13:16.636489Z,1697901196636
0.12850520014762878,-1.3728505373001099,0.28561145067214966,2023-10-21T15:13:16.648146Z,1697901196648
0.17320264875888824,-1.2926346063613892,0.1805192083120346,2023-10-21T15:13:16.656754Z,1697901196656
0.2238863855600357,-1.186345100402832,0.061991117894649506,2023-10-21T15:13:16.667815Z,1697901196667
0.2740379869937897,-1.0643582344055176,-0.05813330411911011,2023-10-21T15:13:16.676900Z,1697901196676
0.3162079155445099,-0.9375824332237244,-0.16761547327041626,2023-10-21T15:13:16.688044Z,1697901196688
0.3441438376903534,-0.8158616423606873,-0.2552810311317444,2023-10-21T15:13:16.697509Z,1697901196697
0.35318973660469055,-0.707310676574707,-0.3122170865535736,2023-10-21T15:13:16.708045Z,1697901196708
0.3418823480606079,-0.6168515682220459,-0.3342997431755066,2023-10-21T15:13:16.717592Z,1697901196717
0.30702897906303406,-0.5343740582466125,-0.31195101141929626,2023-10-21T15:13:16.731456Z,1697901196731
0.26219847798347473,-0.45628654956817627,-0.26632237434387207,2023-10-21T15:13:16.737800Z,1697901196737
0.2157716602087021,-0.4363323450088501,-0.21869827806949615,2023-10-21T15:13:16.748721Z,1697901196748
0.15617504715919495,-0.4433828294277191,-0.14859244227409363,2023-10-21T15:13:16.758006Z,1697901196757
0.08660132437944412,-0.4310111999511719,-0.0570690780878067,2023-10-21T15:13:16.769086Z,1697901196769
0.015165209770202637,-0.42728641629219055,0.04057358577847481,2023-10-21T15:13:16.780889Z,1697901196780
-0.055073656141757965,-0.4302130341529846,0.14007864892482758,2023-10-21T15:13:16.789097Z,1697901196789
-0.1218537837266922,-0.43819472193717957,0.23679010570049286,2023-10-21T15:13:16.798610Z,1697901196798
-0.18317976593971252,-0.45083239674568176,0.3267171382904053,2023-10-21T15:13:16.809391Z,1697901196809
-0.237056165933609,-0.4669288098812103,0.40533676743507385,2023-10-21T15:13:16.818899Z,1697901196818
-0.28122150897979736,-0.4851536750793457,0.46852514147758484,2023-10-21T15:13:16.831408Z,1697901196831
-0.3135473430156708,-0.503644585609436,0.5129565596580505,2023-10-21T15:13:16.839141Z,1697901196839
-0.333634614944458,-0.5212042927742004,0.537300705909729,2023-10-21T15:13:16.850034Z,1697901196850
-0.3429465889930725,-0.5366355776786804,0.54182368516922,2023-10-21T15:13:16.859268Z,1697901196859
-0.34214839339256287,-0.5471447706222534,0.5274566411972046,2023-10-21T15:13:16.870413Z,1697901196870
-0.3315061628818512,-0.5499383807182312,0.49579593539237976,2023-10-21T15:13:16.881010Z,1697901196880
-0.31155192852020264,-0.5432869791984558,0.4499012231826782,2023-10-21T15:13:16.890430Z,1697901196890
-0.28561145067214966,-0.5271905660629272,0.3952266275882721,2023-10-21T15:13:16.899903Z,1697901196899
-0.2519553303718567,-0.4791674017906189,0.3397538959980011,2023-10-21T15:13:16.914369Z,1697901196914
-0.22801025211811066,-0.4501672685146332,0.28561145067214966,2023-10-21T15:13:16.920189Z,1697901196920
-0.20765694975852966,-0.4254240393638611,0.23945067822933197,2023-10-21T15:13:16.931257Z,1697901196931
-0.19994130730628967,-0.385249525308609,0.211381733417511,2023-10-21T15:13:16.940336Z,1697901196940
-0.21178081631660461,-0.35651543736457825,0.2031339854001999,2023-10-21T15:13:16.951476Z,1697901196951
-0.22348730266094208,-0.3134143352508545,0.21537257730960846,2023-10-21T15:13:16.964127Z,1697901196964
-0.2447717934846878,-0.27297377586364746,0.24676722288131714,2023-10-21T15:13:16.971552Z,1697901196971
-0.2733728587627411,-0.23692314326763153,0.29252889752388,2023-10-21T15:13:16.980959Z,1697901196980
-0.3051665723323822,-0.205794557929039,0.34667137265205383,2023-10-21T15:13:16.991882Z,1697901196991
-0.33563002943992615,-0.17972102761268616,0.40147897601127625,2023-10-21T15:13:17.001254Z,1697901197001
-0.36090537905693054,-0.1597668081521988,0.45030030608177185,2023-10-21T15:13:17.014944Z,1697901197014
-0.3792632520198822,-0.14832639694213867,0.48874542117118835,2023-10-21T15:13:17.021498Z,1697901197021
-0.38990551233291626,-0.1471291333436966,0.5146859288215637,2023-10-21T15:13:17.032475Z,1697901197032
-0.39269909262657166,-0.15710625052452087,0.5274566411972046,2023-10-21T15:13:17.041680Z,1697901197041
-0.3880431056022644,-0.17852377891540527,0.5277226567268372,2023-10-21T15:13:17.052792Z,1697901197052
-0.37740087509155273,-0.2112487107515335,0.5165483355522156,2023-10-21T15:13:17.064136Z,1697901197064
-0.3623686730861664,-0.25434982776641846,0.49433261156082153,2023-10-21T15:13:17.072792Z,1697901197072
-0.3430795967578888,-0.3052996098995209,0.4609425365924835,2023-10-21T15:13:17.082326Z,1697901197082
-0.3194005787372589,-0.3605062961578369,0.41637811064720154,2023-10-21T15:13:17.093113Z,1697901197093
-0.29226285219192505,-0.4166441857814789,0.3610384166240692,2023-10-21T15:13:17.102623Z,1697901197102
-0.26259756088256836,-0.4698554277420044,0.29505643248558044,2023-10-21T15:13:17.114535Z,1697901197114
-0.2310699075460434,-0.5162822604179382,0.21976250410079956,2023-10-21T15:13:17.122775Z,1697901197122
-0.19914314150810242,-0.5532640814781189,0.13821625709533691,2023-10-21T15:13:17.133801Z,1697901197133
-0.1690787822008133,-0.5789385437965393,0.05587182566523552,2023-10-21T15:13:17.142941Z,1697901197142
-0.14287222921848297,-0.5914431810379028,-0.02168358862400055,2023-10-21T15:13:17.154094Z,1697901197154
-0.12198681384325027,-0.5898468494415283,-0.08872977644205093,2023-10-21T15:13:17.164101Z,1697901197164
-0.10908308625221252,-0.5760118961334229,-0.14034469425678253,2023-10-21T15:13:17.174052Z,1697901197174
-0.09724357724189758,-0.5249291062355042,-0.14992272853851318,2023-10-21T15:13:17.183630Z,1697901197183
-0.10655555129051208,-0.49872255325317383,-0.1636246293783188,2023-10-21T15:13:17.198022Z,1697901197197
-0.11453723907470703,-0.47624078392982483,-0.17533110082149506,2023-10-21T15:13:17.203884Z,1697901197203
-0.14140892028808594,-0.43486902117729187,-0.1465970277786255,2023-10-21T15:13:17.214781Z,1697901197214
-0.1936889886856079,-0.4062679708003998,-0.10735371708869934,2023-10-21T15:13:17.224078Z,1697901197224
-0.23027172684669495,-0.3569145202636719,-0.055339712649583817,2023-10-21T15:13:17.235172Z,1697901197235
-0.27297377586364746,-0.30862531065940857,9.311970788985491E-4,2023-10-21T15:13:17.247476Z,1697901197247
-0.31687304377555847,-0.25980398058891296,0.05547273904085159,2023-10-21T15:13:17.255378Z,1697901197255
-0.3555842638015747,-0.20818905532360077,0.10203259438276291,2023-10-21T15:13:17.264637Z,1697901197264
-0.38564860820770264,-0.15284934639930725,0.13648688793182373,2023-10-21T15:13:17.275430Z,1697901197275
-0.40852946043014526,-0.09631238132715225,0.15843652188777924,2023-10-21T15:13:17.284939Z,1697901197284
-0.4264882504940033,-0.041238728910684586,0.16867969930171967,2023-10-21T15:13:17.297786Z,1697901197297
-0.4396580457687378,0.011307393200695515,0.16841363906860352,2023-10-21T15:13:17.305144Z,1697901197305
-0.44763973355293274,0.061325978487730026,0.15950074791908264,2023-10-21T15:13:17.316183Z,1697901197316
-0.451630562543869,0.10748674720525742,0.1448676586151123,2023-10-21T15:13:17.325351Z,1697901197325
-0.45429113507270813,0.1476612538099289,0.12850520014762878,2023-10-21T15:13:17.336434Z,1697901197336
-0.45801591873168945,0.18012011051177979,0.11400512605905533,2023-10-21T15:13:17.347152Z,1697901197347
-0.46360310912132263,0.20379912853240967,0.10336287319660187,2023-10-21T15:13:17.356444Z,1697901197356
-0.46958938241004944,0.21962948143482208,0.09564723819494247,2023-10-21T15:13:17.366010Z,1697901197365
-0.47384628653526306,0.2294735610485077,0.08952794969081879,2023-10-21T15:13:17.380591Z,1697901197380
-0.47663986682891846,0.23426257073879242,0.08354167640209198,2023-10-21T15:13:17.386280Z,1697901197386
-0.47930043935775757,0.233198344707489,0.07702329754829407,2023-10-21T15:13:17.397524Z,1697901197397
-0.48222705721855164,0.22654694318771362,0.06930766999721527,2023-10-21T15:13:17.406433Z,1697901197406
-0.4842224717140198,0.2163037806749344,0.05999569594860077,2023-10-21T15:13:17.417604Z,1697901197417
-0.4839564263820648,0.20433124899864197,0.04922041669487953,2023-10-21T15:13:17.426650Z,1697901197426
-0.4808967709541321,0.19195961952209473,0.037513937801122665,2023-10-21T15:13:17.437883Z,1697901197437
-0.47570866346359253,0.17932194471359253,0.025275349617004395,2023-10-21T15:13:17.447192Z,1697901197447
-0.4693233072757721,0.16588610410690308,0.013701899908483028,2023-10-21T15:13:17.457889Z,1697901197457
-0.46347007155418396,0.15138603746891022,0.0039908443577587605,2023-10-21T15:13:17.467305Z,1697901197467
-0.4586810767650604,0.13595476746559143,-0.0031926757656037807,2023-10-21T15:13:17.481027Z,1697901197481
-0.45575445890426636,0.11932624876499176,-0.0065183793194592,2023-10-21T15:13:17.487547Z,1697901197487
-0.455488383769989,0.1015004813671112,-0.00572021072730422,2023-10-21T15:13:17.498708Z,1697901197498
-0.4577498733997345,0.08300956338644028,-0.0013302814913913608,2023-10-21T15:13:17.507793Z,1697901197507
-0.46001136302948,0.06598196178674698,0.005055069923400879,2023-10-21T15:13:17.518892Z,1697901197518
-0.45974528789520264,0.05281217768788338,0.01050922367721796,2023-10-21T15:13:17.530512Z,1697901197530
-0.45615354180336,0.045362599194049835,0.012903730385005474,2023-10-21T15:13:17.538929Z,1697901197538
-0.44976818561553955,0.043500207364559174,0.011174364946782589,2023-10-21T15:13:17.548343Z,1697901197548
-0.44165346026420593,0.047224994748830795,0.0055871824733912945,2023-10-21T15:13:17.559096Z,1697901197559
-0.4319424033164978,0.055738795548677444,-0.0026605629827827215,2023-10-21T15:13:17.568688Z,1697901197568
-0.4205019772052765,0.0686425268650055,-0.012637674808502197,2023-10-21T15:13:17.581032Z,1697901197580
-0.40799733996391296,0.08407378941774368,-0.022348729893565178,2023-10-21T15:13:17.588880Z,1697901197588
-0.39655691385269165,0.09883991628885269,-0.029266193509101868,2023-10-21T15:13:17.599846Z,1697901197599
-0.3881761431694031,0.11001428216695786,-0.031261615455150604,2023-10-21T15:13:17.609041Z,1697901197609
-0.38232290744781494,0.11653266102075577,-0.027403799816966057,2023-10-21T15:13:17.620262Z,1697901197620
-0.3770017921924591,0.11892716586589813,-0.019023025408387184,2023-10-21T15:13:17.630465Z,1697901197630
-0.37114855647087097,0.11733082681894302,-0.007715632673352957,2023-10-21T15:13:17.640319Z,1697901197640
-0.3648962080478668,0.11107850819826126,0.004655985161662102,2023-10-21T15:13:17.649662Z,1697901197649
-0.3578457236289978,0.0999041423201561,0.016229433938860893,2023-10-21T15:13:17.660461Z,1697901197660
-0.3502631187438965,0.08367470651865005,0.025674432516098022,2023-10-21T15:13:17.670036Z,1697901197669
-0.3418823480606079,0.06265626102685928,0.03166069835424423,2023-10-21T15:13:17.680985Z,1697901197680
-0.3128822147846222,0.047224994748830795,0.03112858720123768,2023-10-21T15:13:17.690129Z,1697901197690
-0.3050335645675659,0.016096405684947968,0.026472602039575577,2023-10-21T15:13:17.701315Z,1697901197701
-0.29824912548065186,-0.01050922367721796,0.022481758147478104,2023-10-21T15:13:17.713520Z,1697901197713
-0.28614354133605957,-0.04655985161662102,0.006784435827285051,2023-10-21T15:13:17.721418Z,1697901197721
-0.2756343185901642,-0.07728935778141022,-0.006651407573372126,2023-10-21T15:13:17.730723Z,1697901197730
-0.26033610105514526,-0.11014731228351593,-0.030330419540405273,2023-10-21T15:13:17.741615Z,1697901197741
-0.24729932844638824,-0.1383492797613144,-0.05055069923400879,2023-10-21T15:13:17.751035Z,1697901197750
-0.21111567318439484,-0.11812900006771088,-0.04310112074017525,2023-10-21T15:13:17.764143Z,1697901197764
-0.207523912191391,-0.15404659509658813,-0.09045914560556412,2023-10-21T15:13:17.771204Z,1697901197771
-0.20446427166461945,-0.18464307487010956,-0.13103273510932922,2023-10-21T15:13:17.782287Z,1697901197782
-0.17466595768928528,-0.15777139365673065,-0.11187667399644852,2023-10-21T15:13:17.791411Z,1697901197791
-0.14912456274032593,-0.13475751876831055,-0.095514215528965,2023-10-21T15:13:17.802575Z,1697901197802
-0.17080815136432648,-0.12025745213031769,-0.12690885365009308,2023-10-21T15:13:17.813594Z,1697901197813
-0.20539546012878418,-0.09351879358291626,-0.14779427647590637,2023-10-21T15:13:17.823293Z,1697901197823
-0.21031750738620758,-0.04735802114009857,-0.10549132525920868,2023-10-21T15:13:17.832053Z,1697901197832
-0.22162489593029022,-0.0022614786867052317,-0.0521470345556736,2023-10-21T15:13:17.842835Z,1697901197842
-0.23865249752998352,0.037513937801122665,0.008114716969430447,2023-10-21T15:13:17.852327Z,1697901197852
-0.2574094831943512,0.07050491869449615,0.06930766999721527,2023-10-21T15:13:17.864Z,1697901197863
-0.2733728587627411,0.09644541144371033,0.12478040903806686,2023-10-21T15:13:17.872517Z,1697901197872
-0.28454720973968506,0.11387209594249725,0.1690787822008133,2023-10-21T15:13:17.883756Z,1697901197883
-0.29106560349464417,0.12172076106071472,0.19834497570991516,2023-10-21T15:13:17.892673Z,1697901197892
-0.29292798042297363,0.12012442201375961,0.20978540182113647,2023-10-21T15:13:17.903853Z,1697901197903
-0.2885380685329437,0.11200970411300659,0.20233581960201263,2023-10-21T15:13:17.913372Z,1697901197913
-0.26366180181503296,0.09897294640541077,0.17958800494670868,2023-10-21T15:13:17.923819Z,1697901197923
-0.2250836342573166,0.08460590243339539,0.15338145196437836,2023-10-21T15:13:17.933389Z,1697901197933
-0.21710194647312164,0.07343153655529022,0.09844083338975906,2023-10-21T15:13:17.947676Z,1697901197947
-0.21031750738620758,0.06398653984069824,0.051614921540021896,2023-10-21T15:13:17.953608Z,1697901197953
-0.18184947967529297,0.04961949959397316,-0.007316548377275467,2023-10-21T15:13:17.964534Z,1697901197964
-0.15431265532970428,0.0351194329559803,-0.08766555041074753,2023-10-21T15:13:17.973801Z,1697901197973
-0.12305103987455368,0.025807460770010948,-0.1355556845664978,2023-10-21T15:13:17.984916Z,1697901197984
-0.09378484636545181,0.01755971647799015,-0.1761292666196823,2023-10-21T15:13:17.996922Z,1697901197996
-0.06837646663188934,0.009178942069411278,-0.20778997242450714,2023-10-21T15:13:18.004954Z,1697901198004
-0.04749105125665665,1.3302815204951912E-4,-0.22987264394760132,2023-10-21T15:13:18.014457Z,1697901198014
-0.03112858720123768,-0.00944499857723713,-0.24304243922233582,2023-10-21T15:13:18.025183Z,1697901198025
-0.022082673385739326,-0.013302815146744251,-0.2294735610485077,2023-10-21T15:13:18.034680Z,1697901198034
-0.010775280185043812,-0.02288084290921688,-0.23306532204151154,2023-10-21T15:13:18.047255Z,1697901198047
-9.311970788985491E-4,-0.031261615455150604,-0.23612496256828308,2023-10-21T15:13:18.054907Z,1697901198054
0.006252323277294636,-0.038445137441158295,-0.23333138227462769,2023-10-21T15:13:18.065887Z,1697901198065
0.012504646554589272,-0.04456442967057228,-0.2310699075460434,2023-10-21T15:13:18.075148Z,1697901198075
0.017692744731903076,-0.04642682522535324,-0.2293405383825302,2023-10-21T15:13:18.086451Z,1697901198086
0.022082673385739326,-0.04802316427230835,-0.22801025211811066,2023-10-21T15:13:18.096810Z,1697901198096
0.025541406124830246,-0.0438992902636528,-0.22601483762264252,2023-10-21T15:13:18.106266Z,1697901198106
0.02860105223953724,-0.04044055938720703,-0.2244184911251068,2023-10-21T15:13:18.115726Z,1697901198115
0.03272492438554764,-0.030862530693411827,-0.2184322327375412,2023-10-21T15:13:18.130248Z,1697901198130
0.03618365898728371,-0.02261478640139103,-0.21337716281414032,2023-10-21T15:13:18.136076Z,1697901198136
0.03990844637155533,-0.009578026831150055,-0.2014046162366867,2023-10-21T15:13:18.147088Z,1697901198147
0.04296809434890747,0.0014633096288889647,-0.19116145372390747,2023-10-21T15:13:18.156247Z,1697901198156
0.047890134155750275,0.016894575208425522,-0.1761292666196823,2023-10-21T15:13:18.167286Z,1697901198167
0.0521470345556736,0.030064363032579422,-0.16322554647922516,2023-10-21T15:13:18.180027Z,1697901198179
0.057867247611284256,0.04682590812444687,-0.14806033670902252,2023-10-21T15:13:18.187367Z,1697901198187
0.06265626102685928,0.061059921979904175,-0.13515660166740417,2023-10-21T15:13:18.196753Z,1697901198196
0.06691315770149231,0.07396364957094193,-0.12198681384325027,2023-10-21T15:13:18.207585Z,1697901198207
0.07063794881105423,0.08500499278306961,-0.11067942529916763,2023-10-21T15:13:18.217089Z,1697901198217
0.07422970980405807,0.09099125862121582,-0.09910597652196884,2023-10-21T15:13:18.230470Z,1697901198230
0.07742238789796829,0.09617935121059418,-0.08926188945770264,2023-10-21T15:13:18.237295Z,1697901198237
0.06611499190330505,0.08207836747169495,-0.07622513175010681,2023-10-21T15:13:18.248320Z,1697901198248
0.056403934955596924,0.07010583579540253,-0.06505076587200165,2023-10-21T15:13:18.257468Z,1697901198257
0.048156190663576126,0.05986266955733299,-0.05560576915740967,2023-10-21T15:13:18.268624Z,1697901198268
0.06757830083370209,0.06997280567884445,-0.04868830367922783,2023-10-21T15:13:18.280281Z,1697901198280
0.08420681953430176,0.0784866064786911,-0.042835064232349396,2023-10-21T15:13:18.288650Z,1697901198288
0.07196822762489319,0.06704618781805038,-0.036582741886377335,2023-10-21T15:13:18.298089Z,1697901198298
0.0614590048789978,0.05720210447907448,-0.031261615455150604,2023-10-21T15:13:18.308884Z,1697901198308
0.05241309106349945,0.04895436018705368,-0.026738658547401428,2023-10-21T15:13:18.318412Z,1697901198318
0.07489485293626785,0.04948647320270538,-0.023412954062223434,2023-10-21T15:13:18.330638Z,1697901198330
0.09405090659856796,0.04988555610179901,-0.020619364455342293,2023-10-21T15:13:18.338645Z,1697901198338
0.08021597564220428,0.04270203784108162,-0.01755971647799015,2023-10-21T15:13:18.349609Z,1697901198349
0.09431695938110352,0.04363323375582695,-0.02075239084661007,2023-10-21T15:13:18.358795Z,1697901198358
0.10628949105739594,0.04456442967057228,-0.023412954062223434,2023-10-21T15:13:18.369917Z,1697901198369
0.09072519838809967,0.03804605081677437,-0.019954223185777664,2023-10-21T15:13:18.380171Z,1697901198380
0.10003717243671417,0.03485337644815445,-0.025009293109178543,2023-10-21T15:13:18.389961Z,1697901198389
0.10788583010435104,0.032192811369895935,-0.029399221763014793,2023-10-21T15:13:18.399415Z,1697901198399
0.0921885073184967,0.027403799816966057,-0.02514232136309147,2023-10-21T15:13:18.413801Z,1697901198413
0.07875266671180725,0.023412954062223434,-0.021417532116174698,2023-10-21T15:13:18.419697Z,1697901198419
0.09006005525588989,0.02327992580831051,-0.021550560370087624,2023-10-21T15:13:18.430816Z,1697901198430
0.09963808953762054,0.02327992580831051,-0.021550560370087624,2023-10-21T15:13:18.439889Z,1697901198439
0.08513801544904709,0.01982119493186474,-0.01849091239273548,2023-10-21T15:13:18.451027Z,1697901198450
0.07263337075710297,0.016894575208425522,-0.01569732278585434,2023-10-21T15:13:18.463474Z,1697901198463
0.06212414801120758,0.014500068500638008,-0.013435843400657177,2023-10-21T15:13:18.471068Z,1697901198471
0.08114717155694962,0.04642682522535324,-0.0039908443577587605,2023-10-21T15:13:18.480445Z,1697901198480
0.09750963747501373,0.07369759678840637,0.004123872611671686,2023-10-21T15:13:18.491284Z,1697901198491
0.09697752445936203,0.0872664675116539,0.0022614786867052317,2023-10-21T15:13:18.500777Z,1697901198500
0.09644541144371033,0.09883991628885269,5.321126081980765E-4,2023-10-21T15:13:18.513606Z,1697901198513
0.10229864716529846,0.11320696026086807,-0.004389929119497538,2023-10-21T15:13:18.520955Z,1697901198520
0.10735371708869934,0.12544554471969604,-0.00864682998508215,2023-10-21T15:13:18.531964Z,1697901198531
0.11600054800510406,0.13528962433338165,-0.014899153262376785,2023-10-21T15:13:18.541169Z,1697901198541
0.12345012277364731,0.1438034325838089,-0.020220279693603516,2023-10-21T15:13:18.552254Z,1697901198552
0.12770701944828033,0.1438034325838089,-0.024344151839613914,2023-10-21T15:13:18.563024Z,1697901198562
0.13129878044128418,0.14393645524978638,-0.02793591283261776,2023-10-21T15:13:18.572288Z,1697901198572
0.12917032837867737,0.133427232503891,-0.03179372847080231,2023-10-21T15:13:18.581823Z,1697901198581
0.12744097411632538,0.12451434880495071,-0.034986402839422226,2023-10-21T15:13:18.592596Z,1697901198592
0.12850520014762878,0.11280786991119385,-0.04230295121669769,2023-10-21T15:13:18.602083Z,1697901198602
0.12930336594581604,0.10283076018095016,-0.04855527728796005,2023-10-21T15:13:18.613062Z,1697901198613
0.1327620893716812,0.09338576346635818,-0.057601191103458405,2023-10-21T15:13:18.622277Z,1697901198622
0.13568872213363647,0.08540407568216324,-0.0653168261051178,2023-10-21T15:13:18.633277Z,1697901198633
0.13914744555950165,0.07888569682836533,-0.07329851388931274,2023-10-21T15:13:18.642441Z,1697901198642
0.1422071009874344,0.07329851388931274,-0.08008294552564621,2023-10-21T15:13:18.653595Z,1697901198653
0.14792729914188385,0.07090400159358978,-0.08420681953430176,2023-10-21T15:13:18.663051Z,1697901198663
0.15284934639930725,0.0686425268650055,-0.0877985805273056,2023-10-21T15:13:18.673596Z,1697901198673
0.15484477579593658,0.06385350972414017,-0.08713343739509583,2023-10-21T15:13:18.683142Z,1697901198683
0.1564411073923111,0.05986266955733299,-0.08660132437944412,2023-10-21T15:13:18.696754Z,1697901198696
0.14912456274032593,0.04948647320270538,-0.08487196266651154,2023-10-21T15:13:18.703360Z,1697901198703
0.1427392065525055,0.04070661589503288,-0.0834086537361145,2023-10-21T15:13:18.714345Z,1697901198714
0.14127589762210846,0.037513937801122665,-0.08713343739509583,2023-10-21T15:13:18.723562Z,1697901198723
0.14007864892482758,0.03485337644815445,-0.09032611548900604,2023-10-21T15:13:18.734692Z,1697901198734
0.14313828945159912,0.03698182478547096,-0.0960463285446167,2023-10-21T15:13:18.746007Z,1697901198745
0.14579886198043823,0.03884422034025192,-0.1009683683514595,2023-10-21T15:13:18.754698Z,1697901198754
0.14752821624279022,0.04057358577847481,-0.10229864716529846,2023-10-21T15:13:18.764130Z,1697901198764
0.14899152517318726,0.041903868317604065,-0.10349590331315994,2023-10-21T15:13:18.774872Z,1697901198774
0.1273079365491867,0.03578457236289978,-0.08846372365951538,2023-10-21T15:13:18.784466Z,1697901198784
0.13089969754219055,0.034720346331596375,-0.08048202842473984,2023-10-21T15:13:18.796636Z,1697901198796
0.13409237563610077,0.033789150416851044,-0.0735645666718483,2023-10-21T15:13:18.804699Z,1697901198804
0.11453723907470703,0.02886710874736309,-0.06292231380939484,2023-10-21T15:13:18.815693Z,1697901198815
0.09777569025754929,0.024610208347439766,-0.05374337360262871,2023-10-21T15:13:18.824888Z,1697901198824
0.08354167640209198,0.02101844735443592,-0.04589471220970154,2023-10-21T15:13:18.835973Z,1697901198835
0.07130309194326401,0.017958801239728928,-0.039110276848077774,2023-10-21T15:13:18.846006Z,1697901198845
0.06930766999721527,0.03764696791768074,-6.651407456956804E-4,2023-10-21T15:13:18.856079Z,1697901198855
0.06757830083370209,0.05440851300954819,0.03232584148645401,2023-10-21T15:13:18.865500Z,1697901198865
0.05773421749472618,0.04655985161662102,0.027536828070878983,2023-10-21T15:13:18.879837Z,1697901198879
0.051348865032196045,0.06757830083370209,0.05015161260962486,2023-10-21T15:13:18.885782Z,1697901198885
0.04589471220970154,0.08553709834814072,0.06930766999721527,2023-10-21T15:13:18.896683Z,1697901198896
0.02979830652475357,0.08646830171346664,0.08793161064386368,2023-10-21T15:13:18.905945Z,1697901198905
0.008380773477256298,0.09285365045070648,0.12092258781194687,2023-10-21T15:13:18.917038Z,1697901198916
-0.007449576631188393,0.09125731140375137,0.13768413662910461,2023-10-21T15:13:18.929565Z,1697901198929
-0.02035330794751644,0.09019308537244797,0.1525832861661911,2023-10-21T15:13:18.937098Z,1697901198937
-0.03365612402558327,0.0872664675116539,0.16548702120780945,2023-10-21T15:13:18.946549Z,1697901198946
-0.04802316427230835,0.08141323179006577,0.17586322128772736,2023-10-21T15:13:18.957269Z,1697901198957
-0.061059921979904175,0.07369759678840637,0.18317976593971252,2023-10-21T15:13:18.966822Z,1697901198966
-0.06185809150338173,0.06451865285634995,0.1722714602947235,2023-10-21T15:13:18.979698Z,1697901198979
-0.06811041384935379,0.05334429070353508,0.17519807815551758,2023-10-21T15:13:18.987034Z,1697901198986
-0.0735645666718483,0.0438992902636528,0.17759257555007935,2023-10-21T15:13:18.998057Z,1697901198998
-0.07888569682836533,0.02354598231613636,0.1767944097518921,2023-10-21T15:13:19.007238Z,1697901199007
-0.08354167640209198,0.006252323277294636,0.1761292666196823,2023-10-21T15:13:19.018362Z,1697901199018
-0.08806463330984116,-0.021151475608348846,0.1706751137971878,2023-10-21T15:13:19.029475Z,1697901199029
-0.09977111220359802,-0.061059921979904175,0.17373476922512054,2023-10-21T15:13:19.038385Z,1697901199038
-0.09311970323324203,-0.06877555698156357,0.15617504715919495,2023-10-21T15:13:19.047949Z,1697901199047
-0.08872977644205093,-0.09351879358291626,0.14087681472301483,2023-10-21T15:13:19.058656Z,1697901199058
-0.08500499278306961,-0.11453723907470703,0.127840057015419,2023-10-21T15:13:19.068196Z,1697901199068
-0.07263337075710297,-0.12970244884490967,0.10708766430616379,2023-10-21T15:13:19.079626Z,1697901199079
-0.06212414801120758,-0.1427392065525055,0.08939491957426071,2023-10-21T15:13:19.088356Z,1697901199088
-0.04842224717140198,-0.14885850250720978,0.0697067528963089,2023-10-21T15:13:19.099371Z,1697901199099
-0.036582741886377335,-0.15404659509658813,0.052945204079151154,2023-10-21T15:13:19.108475Z,1697901199108
-0.02540837787091732,-0.1525832861661911,0.04110569879412651,2023-10-21T15:13:19.119657Z,1697901199119
-0.01569732278585434,-0.15125301480293274,0.030995558947324753,2023-10-21T15:13:19.129378Z,1697901199129
-0.013435843400657177,-0.12917032837867737,0.026472602039575577,2023-10-21T15:13:19.139737Z,1697901199139
-0.010110139846801758,-0.13289512693881989,0.027802884578704834,2023-10-21T15:13:19.149179Z,1697901199149
-0.007316548377275467,-0.13622082769870758,0.029000137001276016,2023-10-21T15:13:19.162945Z,1697901199162
-0.006252323277294636,-0.11626660823822021,0.02474323660135269,2023-10-21T15:13:19.169418Z,1697901199169
-0.005321125965565443,-0.0993720293045044,0.021151475608348846,2023-10-21T15:13:19.180337Z,1697901199180
-0.004655985161662102,-0.08487196266651154,0.018091829493641853,2023-10-21T15:13:19.189605Z,1697901199189
-0.0038578163366764784,-0.07250034064054489,0.015431265346705914,2023-10-21T15:13:19.200726Z,1697901199200
0.026605630293488503,-0.06225717440247536,0.01942211017012596,2023-10-21T15:13:19.212657Z,1697901199212
0.0526791475713253,-0.053477317094802856,0.02288084290921688,2023-10-21T15:13:19.220726Z,1697901199220
0.04496351629495621,-0.04576168581843376,0.019555138424038887,2023-10-21T15:13:19.230230Z,1697901199230
0.038445137441158295,-0.0389772467315197,0.016761546954512596,2023-10-21T15:13:19.241064Z,1697901199241
0.06159203499555588,-0.03618365898728371,0.022082673385739326,2023-10-21T15:13:19.250552Z,1697901199250
0.08154625445604324,-0.033789150416851044,0.026605630293488503,2023-10-21T15:13:19.263022Z,1697901199262
0.06957372277975082,-0.02886710874736309,0.022747814655303955,2023-10-21T15:13:19.270699Z,1697901199270
0.09325273334980011,-0.022348729893565178,0.018756968900561333,2023-10-21T15:13:19.281703Z,1697901199281
0.11347301304340363,-0.01662851870059967,0.015431265346705914,2023-10-21T15:13:19.290869Z,1697901199290
0.12943638861179352,-0.0013302814913913608,0.0035917600616812706,2023-10-21T15:13:19.302062Z,1697901199301
0.14287222921848297,0.011839505285024643,-0.0065183793194592,2023-10-21T15:13:19.312435Z,1697901199312
0.15684019029140472,0.031261615455150604,-0.020220279693603516,2023-10-21T15:13:19.322176Z,1697901199322
0.18690454959869385,0.06265626102685928,-0.03990844637155533,2023-10-21T15:13:19.331520Z,1697901199331
0.19741377234458923,0.0862022414803505,-0.05108281224966049,2023-10-21T15:13:19.345993Z,1697901199345
0.20925328135490417,0.11200970411300659,-0.0614590048789978,2023-10-21T15:13:19.351827Z,1697901199351
0.22135885059833527,0.13821625709533691,-0.0702388659119606,2023-10-21T15:13:19.362777Z,1697901199362
0.23240017890930176,0.162959486246109,-0.07635816186666489,2023-10-21T15:13:19.372013Z,1697901199371
0.24171215295791626,0.18517518043518066,-0.07941780984401703,2023-10-21T15:13:19.383094Z,1697901199383
0.24876263737678528,0.20353306829929352,-0.0795508325099945,2023-10-21T15:13:19.395887Z,1697901199395
0.25222137570381165,0.2163037806749344,-0.07689027488231659,2023-10-21T15:13:19.403123Z,1697901199403
0.23426257073879242,0.20486335456371307,-0.06944069266319275,2023-10-21T15:13:19.412541Z,1697901199412
0.23585891723632812,0.20925328135490417,-0.06544984877109528,2023-10-21T15:13:19.423357Z,1697901199423
0.23732222616672516,0.21311110258102417,-0.061991117894649506,2023-10-21T15:13:19.432894Z,1697901199432
0.2398497611284256,0.21098265051841736,-0.05839935690164566,2023-10-21T15:13:19.446337Z,1697901199446
0.2419782131910324,0.20925328135490417,-0.055339712649583817,2023-10-21T15:13:19.453193Z,1697901199453
0.24384060502052307,0.2003403902053833,-0.051348865032196045,2023-10-21T15:13:19.464097Z,1697901199464
0.2453039139509201,0.19275778532028198,-0.04802316427230835,2023-10-21T15:13:19.473321Z,1697901199473
0.2540837824344635,0.18317976593971252,-0.04642682522535324,2023-10-21T15:13:19.484407Z,1697901199484
0.28401511907577515,0.181583434343338,-0.0482892207801342,2023-10-21T15:13:19.495409Z,1697901199495
0.28680869936943054,0.16588610410690308,-0.04842224717140198,2023-10-21T15:13:19.504408Z,1697901199504
0.28773990273475647,0.14752821624279022,-0.04961949959397316,2023-10-21T15:13:19.513931Z,1697901199513
0.2869417369365692,0.12704189121723175,-0.05148189514875412,2023-10-21T15:13:19.524717Z,1697901199524
0.28454720973968506,0.10522526502609253,-0.05307823419570923,2023-10-21T15:13:19.534229Z,1697901199534
0.28135454654693604,0.08433984965085983,-0.05440851300954819,2023-10-21T15:13:19.546019Z,1697901199545
0.2591388523578644,0.06904160976409912,-0.05094978213310242,2023-10-21T15:13:19.554465Z,1697901199554
0.25873976945877075,0.05427548661828041,-0.052945204079151154,2023-10-21T15:13:19.565455Z,1697901199565
0.2584736943244934,0.041637811809778214,-0.05467456951737404,2023-10-21T15:13:19.574578Z,1697901199574
0.25434982776641846,0.03432126343250275,-0.05520668253302574,2023-10-21T15:13:19.585691Z,1697901199585
0.25102412700653076,0.028201967477798462,-0.05560576915740967,2023-10-21T15:13:19.595624Z,1697901199595
0.24556997418403625,0.030064363032579422,-0.05547273904085159,2023-10-21T15:13:19.605725Z,1697901199605
0.240913987159729,0.03166069835424423,-0.05547273904085159,2023-10-21T15:13:19.615265Z,1697901199615
0.2349277138710022,0.04230295121669769,-0.05374337360262871,2023-10-21T15:13:19.629573Z,1697901199629
0.22973962128162384,0.051348865032196045,-0.05241309106349945,2023-10-21T15:13:19.635498Z,1697901199635
0.22202397882938385,0.06691315770149231,-0.04416534677147865,2023-10-21T15:13:19.646604Z,1697901199646
0.21537257730960846,0.08021597564220428,-0.03698182478547096,2023-10-21T15:13:19.655719Z,1697901199655
0.18397793173789978,0.06850949674844742,-0.03166069835424423,2023-10-21T15:13:19.666830Z,1697901199666
0.1799870878458023,0.10070230811834335,-0.004655985161662102,2023-10-21T15:13:19.679324Z,1697901199679
0.17652836441993713,0.12823913991451263,0.01849091239273548,2023-10-21T15:13:19.686854Z,1697901199686
0.14885850250720978,0.13568872213363647,0.04456442967057228,2023-10-21T15:13:19.696298Z,1697901199696
0.1251794844865799,0.14207406342029572,0.06678013503551483,2023-10-21T15:13:19.707030Z,1697901199707
0.09963808953762054,0.14739519357681274,0.0877985805273056,2023-10-21T15:13:19.716590Z,1697901199716
0.0779544934630394,0.15205118060112,0.10562435537576675,2023-10-21T15:13:19.729153Z,1697901199729
0.06398653984069824,0.1575053334236145,0.11586751788854599,2023-10-21T15:13:19.736787Z,1697901199736
0.0521470345556736,0.16216132044792175,0.12464737892150879,2023-10-21T15:13:19.747762Z,1697901199747
0.0433671772480011,0.16176223754882812,0.12757399678230286,2023-10-21T15:13:19.756969Z,1697901199756
0.035917602479457855,0.1613631546497345,0.12996850907802582,2023-10-21T15:13:19.768080Z,1697901199768
0.0307295024394989,0.1378171592950821,0.11107850819826126,2023-10-21T15:13:19.778891Z,1697901199778
0.0219496451318264,0.13489054143428802,0.1185280829668045,2023-10-21T15:13:19.788116Z,1697901199788
0.014500068500638008,0.13249604403972626,0.12491343170404434,2023-10-21T15:13:19.797579Z,1697901199797
0.012371618300676346,0.11307393014431,0.10668858140707016,2023-10-21T15:13:19.812054Z,1697901199812
0.01050922367721796,0.0965784415602684,0.0911242812871933,2023-10-21T15:13:19.817847Z,1697901199817
0.009045914746820927,0.08247745782136917,0.07782147079706192,2023-10-21T15:13:19.829183Z,1697901199829
0.007715632673352957,0.07050491869449615,0.0663810446858406,2023-10-21T15:13:19.838034Z,1697901199838
0.00611929502338171,0.051614921540021896,0.07994992285966873,2023-10-21T15:13:19.849126Z,1697901199849
0.004655985161662102,0.03538548946380615,0.09152337163686752,2023-10-21T15:13:19.858331Z,1697901199858
0.0039908443577587605,0.030197391286492348,0.07808752357959747,2023-10-21T15:13:19.869441Z,1697901199869
-2.6605630409903824E-4,0.011573448777198792,0.07835358381271362,2023-10-21T15:13:19.878694Z,1697901199878
-0.0039908443577587605,-0.004256900865584612,0.07861963659524918,2023-10-21T15:13:19.889455Z,1697901199889
-0.003325703786686063,-0.0037247883155941963,0.06704618781805038,2023-10-21T15:13:19.898963Z,1697901199898
-0.013169786892831326,-0.022215701639652252,0.0735645666718483,2023-10-21T15:13:19.912561Z,1697901199912
-0.021417532116174698,-0.03804605081677437,0.0790187194943428,2023-10-21T15:13:19.919173Z,1697901199919
-0.018357884138822556,-0.032458867877721786,0.06744527071714401,2023-10-21T15:13:19.930095Z,1697901199930
-0.02633957378566265,-0.04456442967057228,0.07489485293626785,2023-10-21T15:13:19.939374Z,1697901199939
-0.03325703740119934,-0.054807599633932114,0.08114717155694962,2023-10-21T15:13:19.950489Z,1697901199950
-0.04150478169322014,-0.0570690780878067,0.0823444277048111,2023-10-21T15:13:19.962108Z,1697901199962
-0.04855527728796005,-0.05893146991729736,0.0834086537361145,2023-10-21T15:13:19.970533Z,1697901199970
-0.04150478169322014,-0.050417669117450714,0.07130309194326401,2023-10-21T15:13:19.979911Z,1697901199979
-0.051348865032196045,-0.048156190663576126,0.07915174961090088,2023-10-21T15:13:19.990816Z,1697901199990
-0.05986266955733299,-0.04616076871752739,0.08593618869781494,2023-10-21T15:13:20.000243Z,1697901200000
-0.06465168297290802,-0.04017450287938118,0.08407378941774368,2023-10-21T15:13:20.012499Z,1697901200012
-0.06877555698156357,-0.0351194329559803,0.08247745782136917,2023-10-21T15:13:20.020509Z,1697901200020
-0.05879844352602959,-0.029931334778666496,0.07037189602851868,2023-10-21T15:13:20.031526Z,1697901200031
-0.06611499190330505,-0.02288084290921688,0.06890857964754105,2023-10-21T15:13:20.040744Z,1697901200040
-0.07236731797456741,-0.016894575208425522,0.06771133095026016,2023-10-21T15:13:20.051826Z,1697901200051
-0.06185809150338173,-0.014367040246725082,0.05773421749472618,2023-10-21T15:13:20.062061Z,1697901200062
-0.05281217768788338,-0.012371618300676346,0.04935344308614731,2023-10-21T15:13:20.071828Z,1697901200071
-0.06159203499555588,-0.009977111592888832,0.04842224717140198,2023-10-21T15:13:20.081319Z,1697901200081
-0.06904160976409912,-0.007981688715517521,0.04762407764792442,2023-10-21T15:13:20.095904Z,1697901200095
-0.05893146991729736,-0.006784435827285051,0.04070661589503288,2023-10-21T15:13:20.101606Z,1697901200101
-0.05028464272618294,-0.005853238515555859,0.034720346331596375,2023-10-21T15:13:20.112544Z,1697901200112
-0.04296809434890747,-0.004922041669487953,0.029665278270840645,2023-10-21T15:13:20.121867Z,1697901200121
-0.03671576827764511,-0.004256900865584612,0.025275349617004395,2023-10-21T15:13:20.132853Z,1697901200132
-0.03139464557170868,-0.0035917600616812706,0.02168358862400055,2023-10-21T15:13:20.145248Z,1697901200145
-0.03804605081677437,-0.034986402839422226,0.012504646554589272,2023-10-21T15:13:20.153024Z,1697901200152
-0.0438992902636528,-0.06185809150338173,0.004655985161662102,2023-10-21T15:13:20.162385Z,1697901200162
-0.037513937801122665,-0.05281217768788338,0.0039908443577587605,2023-10-21T15:13:20.173158Z,1697901200173
-0.03205978497862816,-0.045096542686223984,0.0034587320405989885,2023-10-21T15:13:20.182651Z,1697901200182
-0.024078095331788063,-0.05720210447907448,-0.020619364455342293,2023-10-21T15:13:20.195764Z,1697901200195
-0.017426688224077225,-0.06757830083370209,-0.04110569879412651,2023-10-21T15:13:20.202842Z,1697901200202
-0.014899153262376785,-0.05773421749472618,-0.0351194329559803,2023-10-21T15:13:20.213850Z,1697901200213
5.321126081980765E-4,-0.042835064232349396,-0.04655985161662102,2023-10-21T15:13:20.223122Z,1697901200223
0.013568871654570103,-0.030064363032579422,-0.05627090856432915,2023-10-21T15:13:20.234160Z,1697901200234
0.011573448777198792,-0.025674432516098022,-0.048156190663576126,2023-10-21T15:13:20.245312Z,1697901200245
0.009977111592888832,-0.0219496451318264,-0.04110569879412651,2023-10-21T15:13:20.254253Z,1697901200254
0.01569732278585434,-0.0038578163366764784,-0.04310112074017525,2023-10-21T15:13:20.263694Z,1697901200263
0.020486336201429367,0.011573448777198792,-0.044697459787130356,2023-10-21T15:13:20.274492Z,1697901200274
0.01755971647799015,0.009844083338975906,-0.03817908093333244,2023-10-21T15:13:20.284016Z,1697901200283
0.015032181516289711,0.008380773477256298,-0.03259189799427986,2023-10-21T15:13:20.295647Z,1697901200295
0.012770703062415123,0.007183520123362541,-0.027802884578704834,2023-10-21T15:13:20.304103Z,1697901200304
0.010908308438956738,0.00611929502338171,-0.02381203882396221,2023-10-21T15:13:20.315244Z,1697901200315
0.0027935912366956472,0.009977111592888832,0.001064225216396153,2023-10-21T15:13:20.324360Z,1697901200324
-0.004256900865584612,0.013302815146744251,0.022215701639652252,2023-10-21T15:13:20.335504Z,1697901200335
-0.0035917600616812706,0.01144042145460844,0.019023025408387184,2023-10-21T15:13:20.345070Z,1697901200345
-0.003059647511690855,0.00971105508506298,0.016229433938860893,2023-10-21T15:13:20.355493Z,1697901200355
-0.0026605629827827215,0.008380773477256298,0.013834928162395954,2023-10-21T15:13:20.365029Z,1697901200364
-0.0022614786867052317,0.0070504918694496155,0.011839505285024643,2023-10-21T15:13:20.378634Z,1697901200378
-0.010376195423305035,-0.007183520123362541,0.02540837787091732,2023-10-21T15:13:20.385236Z,1697901200385
-0.0172936599701643,-0.019289081916213036,0.03711485490202904,2023-10-21T15:13:20.397771Z,1697901200397
-0.01476612500846386,-0.016495490446686745,0.03166069835424423,2023-10-21T15:13:20.405524Z,1697901200405
-0.012637674808502197,-0.014100983738899231,0.02700471505522728,2023-10-21T15:13:20.416561Z,1697901200416
-0.010775280185043812,-0.011972533538937569,0.023146897554397583,2023-10-21T15:13:20.428411Z,1697901200428
-0.009178942069411278,-0.010243168100714684,0.019688166677951813,2023-10-21T15:13:20.436656Z,1697901200436
-0.00784866139292717,-0.008779858238995075,0.016894575208425522,2023-10-21T15:13:20.446050Z,1697901200446
0.005454154219478369,-0.01849091239273548,0.021151475608348846,2023-10-21T15:13:20.456871Z,1697901200456
0.016761546954512596,-0.026738658547401428,0.024876264855265617,2023-10-21T15:13:20.466384Z,1697901200466
0.014234011992812157,-0.022747814655303955,0.021284503862261772,2023-10-21T15:13:20.478594Z,1697901200478
0.01223859004676342,-0.01942211017012596,0.01822485774755478,2023-10-21T15:13:20.486529Z,1697901200486
0.010376195423305035,-0.01662851870059967,0.01556429360061884,2023-10-21T15:13:20.497606Z,1697901200497
0.008912886492908001,-0.014234011992812157,0.013302815146744251,2023-10-21T15:13:20.506733Z,1697901200506
0.007582604885101318,-0.012105561792850494,0.011307393200695515,2023-10-21T15:13:20.517915Z,1697901200517
0.0065183793194592,-0.010376195423305035,0.00971105508506298,2023-10-21T15:13:20.528601Z,1697901200528
0.0055871824733912945,-0.008912886492908001,0.008247745223343372,2023-10-21T15:13:20.537907Z,1697901200537
0.0047890134155750275,-0.007582604885101318,0.0070504918694496155,2023-10-21T15:13:20.547380Z,1697901200547
0.0039908443577587605,-0.0065183793194592,0.005986266769468784,2023-10-21T15:13:20.558166Z,1697901200558
0.0034587320405989885,-0.005454154219478369,0.005188097711652517,2023-10-21T15:13:20.567744Z,1697901200567
0.0029266192577779293,-0.004655985161662102,0.004389929119497538,2023-10-21T15:13:20.578988Z,1697901200578
0.0477571077644825,0.027403799816966057,0.030064363032579422,2023-10-21T15:13:20.587864Z,1697901200587
0.08606921136379242,0.054807599633932114,0.05201400816440582,2023-10-21T15:13:20.598984Z,1697901200598
0.07343153655529022,0.04682590812444687,0.044431403279304504,2023-10-21T15:13:20.612005Z,1697901200611
0.06278929114341736,0.040041472762823105,0.03791302442550659,2023-10-21T15:13:20.619018Z,1697901200618
0.07555998861789703,0.042569007724523544,0.02700471505522728,2023-10-21T15:13:20.628560Z,1697901200628
0.08646830171346664,0.044697459787130356,0.017692744731903076,2023-10-21T15:13:20.639244Z,1697901200639
0.07383062690496445,0.03817908093333244,0.015165209770202637,2023-10-21T15:13:20.648713Z,1697901200648
0.06305534392595291,0.03259189799427986,0.012903730385005474,2023-10-21T15:13:20.661947Z,1697901200661
