GYR_X,GYR_Y,GYR_Z,DATE,UNIX_TIMESTAMP
-0.0014633096288889647,0.0011972533538937569,-0.0037247883155941963,2023-10-21T15:15:49.046103Z,1697901349046
0.0031926757656037807,-0.0014633096288889647,0.0022614786867052317,2023-10-21T15:15:49.055575Z,1697901349055
-0.0034587320405989885,-0.0017293660202994943,-1.3302815204951912E-4,2023-10-21T15:15:49.066417Z,1697901349066
-9.311970788985491E-4,0.0035917600616812706,0.0039908443577587605,2023-10-21T15:15:49.075719Z,1697901349075
-0.0038578163366764784,-0.004389929119497538,2.6605630409903824E-4,2023-10-21T15:15:49.086626Z,1697901349086
0.004922041669487953,-0.0034587320405989885,0.004922041669487953,2023-10-21T15:15:49.096656Z,1697901349096
0.0015963378828018904,0.003059647511690855,-0.0039908443577587605,2023-10-21T15:15:49.106953Z,1697901349106
0.0027935912366956472,-0.0,5.321126081980765E-4,2023-10-21T15:15:49.117349Z,1697901349117
0.0022614786867052317,0.004522957373410463,0.0015963378828018904,2023-10-21T15:15:49.131111Z,1697901349131
-0.003059647511690855,0.0023945067077875137,-0.0015963378828018904,2023-10-21T15:15:49.136719Z,1697901349136
-0.0037247883155941963,0.004522957373410463,0.0015963378828018904,2023-10-21T15:15:49.147460Z,1697901349147
0.0022614786867052317,0.004389929119497538,-0.004123872611671686,2023-10-21T15:15:49.156880Z,1697901349156
0.0034587320405989885,-0.0038578163366764784,0.0037247883155941963,2023-10-21T15:15:49.167659Z,1697901349167
0.0011972533538937569,7.981689414009452E-4,0.001064225216396153,2023-10-21T15:15:49.179175Z,1697901349179
0.0031926757656037807,0.004389929119497538,0.0027935912366956472,2023-10-21T15:15:49.187943Z,1697901349187
0.004655985161662102,-0.0031926757656037807,0.004256900865584612,2023-10-21T15:15:49.197429Z,1697901349197
0.004922041669487953,0.0047890134155750275,-0.0027935912366956472,2023-10-21T15:15:49.208159Z,1697901349208
-0.0034587320405989885,0.0027935912366956472,0.0035917600616812706,2023-10-21T15:15:49.217707Z,1697901349217
0.0027935912366956472,-0.0022614786867052317,-0.0031926757656037807,2023-10-21T15:15:49.229186Z,1697901349229
0.004389929119497538,0.002128450432792306,-0.0,2023-10-21T15:15:49.238063Z,1697901349238
-0.0035917600616812706,-0.0022614786867052317,-2.6605630409903824E-4,2023-10-21T15:15:49.248775Z,1697901349248
0.0035917600616812706,0.0015963378828018904,-5.321126081980765E-4,2023-10-21T15:15:49.258210Z,1697901349258
-0.002128450432792306,-2.6605630409903824E-4,-0.0014633096288889647,2023-10-21T15:15:49.269041Z,1697901349268
0.0019954221788793802,0.0027935912366956472,5.321126081980765E-4,2023-10-21T15:15:49.278973Z,1697901349278
-0.003059647511690855,-0.0038578163366764784,-0.0026605629827827215,2023-10-21T15:15:49.289333Z,1697901349289
0.0015963378828018904,0.0018623941577970982,-0.0011972533538937569,2023-10-21T15:15:49.298855Z,1697901349298
7.981689414009452E-4,-0.002128450432792306,-0.0011972533538937569,2023-10-21T15:15:49.309608Z,1697901349309
0.0026605629827827215,-0.0018623941577970982,-0.0015963378828018904,2023-10-21T15:15:49.319170Z,1697901349319
-0.003325703786686063,-0.0018623941577970982,-0.004389929119497538,2023-10-21T15:15:49.331315Z,1697901349331
0.025275349617004395,0.13635385036468506,0.3480016589164734,2023-10-21T15:15:49.339389Z,1697901349339
0.04270203784108162,0.14433553814888,0.38897430896759033,2023-10-21T15:15:49.350367Z,1697901349350
0.05839935690164566,0.1497897058725357,0.4238276779651642,2023-10-21T15:15:49.359419Z,1697901349359
0.07156914472579956,0.15245026350021362,0.45030030608177185,2023-10-21T15:15:49.370726Z,1697901349370
0.08221139758825302,0.1531154066324234,0.46852514147758484,2023-10-21T15:15:49.380423Z,1697901349380
0.08952794969081879,0.15338145196437836,0.4798325300216675,2023-10-21T15:15:49.390723Z,1697901349390
0.09298668056726456,0.15444567799568176,0.48608487844467163,2023-10-21T15:15:49.400117Z,1697901349400
0.09272062033414841,0.15777139365673065,0.4907408654689789,2023-10-21T15:15:49.410913Z,1697901349410
0.08899583667516708,0.16256040334701538,0.4945986568927765,2023-10-21T15:15:49.420379Z,1697901349420
0.08128020167350769,0.16601912677288055,0.49419957399368286,2023-10-21T15:15:49.431316Z,1697901349431
0.06930766999721527,0.1652209609746933,0.48555275797843933,2023-10-21T15:15:49.440560Z,1697901349440
0.054807599633932114,0.16043195128440857,0.46892422437667847,2023-10-21T15:15:49.451645Z,1697901349451
0.04044055938720703,0.15338145196437836,0.44763973355293274,2023-10-21T15:15:49.463436Z,1697901349463
0.028201967477798462,0.14500068128108978,0.42356163263320923,2023-10-21T15:15:49.471734Z,1697901349471
0.019289081916213036,0.13568872213363647,0.3985523581504822,2023-10-21T15:15:49.481150Z,1697901349481
0.01476612500846386,0.12544554471969604,0.37567150592803955,2023-10-21T15:15:49.491941Z,1697901349491
0.01636246219277382,0.11506935209035873,0.35811179876327515,2023-10-21T15:15:49.501508Z,1697901349501
0.02540837787091732,0.10416104644536972,0.3457401692867279,2023-10-21T15:15:49.514478Z,1697901349514
0.04137175530195236,0.0911242812871933,0.33456578850746155,2023-10-21T15:15:49.521660Z,1697901349521
0.06159203499555588,0.07396364957094193,0.3187354505062103,2023-10-21T15:15:49.532664Z,1697901349532
0.06704618781805038,0.059463582932949066,0.28627657890319824,2023-10-21T15:15:49.541894Z,1697901349541
0.09032611548900604,0.032192811369895935,0.25155624747276306,2023-10-21T15:15:49.553008Z,1697901349552
0.12877124547958374,-0.0070504918694496155,0.2145744115114212,2023-10-21T15:15:49.563913Z,1697901349563
0.1459318846464157,-0.04296809434890747,0.16256040334701538,2023-10-21T15:15:49.573050Z,1697901349573
0.15657413005828857,-0.08633527159690857,0.10695463418960571,2023-10-21T15:15:49.582497Z,1697901349582
0.15684019029140472,-0.13861533999443054,0.04988555610179901,2023-10-21T15:15:49.597004Z,1697901349596
0.14353737235069275,-0.20020736753940582,-0.006784435827285051,2023-10-21T15:15:49.602769Z,1697901349602
0.11320696026086807,-0.2727077007293701,-0.06544984877109528,2023-10-21T15:15:49.614352Z,1697901349614
0.06385350972414017,-0.3567815124988556,-0.12943638861179352,2023-10-21T15:15:49.622993Z,1697901349622
-0.0035917600616812706,-0.45202967524528503,-0.20127159357070923,2023-10-21T15:15:49.634403Z,1697901349634
-0.08314259350299835,-0.5561907291412354,-0.27896004915237427,2023-10-21T15:15:49.643353Z,1697901349643
-0.16402371227741241,-0.6651407480239868,-0.35305672883987427,2023-10-21T15:15:49.654444Z,1697901349654
-0.2326662391424179,-0.7772834897041321,-0.4098597466945648,2023-10-21T15:15:49.663742Z,1697901349663
-0.27749672532081604,-0.892352819442749,-0.43593326210975647,2023-10-21T15:15:49.674382Z,1697901349674
-0.29173073172569275,-1.008752465248108,-0.42356163263320923,2023-10-21T15:15:49.683822Z,1697901349683
-0.27137744426727295,-1.122890591621399,-0.37061643600463867,2023-10-21T15:15:49.697536Z,1697901349697
-0.2168358862400055,-1.2329049110412598,-0.285478413105011,2023-10-21T15:15:49.704057Z,1697901349704
-0.13848230242729187,-1.343318223953247,-0.1904963105916977,2023-10-21T15:15:49.715072Z,1697901349715
-0.05627090856432915,-1.4575895071029663,-0.11480329185724258,2023-10-21T15:15:49.724320Z,1697901349724
0.010376195423305035,-1.5738561153411865,-0.07941780984401703,2023-10-21T15:15:49.735350Z,1697901349735
0.052280064672231674,-1.6886593103408813,-0.09045914560556412,2023-10-21T15:15:49.747005Z,1697901349746
0.07236731797456741,-1.799604892730713,-0.13861533999443054,2023-10-21T15:15:49.755486Z,1697901349755
0.0784866064786911,-1.9068255424499512,-0.20606060326099396,2023-10-21T15:15:49.764858Z,1697901349764
0.07689027488231659,-2.0112526416778564,-0.2760334014892578,2023-10-21T15:15:49.775664Z,1697901349775
0.07250034064054489,-2.1120879650115967,-0.337492436170578,2023-10-21T15:15:49.785178Z,1697901349785
0.07210125774145126,-2.205739736557007,-0.3835201561450958,2023-10-21T15:15:49.797442Z,1697901349797
0.08154625445604324,-2.286221742630005,-0.4098597466945648,2023-10-21T15:15:49.805390Z,1697901349805
0.09870688617229462,-2.3528690338134766,-0.42010289430618286,2023-10-21T15:15:49.816384Z,1697901349816
0.11041336506605148,-2.408740758895874,-0.4264882504940033,2023-10-21T15:15:49.825544Z,1697901349825
0.10083533823490143,-2.456098794937134,-0.4440479576587677,2023-10-21T15:15:49.836678Z,1697901349836
0.05866541340947151,-2.497337579727173,-0.4835573434829712,2023-10-21T15:15:49.846780Z,1697901349846
-0.017160631716251373,-2.5335211753845215,-0.5472778081893921,2023-10-21T15:15:49.856748Z,1697901349856
-0.11679871380329132,-2.5638515949249268,-0.6286910176277161,2023-10-21T15:15:49.866225Z,1697901349866
-0.22867539525032043,-2.5875306129455566,-0.7202144265174866,2023-10-21T15:15:49.880529Z,1697901349880
-0.3441438376903534,-2.6056225299835205,-0.8174579739570618,2023-10-21T15:15:49.886530Z,1697901349886
-0.45735079050064087,-2.6211867332458496,-0.9188254475593567,2023-10-21T15:15:49.897389Z,1697901349897
-0.5616448521614075,-2.6355538368225098,-1.0229865312576294,2023-10-21T15:15:49.906663Z,1697901349906
-0.6499755382537842,-2.647393226623535,-1.1280786991119385,2023-10-21T15:15:49.917740Z,1697901349917
-0.7180859446525574,-2.6545767784118652,-1.234634280204773,2023-10-21T15:15:49.929968Z,1697901349929
-0.7623843550682068,-2.653379440307617,-1.3446485996246338,2023-10-21T15:15:49.937847Z,1697901349937
-0.7808752655982971,-2.6404757499694824,-1.4607821702957153,2023-10-21T15:15:49.947212Z,1697901349947
-0.7731596231460571,-2.6152005195617676,-1.586094617843628,2023-10-21T15:15:49.958036Z,1697901349958
-0.736842930316925,-2.576622247695923,-1.7215173244476318,2023-10-21T15:15:49.967537Z,1697901349967
-0.6648747324943542,-2.520883560180664,-1.8635914325714111,2023-10-21T15:15:49.980158Z,1697901349980
-0.5464796423912048,-2.4414656162261963,-2.004601240158081,2023-10-21T15:15:49.987770Z,1697901349987
-0.37341001629829407,-2.3329145908355713,-2.1331064701080322,2023-10-21T15:15:49.998794Z,1697901349998
-0.14965666830539703,-2.1985561847686768,-2.236868381500244,2023-10-21T15:15:50.008002Z,1697901350007
0.10748674720525742,-2.0499637126922607,-2.305777072906494,2023-10-21T15:15:50.019069Z,1697901350019
0.3714146018028259,-1.905096173286438,-2.3303871154785156,2023-10-21T15:15:50.029921Z,1697901350029
0.6147230863571167,-1.7811139822006226,-2.3031163215637207,2023-10-21T15:15:50.039091Z,1697901350039
0.8161277174949646,-1.6921180486679077,-2.218909502029419,2023-10-21T15:15:50.048567Z,1697901350048
0.9624586701393127,-1.6494160890579224,-2.0784318447113037,2023-10-21T15:15:50.059425Z,1697901350059
1.0483949184417725,-1.6564666032791138,-1.8893988132476807,2023-10-21T15:15:50.068845Z,1697901350068
1.0715417861938477,-1.7112741470336914,-1.6648473739624023,2023-10-21T15:15:50.080222Z,1697901350080
1.028174638748169,-1.8141049146652222,-1.4256627559661865,2023-10-21T15:15:50.089023Z,1697901350088
0.9136373400688171,-1.9693487882614136,-1.1957900524139404,2023-10-21T15:15:50.100043Z,1697901350100
0.7228749990463257,-2.18684983253479,-0.9967799186706543,2023-10-21T15:15:50.109193Z,1697901350109
0.44803881645202637,-2.4825713634490967,-0.8439306020736694,2023-10-21T15:15:50.120401Z,1697901350120
0.08500499278306961,-2.870880603790283,-0.7430952787399292,2023-10-21T15:15:50.129860Z,1697901350129
-0.36276775598526,-3.3573644161224365,-0.692810595035553,2023-10-21T15:15:50.140429Z,1697901350140
-0.8835729956626892,-3.939894676208496,-0.6868243217468262,2023-10-21T15:15:50.149921Z,1697901350149
-1.4590528011322021,-4.6082282066345215,-0.7163565754890442,2023-10-21T15:15:50.163584Z,1697901350163
-2.0429134368896484,-5.073826789855957,-0.7658430933952332,2023-10-21T15:15:50.170154Z,1697901350170
-2.620255470275879,-5.717283725738525,-0.8197194933891296,2023-10-21T15:15:50.181105Z,1697901350181
-3.173386573791504,-6.354355812072754,-0.864150881767273,2023-10-21T15:15:50.190350Z,1697901350190
-3.715742349624634,-7.002469062805176,-0.8919537663459778,2023-10-21T15:15:50.201443Z,1697901350201
-4.2781853675842285,-7.695545673370361,-0.8995363712310791,2023-10-21T15:15:50.213137Z,1697901350213
-4.892110347747803,-8.46245288848877,-0.8829078674316406,2023-10-21T15:15:50.221492Z,1697901350221
-5.567760467529297,-9.293479919433594,-0.8347516655921936,2023-10-21T15:15:50.230911Z,1697901350230
-6.2620344161987305,-10.104020118713379,-0.7425631284713745,2023-10-21T15:15:50.241798Z,1697901350241
-6.873032569885254,-10.741623878479004,-0.5943697690963745,2023-10-21T15:15:50.251240Z,1697901350251
-7.289942741394043,-11.065547943115234,-0.3892403841018677,2023-10-21T15:15:50.263491Z,1697901350263
-7.443856239318848,-11.00821304321289,-0.14260618388652802,2023-10-21T15:15:50.271445Z,1697901350271
-7.330649375915527,-10.59050464630127,0.12039047479629517,2023-10-21T15:15:50.282478Z,1697901350282
-6.993422985076904,-9.889312744140625,0.3727448880672455,2023-10-21T15:15:50.291597Z,1697901350291
-6.4962968826293945,-9.000286102294922,0.5929064750671387,2023-10-21T15:15:50.302820Z,1697901350302
-5.905518531799316,-8.017739295959473,0.7686366438865662,2023-10-21T15:15:50.313022Z,1697901350312
-5.275763511657715,-7.016968727111816,0.8956785202026367,2023-10-21T15:15:50.322876Z,1697901350322
-4.6470723152160645,-6.052648067474365,0.9769587516784668,2023-10-21T15:15:50.332437Z,1697901350332
-4.046317100524902,-5.159097671508789,1.0204589366912842,2023-10-21T15:15:50.346626Z,1697901350346
-3.5808517932891846,-4.5281453132629395,1.0392159223556519,2023-10-21T15:15:50.352554Z,1697901350352
-3.061509847640991,-3.7750728130340576,1.0400141477584839,2023-10-21T15:15:50.363433Z,1697901350363
-2.6223840713500977,-3.162611246109009,1.031899333000183,2023-10-21T15:15:50.372790Z,1697901350372
-2.25376296043396,-2.6684117317199707,1.0173993110656738,2023-10-21T15:15:50.383795Z,1697901350383
-1.9392844438552856,-2.2662675380706787,0.9945184588432312,2023-10-21T15:15:50.396664Z,1697901350396
-1.6627188920974731,-1.9346283674240112,0.9608623385429382,2023-10-21T15:15:50.403961Z,1697901350403
-1.411428689956665,-1.658328890800476,0.9147015810012817,2023-10-21T15:15:50.413324Z,1697901350413
-1.17729914188385,-1.4267269372940063,0.8549719452857971,2023-10-21T15:15:50.424176Z,1697901350424
-0.9578027129173279,-1.2315746545791626,0.7815403938293457,2023-10-21T15:15:50.433639Z,1697901350433
-0.751875102519989,-1.065023422241211,0.6960033178329468,2023-10-21T15:15:50.447027Z,1697901350446
-0.5573879480361938,-0.9153667092323303,0.6038147807121277,2023-10-21T15:15:50.453873Z,1697901350453
-0.3727448880672455,-0.7707651257514954,0.5130895972251892,2023-10-21T15:15:50.464798Z,1697901350464
-0.20007434487342834,-0.6239020228385925,0.43234148621559143,2023-10-21T15:15:50.474074Z,1697901350474
-0.04403231665492058,-0.47397929430007935,0.36795586347579956,2023-10-21T15:15:50.485150Z,1697901350485
0.0911242812871933,-0.32352447509765625,0.32352447509765625,2023-10-21T15:15:50.496735Z,1697901350496
0.20433124899864197,-0.17586322128772736,0.3014417886734009,2023-10-21T15:15:50.505218Z,1697901350505
0.2951894700527191,-0.038711193948984146,0.30051058530807495,2023-10-21T15:15:50.514606Z,1697901350514
0.36569440364837646,0.07822055369615555,0.31634095311164856,2023-10-21T15:15:50.525370Z,1697901350525
0.42116713523864746,0.16921180486679077,0.3412172198295593,2023-10-21T15:15:50.534916Z,1697901350534
0.46786001324653625,0.23399652540683746,0.36742374300956726,2023-10-21T15:15:50.546635Z,1697901350546
0.5102959871292114,0.2744370698928833,0.3873779773712158,2023-10-21T15:15:50.555153Z,1697901350555
0.5507365465164185,0.2923958897590637,0.3945614993572235,2023-10-21T15:15:50.566204Z,1697901350566
0.5917091965675354,0.293194055557251,0.38591468334198,2023-10-21T15:15:50.575290Z,1697901350575
0.633613109588623,0.2844142019748688,0.36463016271591187,2023-10-21T15:15:50.586500Z,1697901350586
0.674984872341156,0.27310678362846375,0.3364281952381134,2023-10-21T15:15:50.596524Z,1697901350596
0.714627206325531,0.2640608847141266,0.3058317303657532,2023-10-21T15:15:50.606514Z,1697901350606
0.7529393434524536,0.26100122928619385,0.2761664390563965,2023-10-21T15:15:50.615942Z,1697901350615
0.788723886013031,0.26632237434387207,0.25155624747276306,2023-10-21T15:15:50.630048Z,1697901350630
0.8177240490913391,0.2782948911190033,0.2365240603685379,2023-10-21T15:15:50.636219Z,1697901350636
0.8346186280250549,0.2902674376964569,0.2338634878396988,2023-10-21T15:15:50.647313Z,1697901350647
0.8363479971885681,0.29505643248558044,0.24437271058559418,2023-10-21T15:15:50.656371Z,1697901350656
0.8226460814476013,0.28840503096580505,0.2672535479068756,2023-10-21T15:15:50.667535Z,1697901350667
0.7957744002342224,0.270712286233902,0.3006436228752136,2023-10-21T15:15:50.679268Z,1697901350679
0.7582604885101318,0.24277637898921967,0.34161630272865295,2023-10-21T15:15:50.687487Z,1697901350687
0.7143611907958984,0.20712482929229736,0.38591468334198,2023-10-21T15:15:50.696966Z,1697901350696
0.6685994863510132,0.166817307472229,0.4292818605899811,2023-10-21T15:15:50.707767Z,1697901350707
0.6249662637710571,0.12504646182060242,0.4675939679145813,2023-10-21T15:15:50.717277Z,1697901350717
0.5853238701820374,0.08473893254995346,0.4984564781188965,2023-10-21T15:15:50.729860Z,1697901350729
0.5498053431510925,0.04549562931060791,0.5212042927742004,2023-10-21T15:15:50.737498Z,1697901350737
0.5176125168800354,0.005188097711652517,0.5374337434768677,2023-10-21T15:15:50.748518Z,1697901350748
0.48861241340637207,-0.0389772467315197,0.5492732524871826,2023-10-21T15:15:50.757694Z,1697901350757
0.4614746570587158,-0.08952794969081879,0.5588512420654297,2023-10-21T15:15:50.768803Z,1697901350768
0.4347360134124756,-0.1476612538099289,0.566832959651947,2023-10-21T15:15:50.779602Z,1697901350779
0.4071991741657257,-0.2129780650138855,0.5722870826721191,2023-10-21T15:15:50.788858Z,1697901350788
0.38006141781806946,-0.2820196747779846,0.5728192329406738,2023-10-21T15:15:50.798308Z,1697901350798
0.35545122623443604,-0.3485337495803833,0.5672320127487183,2023-10-21T15:15:50.809041Z,1697901350809
0.33509790897369385,-0.4060019254684448,0.5553925633430481,2023-10-21T15:15:50.818614Z,1697901350818
0.31913453340530396,-0.45096543431282043,0.5383649468421936,2023-10-21T15:15:50.829624Z,1697901350829
0.30662989616394043,-0.4830252230167389,0.5174795389175415,2023-10-21T15:15:50.838765Z,1697901350838
0.29625368118286133,-0.5033785104751587,0.49419957399368286,2023-10-21T15:15:50.849852Z,1697901350849
0.2881389856338501,-0.5130895972251892,0.4691902995109558,2023-10-21T15:15:50.858904Z,1697901350858
0.2832169234752655,-0.5144198536872864,0.4423186182975769,2023-10-21T15:15:50.870107Z,1697901350870
0.28241875767707825,-0.5098969340324402,0.4127863645553589,2023-10-21T15:15:50.879326Z,1697901350879
0.2849462926387787,-0.5025803446769714,0.3803274929523468,2023-10-21T15:15:50.890210Z,1697901350890
0.28946927189826965,-0.49486473202705383,0.3452080488204956,2023-10-21T15:15:50.899639Z,1697901350899
0.2951894700527191,-0.48754817247390747,0.3090243935585022,2023-10-21T15:15:50.912979Z,1697901350912
0.3006436228752136,-0.48169493675231934,0.27417102456092834,2023-10-21T15:15:50.919866Z,1697901350919
0.30277207493782043,-0.47876831889152527,0.24397362768650055,2023-10-21T15:15:50.930894Z,1697901350930
0.3001115024089813,-0.4791674017906189,0.22268912196159363,2023-10-21T15:15:50.940077Z,1697901350940
0.293194055557251,-0.4823600649833679,0.21257898211479187,2023-10-21T15:15:50.951181Z,1697901350951
0.28295087814331055,-0.4884793758392334,0.21377624571323395,2023-10-21T15:15:50.962398Z,1697901350962
0.26871687173843384,-0.49872255325317383,0.2245515137910843,2023-10-21T15:15:50.971215Z,1697901350971
0.252088338136673,-0.5136216878890991,0.24118003249168396,2023-10-21T15:15:50.980648Z,1697901350980
0.2375882863998413,-0.530915379524231,0.2590058147907257,2023-10-21T15:15:50.991451Z,1697901350991
0.2294735610485077,-0.5475438833236694,0.27310678362846375,2023-10-21T15:15:51.000974Z,1697901351000
0.22787722945213318,-0.5620439648628235,0.27842792868614197,2023-10-21T15:15:51.012862Z,1697901351012
0.23173503577709198,-0.5738834738731384,0.27137744426727295,2023-10-21T15:15:51.021128Z,1697901351021
0.24131307005882263,-0.5821312069892883,0.25009292364120483,2023-10-21T15:15:51.032203Z,1697901351032
0.2579415738582611,-0.5858559608459473,0.21497349441051483,2023-10-21T15:15:51.041323Z,1697901351041
0.28228574991226196,-0.5851908326148987,0.16761547327041626,2023-10-21T15:15:51.052458Z,1697901351052
0.3134143352508545,-0.5821312069892883,0.11147759109735489,2023-10-21T15:15:51.062512Z,1697901351062
0.3474695384502411,-0.5814660787582397,0.051348865032196045,2023-10-21T15:15:51.072487Z,1697901351072
0.3785981237888336,-0.5890486836433411,-0.007449576631188393,2023-10-21T15:15:51.082009Z,1697901351081
0.4029422700405121,-0.6094019412994385,-0.05986266955733299,2023-10-21T15:15:51.096278Z,1697901351096
0.41970381140708923,-0.6437232494354248,-0.10309682041406631,2023-10-21T15:15:51.102263Z,1697901351102
0.4307451546192169,-0.6908152103424072,-0.1378171592950821,2023-10-21T15:15:51.113182Z,1697901351113
0.43872684240341187,-0.7477512359619141,-0.16708335280418396,2023-10-21T15:15:51.122462Z,1697901351122
0.44471311569213867,-0.8112056851387024,-0.19515229761600494,2023-10-21T15:15:51.133544Z,1697901351133
0.44857093691825867,-0.8765224814414978,-0.22628088295459747,2023-10-21T15:15:51.145871Z,1697901351145
0.45096543431282043,-0.937715470790863,-0.2644599676132202,2023-10-21T15:15:51.153572Z,1697901351153
0.4550893008708954,-0.9877340197563171,-0.31301525235176086,2023-10-21T15:15:51.163043Z,1697901351163
0.4638691544532776,-1.0213901996612549,-0.37287789583206177,2023-10-21T15:15:51.173892Z,1697901351173
0.477970153093338,-1.0354911088943481,-0.4417864978313446,2023-10-21T15:15:51.183378Z,1697901351183
0.4963280260562897,-1.0284405946731567,-0.5165483355522156,2023-10-21T15:15:51.196124Z,1697901351196
0.5185437202453613,-0.9989084005355835,-0.5933055877685547,2023-10-21T15:15:51.203545Z,1697901351203
0.5438190698623657,-0.9468944072723389,-0.6675352454185486,2023-10-21T15:15:51.214581Z,1697901351214
0.5702916979789734,-0.8755912780761719,-0.7344484329223633,2023-10-21T15:15:51.223775Z,1697901351223
0.5929064750671387,-0.7916505336761475,-0.7893890738487244,2023-10-21T15:15:51.234897Z,1697901351234
0.6070074439048767,-0.7023886442184448,-0.8284993171691895,2023-10-21T15:15:51.245570Z,1697901351245
0.6115304231643677,-0.6125946640968323,-0.8500499129295349,2023-10-21T15:15:51.254874Z,1697901351254
0.6095349788665771,-0.5238648653030396,-0.8548389077186584,2023-10-21T15:15:51.264362Z,1697901351264
0.6038147807121277,-0.4368644654750824,-0.8447287678718567,2023-10-21T15:15:51.275172Z,1697901351275
0.5935716032981873,-0.35425397753715515,-0.8206506967544556,2023-10-21T15:15:51.284685Z,1697901351284
0.5750806927680969,-0.2797582149505615,-0.782737672328949,2023-10-21T15:15:51.295979Z,1697901351295
0.5464796423912048,-0.2156386375427246,-0.7319208979606628,2023-10-21T15:15:51.304855Z,1697901351304
0.5093647837638855,-0.16162919998168945,-0.6712600588798523,2023-10-21T15:15:51.315866Z,1697901351315
0.45362600684165955,-0.12690885365009308,-0.5923743844032288,2023-10-21T15:15:51.325050Z,1697901351325
0.411190003156662,-0.09072519838809967,-0.5262593626976013,2023-10-21T15:15:51.336187Z,1697901351336
0.3748733401298523,-0.05986266955733299,-0.46998846530914307,2023-10-21T15:15:51.345651Z,1697901351345
0.32019877433776855,-0.05108281224966049,-0.4013459384441376,2023-10-21T15:15:51.356273Z,1697901351356
0.2735058665275574,-0.04363323375582695,-0.34268051385879517,2023-10-21T15:15:51.365716Z,1697901351365
0.23359742760658264,-0.037247881293296814,-0.2926619350910187,2023-10-21T15:15:51.379483Z,1697901351379
0.19940920174121857,-0.0691746398806572,-0.252088338136673,2023-10-21T15:15:51.386016Z,1697901351385
0.16176223754882812,-0.12597766518592834,-0.21710194647312164,2023-10-21T15:15:51.397036Z,1697901351397
0.11972533911466599,-0.1729366034269333,-0.1866385042667389,2023-10-21T15:15:51.406127Z,1697901351406
0.07915174961090088,-0.2256157398223877,-0.16282646358013153,2023-10-21T15:15:51.417388Z,1697901351417
0.037247881293296814,-0.2810884714126587,-0.1422071009874344,2023-10-21T15:15:51.428922Z,1697901351428
-0.005853238515555859,-0.3342997431755066,-0.1223858967423439,2023-10-21T15:15:51.437474Z,1697901351437
-0.050683725625276566,-0.3808596134185791,-0.10056928545236588,2023-10-21T15:15:51.446763Z,1697901351446
-0.09870688617229462,-0.4175753593444824,-0.07396364957094193,2023-10-21T15:15:51.457671Z,1697901351457
-0.15111997723579407,-0.4417864978313446,-0.04044055938720703,2023-10-21T15:15:51.467071Z,1697901351467
-0.20712482929229736,-0.45083239674568176,2.6605630409903824E-4,2023-10-21T15:15:51.479381Z,1697901351479
-0.2655241787433624,-0.4435158669948578,0.04855527728796005,2023-10-21T15:15:51.487279Z,1697901351487
-0.32405656576156616,-0.4187726080417633,0.10362893342971802,2023-10-21T15:15:51.498317Z,1697901351498
-0.3791302442550659,-0.3759375512599945,0.16322554647922516,2023-10-21T15:15:51.507551Z,1697901351507
-0.42954790592193604,-0.3162079155445099,0.22548271715641022,2023-10-21T15:15:51.519337Z,1697901351518
-0.47730499505996704,-0.24384060502052307,0.2898683547973633,2023-10-21T15:15:51.529129Z,1697901351529
-0.5239979028701782,-0.16229434311389923,0.3555842638015747,2023-10-21T15:15:51.538670Z,1697901351538
-0.5673650503158569,-0.07329851388931274,0.41957080364227295,2023-10-21T15:15:51.548227Z,1697901351548
-0.6043468713760376,0.021550560370087624,0.47783711552619934,2023-10-21T15:15:51.562544Z,1697901351562
-0.6326819062232971,0.11985836178064346,0.5267914533615112,2023-10-21T15:15:51.568371Z,1697901351568
-0.6501085758209229,0.21869827806949615,0.563241183757782,2023-10-21T15:15:51.579338Z,1697901351579
-0.655961811542511,0.31434550881385803,0.585456907749176,2023-10-21T15:15:51.588517Z,1697901351588
-0.6507737040519714,0.40161198377609253,0.5927734375,2023-10-21T15:15:51.599639Z,1697901351599
-0.6374709010124207,0.47610774636268616,0.5858559608459473,2023-10-21T15:15:51.612238Z,1697901351612
-0.6188469529151917,0.5339750051498413,0.5663008689880371,2023-10-21T15:15:51.619706Z,1697901351619
-0.5982276201248169,0.5732182860374451,0.5367686152458191,2023-10-21T15:15:51.629081Z,1697901351629
-0.5789385437965393,0.5926403999328613,0.4995207190513611,2023-10-21T15:15:51.639935Z,1697901351639
-0.5625760555267334,0.5929064750671387,0.4572177529335022,2023-10-21T15:15:51.649409Z,1697901351649
-0.5487411022186279,0.5766770243644714,0.41185516119003296,2023-10-21T15:15:51.662275Z,1697901351662
-0.5358374118804932,0.5478099584579468,0.3655613660812378,2023-10-21T15:15:51.669742Z,1697901351669
-0.5226675868034363,0.5101629495620728,0.3197996914386749,2023-10-21T15:15:51.680657Z,1697901351680
-0.5090987086296082,0.467061847448349,0.27536827325820923,2023-10-21T15:15:51.689858Z,1697901351689
-0.4955298602581024,0.4209010601043701,0.2326662391424179,2023-10-21T15:15:51.700908Z,1697901351700
-0.481827974319458,0.3732770085334778,0.19116145372390747,2023-10-21T15:15:51.712147Z,1697901351712
-0.4675939679145813,0.325918972492218,0.1497897058725357,2023-10-21T15:15:51.720958Z,1697901351720
-0.42662128806114197,0.2804233431816101,0.11972533911466599,2023-10-21T15:15:51.730425Z,1697901351730
-0.4099927544593811,0.2387855350971222,0.07210125774145126,2023-10-21T15:15:51.741244Z,1697901351741
-0.39589178562164307,0.20326702296733856,0.031527671962976456,2023-10-21T15:15:51.750696Z,1697901351750
-0.37740087509155273,0.16867969930171967,-0.018756968900561333,2023-10-21T15:15:51.762584Z,1697901351762
-0.3615705072879791,0.13914744555950165,-0.06159203499555588,2023-10-21T15:15:51.770977Z,1697901351770
-0.34893283247947693,0.1092161163687706,-0.10589040815830231,2023-10-21T15:15:51.781981Z,1697901351781
-0.3381575644016266,0.08367470651865005,-0.14367040991783142,2023-10-21T15:15:51.791067Z,1697901351791
-0.3272492587566376,0.06278929114341736,-0.17439991235733032,2023-10-21T15:15:51.802279Z,1697901351802
-0.31793728470802307,0.04496351629495621,-0.20060645043849945,2023-10-21T15:15:51.812129Z,1697901351812
-0.315010666847229,0.02953225001692772,-0.2107165902853012,2023-10-21T15:15:51.822329Z,1697901351822
-0.31261616945266724,0.01636246219277382,-0.21936342120170593,2023-10-21T15:15:51.831772Z,1697901351831
-0.31966665387153625,0.004389929119497538,-0.20712482929229736,2023-10-21T15:15:51.845664Z,1697901351845
-0.3546530604362488,-0.009578026831150055,-0.19821195304393768,2023-10-21T15:15:51.851993Z,1697901351851
-0.36183658242225647,-0.014367040246725082,-0.1673494130373001,2023-10-21T15:15:51.863031Z,1697901351863
-0.3695521950721741,-0.01662851870059967,-0.1311657577753067,2023-10-21T15:15:51.872190Z,1697901351872
-0.37793296575546265,-0.016495490446686745,-0.09152337163686752,2023-10-21T15:15:51.883331Z,1697901351883
-0.38618072867393494,-0.013701899908483028,-0.050683725625276566,2023-10-21T15:15:51.895609Z,1697901351895
-0.392965167760849,-0.007981688715517521,-0.011174364946782589,2023-10-21T15:15:51.903448Z,1697901351903
-0.39655691385269165,6.651407456956804E-4,0.024610208347439766,2023-10-21T15:15:51.912831Z,1697901351912
-0.39642390608787537,0.011839505285024643,0.054807599633932114,2023-10-21T15:15:51.923733Z,1697901351923
-0.392965167760849,0.024876264855265617,0.07822055369615555,2023-10-21T15:15:51.933140Z,1697901351933
-0.38671284914016724,0.038445137441158295,0.09351879358291626,2023-10-21T15:15:51.945190Z,1697901351945
-0.37779995799064636,0.05174795165657997,0.09963808953762054,2023-10-21T15:15:51.953333Z,1697901351953
-0.36569440364837646,0.06385350972414017,0.0965784415602684,2023-10-21T15:15:51.964366Z,1697901351964
-0.3325703740119934,0.06438562273979187,0.08606921136379242,2023-10-21T15:15:51.973551Z,1697901351973
-0.31634095311164856,0.07396364957094193,0.06771133095026016,2023-10-21T15:15:51.984692Z,1697901351984
-0.3025060296058655,0.08221139758825302,0.05188097804784775,2023-10-21T15:15:51.995433Z,1697901351995
-0.277762770652771,0.08912885934114456,0.0260735172778368,2023-10-21T15:15:52.004727Z,1697901352004
-0.2567443251609802,0.0949821025133133,0.004123872611671686,2023-10-21T15:15:52.014144Z,1697901352014
-0.23625800013542175,0.09311970323324203,-0.017027603462338448,2023-10-21T15:15:52.024842Z,1697901352024
-0.21869827806949615,0.09139034152030945,-0.0351194329559803,2023-10-21T15:15:52.034440Z,1697901352034
-0.18677152693271637,0.07808752357959747,-0.029931334778666496,2023-10-21T15:15:52.045925Z,1697901352045
-0.15950074791908264,0.06664710491895676,-0.025541406124830246,2023-10-21T15:15:52.054629Z,1697901352054
-0.17253752052783966,0.05560576915740967,-0.050417669117450714,2023-10-21T15:15:52.065737Z,1697901352065
-0.18357884883880615,0.04616076871752739,-0.07170217484235764,2023-10-21T15:15:52.074856Z,1697901352074
-0.18451005220413208,0.02421112358570099,-0.06505076587200165,2023-10-21T15:15:52.086099Z,1697901352086
-0.18530821800231934,0.005454154219478369,-0.05933055654168129,2023-10-21T15:15:52.096163Z,1697901352096
-0.18690454959869385,-0.01396795641630888,-0.05108281224966049,2023-10-21T15:15:52.106162Z,1697901352106
-0.1882348358631134,-0.030596474185585976,-0.04403231665492058,2023-10-21T15:15:52.115460Z,1697901352115
-0.18637244403362274,-0.04456442967057228,-0.03605062887072563,2023-10-21T15:15:52.129175Z,1697901352129
-0.18477609753608704,-0.056536965072155,-0.029266193509101868,2023-10-21T15:15:52.135755Z,1697901352135
-0.181583434343338,-0.06731224805116653,-0.02168358862400055,2023-10-21T15:15:52.146696Z,1697901352146
-0.1789228618144989,-0.07649118453264236,-0.015298237092792988,2023-10-21T15:15:52.155888Z,1697901352155
-0.17306962609291077,-0.08593618869781494,-0.00784866139292717,2023-10-21T15:15:52.167016Z,1697901352166
-0.16814757883548737,-0.09405090659856796,-0.0014633096288889647,2023-10-21T15:15:52.178548Z,1697901352178
-0.1630925089120865,-0.10735371708869934,0.007316548377275467,2023-10-21T15:15:52.187193Z,1697901352187
-0.15883561968803406,-0.11879414319992065,0.01476612500846386,2023-10-21T15:15:52.196508Z,1697901352196
-0.15391357243061066,-0.13528962433338165,0.023412954062223434,2023-10-21T15:15:52.207375Z,1697901352207
-0.15950074791908264,-0.16828061640262604,0.037247881293296814,2023-10-21T15:15:52.216811Z,1697901352216
-0.15630808472633362,-0.18304674327373505,0.04616076871752739,2023-10-21T15:15:52.228551Z,1697901352228
-0.15550990402698517,-0.19847799837589264,0.05627090856432915,2023-10-21T15:15:52.236938Z,1697901352236
-0.15657413005828857,-0.21377624571323395,0.06797738373279572,2023-10-21T15:15:52.248023Z,1697901352247
-0.15883561968803406,-0.22761116921901703,0.08101414144039154,2023-10-21T15:15:52.257177Z,1697901352257
-0.1613631546497345,-0.23865249752998352,0.09511512517929077,2023-10-21T15:15:52.268387Z,1697901352268
-0.162959486246109,-0.24610207974910736,0.10908308625221252,2023-10-21T15:15:52.278858Z,1697901352278
-0.16269342601299286,-0.24995990097522736,0.12172076106071472,2023-10-21T15:15:52.288458Z,1697901352288
-0.16149617731571198,-0.2512901723384857,0.13156484067440033,2023-10-21T15:15:52.297868Z,1697901352297
-0.15896864235401154,-0.2507580518722534,0.13741807639598846,2023-10-21T15:15:52.312751Z,1697901352312
-0.14579886198043823,-0.23186807334423065,0.1290373057126999,2023-10-21T15:15:52.318148Z,1697901352318
-0.13528962433338165,-0.22801025211811066,0.1229180097579956,2023-10-21T15:15:52.329056Z,1697901352329
-0.12637674808502197,-0.22481757402420044,0.11772991716861725,2023-10-21T15:15:52.338318Z,1697901352338
-0.10748674720525742,-0.21590469777584076,0.09950505942106247,2023-10-21T15:15:52.349493Z,1697901352349
-0.09125731140375137,-0.20832209289073944,0.0839407667517662,2023-10-21T15:15:52.362082Z,1697901352362
-0.07489485293626785,-0.20326702296733856,0.06398653984069824,2023-10-21T15:15:52.369442Z,1697901352369
-0.06079386547207832,-0.19887708127498627,0.046958938241004944,2023-10-21T15:15:52.378855Z,1697901352378
-0.04642682522535324,-0.20007434487342834,0.03352309390902519,2023-10-21T15:15:52.389699Z,1697901352389
-0.03418823331594467,-0.20113857090473175,0.022082673385739326,2023-10-21T15:15:52.399176Z,1697901352399
-0.02354598231613636,-0.21084962785243988,0.020885419100522995,2023-10-21T15:15:52.412549Z,1697901352412
-0.01396795641630888,-0.24251031875610352,0.025674432516098022,2023-10-21T15:15:52.419416Z,1697901352419
-0.011839505285024643,-0.255680114030838,0.03578457236289978,2023-10-21T15:15:52.430435Z,1697901352430
-0.010775280185043812,-0.2689829170703888,0.0477571077644825,2023-10-21T15:15:52.439595Z,1697901352439
-0.008912886492908001,-0.2805563807487488,0.05866541340947151,2023-10-21T15:15:52.450775Z,1697901352450
-0.005454154219478369,-0.28946927189826965,0.0658489316701889,2023-10-21T15:15:52.461732Z,1697901352461
-3.990844707004726E-4,-0.2957215905189514,0.06797738373279572,2023-10-21T15:15:52.470767Z,1697901352470
0.004655985161662102,-0.3001115024089813,0.06505076587200165,2023-10-21T15:15:52.480188Z,1697901352480
0.007582604885101318,-0.30410236120224,0.05866541340947151,2023-10-21T15:15:52.491459Z,1697901352491
0.007981688715517521,-0.3078271448612213,0.05108281224966049,2023-10-21T15:15:52.500574Z,1697901352500
0.008114716969430447,-0.3099555969238281,0.04363323375582695,2023-10-21T15:15:52.511789Z,1697901352511
0.010775280185043812,-0.30875834822654724,0.037247881293296814,2023-10-21T15:15:52.520655Z,1697901352520
0.01556429360061884,-0.3050335645675659,0.033789150416851044,2023-10-21T15:15:52.531743Z,1697901352531
0.020220279693603516,-0.3009096682071686,0.03485337644815445,2023-10-21T15:15:52.540883Z,1697901352540
0.02288084290921688,-0.2978500425815582,0.04057358577847481,2023-10-21T15:15:52.552053Z,1697901352552
0.024078095331788063,-0.29625368118286133,0.04935344308614731,2023-10-21T15:15:52.561537Z,1697901352561
0.024876264855265617,-0.29492342472076416,0.05839935690164566,2023-10-21T15:15:52.571995Z,1697901352571
0.025940489023923874,-0.2930610179901123,0.06491773575544357,2023-10-21T15:15:52.581559Z,1697901352581
0.02474323660135269,-0.2705792486667633,0.06239020451903343,2023-10-21T15:15:52.595256Z,1697901352595
0.030064363032579422,-0.2673865854740143,0.05986266955733299,2023-10-21T15:15:52.601739Z,1697901352601
0.0345873199403286,-0.2645930051803589,0.05773421749472618,2023-10-21T15:15:52.612779Z,1697901352612
0.04496351629495621,-0.25434982776641846,0.0433671772480011,2023-10-21T15:15:52.621997Z,1697901352621
0.05374337360262871,-0.24570299685001373,0.031261615455150604,2023-10-21T15:15:52.633072Z,1697901352633
0.06611499190330505,-0.23000568151474,0.0070504918694496155,2023-10-21T15:15:52.644754Z,1697901352644
0.08886280655860901,-0.22362032532691956,-0.02727077156305313,2023-10-21T15:15:52.653126Z,1697901352653
0.10216562449932098,-0.2030009627342224,-0.05307823419570923,2023-10-21T15:15:52.662574Z,1697901352662
0.11719780415296555,-0.1817164570093155,-0.0795508325099945,2023-10-21T15:15:52.673396Z,1697901352673
0.13209696114063263,-0.16069801151752472,-0.10509224236011505,2023-10-21T15:15:52.682878Z,1697901352682
0.1460649073123932,-0.14034469425678253,-0.1289042830467224,2023-10-21T15:15:52.695200Z,1697901352695
0.1597668081521988,-0.11985836178064346,-0.15018878877162933,2023-10-21T15:15:52.703051Z,1697901352703
0.17373476922512054,-0.09844083338975906,-0.168546661734581,2023-10-21T15:15:52.714138Z,1697901352714
0.1882348358631134,-0.07569301873445511,-0.18291370570659637,2023-10-21T15:15:52.723225Z,1697901352723
0.20273490250110626,-0.05201400816440582,-0.1920926570892334,2023-10-21T15:15:52.734491Z,1697901352734
0.2156386375427246,-0.02886710874736309,-0.1948862373828888,2023-10-21T15:15:52.745019Z,1697901352744
0.2250836342573166,-0.007715632673352957,-0.1899642050266266,2023-10-21T15:15:52.754461Z,1697901352754
0.2119138389825821,0.0019954221788793802,-0.17200540006160736,2023-10-21T15:15:52.763877Z,1697901352763
0.21377624571323395,0.01662851870059967,-0.15444567799568176,2023-10-21T15:15:52.778461Z,1697901352778
0.21537257730960846,0.029000137001276016,-0.1394135057926178,2023-10-21T15:15:52.784174Z,1697901352784
0.18397793173789978,0.02474323660135269,-0.11906019598245621,2023-10-21T15:15:52.795103Z,1697901352795
0.19462019205093384,0.04296809434890747,-0.095514215528965,2023-10-21T15:15:52.804343Z,1697901352804
0.2036661058664322,0.058532387018203735,-0.07529393583536148,2023-10-21T15:15:52.815518Z,1697901352815
0.17386779189109802,0.050018586218357086,-0.06425260007381439,2023-10-21T15:15:52.828069Z,1697901352828
0.18211553990840912,0.07622513175010681,-0.05307823419570923,2023-10-21T15:15:52.835537Z,1697901352835
0.18916603922843933,0.09857386350631714,-0.04363323375582695,2023-10-21T15:15:52.844909Z,1697901352844
0.18889997899532318,0.11653266102075577,-0.040307529270648956,2023-10-21T15:15:52.855701Z,1697901352855
0.18863391876220703,0.13183090090751648,-0.037513937801122665,2023-10-21T15:15:52.865251Z,1697901352865
0.18903300166130066,0.14673005044460297,-0.03112858720123768,2023-10-21T15:15:52.878407Z,1697901352878
0.1894320845603943,0.15936772525310516,-0.025674432516098022,2023-10-21T15:15:52.885444Z,1697901352885
0.16176223754882812,0.1360878050327301,-0.0219496451318264,2023-10-21T15:15:52.896483Z,1697901352896
0.17000998556613922,0.15790441632270813,-0.0023945067077875137,2023-10-21T15:15:52.905692Z,1697901352905
0.17692744731903076,0.17652836441993713,0.014234011992812157,2023-10-21T15:15:52.916761Z,1697901352916
0.15111997723579407,0.15085391700267792,0.01223859004676342,2023-10-21T15:15:52.928028Z,1697901352927
0.15950074791908264,0.15018878877162933,0.009844083338975906,2023-10-21T15:15:52.936914Z,1697901352936
0.16655124723911285,0.14965666830539703,0.007715632673352957,2023-10-21T15:15:52.946255Z,1697901352946
0.16482187807559967,0.12917032837867737,-0.021816616877913475,2023-10-21T15:15:52.956997Z,1697901352956
0.17466595768928528,0.11081244796514511,-0.0653168261051178,2023-10-21T15:15:52.966575Z,1697901352966
0.17054209113121033,0.09298668056726456,-0.09032611548900604,2023-10-21T15:15:52.978641Z,1697901352978
0.15564294159412384,0.0784866064786911,-0.09351879358291626,2023-10-21T15:15:52.986766Z,1697901352986
0.13302814960479736,0.06704618781805038,-0.07981689274311066,2023-10-21T15:15:52.997935Z,1697901352997
0.1136060431599617,0.05720210447907448,-0.06824344396591187,2023-10-21T15:15:53.006976Z,1697901353006
0.09697752445936203,0.048821330070495605,-0.058266330510377884,2023-10-21T15:15:53.018186Z,1697901353018
0.0828765407204628,0.04177083820104599,-0.049752529710531235,2023-10-21T15:15:53.028128Z,1697901353028
0.06904160976409912,0.06784436106681824,-0.014500068500638008,2023-10-21T15:15:53.038206Z,1697901353038
0.05720210447907448,0.09032611548900604,0.015431265346705914,2023-10-21T15:15:53.047592Z,1697901353047
0.044697459787130356,0.1174638569355011,0.03166069835424423,2023-10-21T15:15:53.061657Z,1697901353061
0.034055206924676895,0.14061075448989868,0.04549562931060791,2023-10-21T15:15:53.067851Z,1697901353067
0.03046344593167305,0.16056497395038605,0.044431403279304504,2023-10-21T15:15:53.078871Z,1697901353078
0.027403799816966057,0.17759257555007935,0.043500207364559174,2023-10-21T15:15:53.088138Z,1697901353088
0.01755971647799015,0.1712072342634201,0.04243598133325577,2023-10-21T15:15:53.099205Z,1697901353099
0.009178942069411278,0.16562004387378693,0.04150478169322014,2023-10-21T15:15:53.110871Z,1697901353110
-0.006252323277294636,0.14007864892482758,0.04403231665492058,2023-10-21T15:15:53.119245Z,1697901353119
-0.019555138424038887,0.11826203018426895,0.04616076871752739,2023-10-21T15:15:53.128612Z,1697901353128
-0.03644971549510956,0.0883306935429573,0.05281217768788338,2023-10-21T15:15:53.139437Z,1697901353139
-0.06372048705816269,0.05547273904085159,0.06997280567884445,2023-10-21T15:15:53.148940Z,1697901353148
-0.0818123146891594,0.03392218053340912,0.08633527159690857,2023-10-21T15:15:53.161432Z,1697901353161
-0.09923899918794632,0.01942211017012596,0.10642252117395401,2023-10-21T15:15:53.169173Z,1697901353169
-0.11533540487289429,0.013701899908483028,0.12850520014762878,2023-10-21T15:15:53.180122Z,1697901353180
-0.12930336594581604,0.017825772985816002,0.15018878877162933,2023-10-21T15:15:53.189330Z,1697901353189
-0.1399456113576889,0.031527671962976456,0.16894575953483582,2023-10-21T15:15:53.200462Z,1697901353200
-0.14752821624279022,0.05307823419570923,0.18264764547348022,2023-10-21T15:15:53.210953Z,1697901353210
-0.1531154066324234,0.08008294552564621,0.19062934815883636,2023-10-21T15:15:53.220456Z,1697901353220
-0.15737231075763702,0.11001428216695786,0.19289082288742065,2023-10-21T15:15:53.230027Z,1697901353229
-0.15936772525310516,0.14087681472301483,0.19023025035858154,2023-10-21T15:15:53.240710Z,1697901353240
-0.1597668081521988,0.17054209113121033,0.18424399197101593,2023-10-21T15:15:53.250223Z,1697901353250
-0.1597668081521988,0.19688166677951813,0.17626230418682098,2023-10-21T15:15:53.261341Z,1697901353261
-0.16109709441661835,0.21856525540351868,0.1678815335035324,2023-10-21T15:15:53.270418Z,1697901353270
-0.1646888554096222,0.23466165363788605,0.16043195128440857,2023-10-21T15:15:53.281486Z,1697901353281
-0.17107419669628143,0.24490483105182648,0.1547117382287979,2023-10-21T15:15:53.290569Z,1697901353290
-0.18025314807891846,0.2491617351770401,0.1509869545698166,2023-10-21T15:15:53.301855Z,1697901353301
-0.19129447638988495,0.2480975091457367,0.14845941960811615,2023-10-21T15:15:53.311051Z,1697901353311
-0.2024688422679901,0.2431754618883133,0.1459318846464157,2023-10-21T15:15:53.321884Z,1697901353321
-0.21204687654972076,0.23559285700321198,0.14300526678562164,2023-10-21T15:15:53.331267Z,1697901353331
-0.22042764723300934,0.22641392052173615,0.13928046822547913,2023-10-21T15:15:53.344473Z,1697901353344
-0.22907447814941406,0.2163037806749344,0.13568872213363647,2023-10-21T15:15:53.351541Z,1697901353351
-0.23891855776309967,0.20606060326099396,0.13369329273700714,2023-10-21T15:15:53.362527Z,1697901353362
-0.25049200654029846,0.19661560654640198,0.13475751876831055,2023-10-21T15:15:53.371697Z,1697901353371
-0.2633957266807556,0.19009722769260406,0.13981258869171143,2023-10-21T15:15:53.382829Z,1697901353382
-0.2772306799888611,0.18889997899532318,0.15018878877162933,2023-10-21T15:15:53.394356Z,1697901353394
-0.2907995283603668,0.1954183578491211,0.16641822457313538,2023-10-21T15:15:53.402912Z,1697901353402
-0.3030381202697754,0.21045053005218506,0.18863391876220703,2023-10-21T15:15:53.412304Z,1697901353412
-0.3128822147846222,0.23346440494060516,0.21643680334091187,2023-10-21T15:15:53.423063Z,1697901353423
-0.3204648196697235,0.2617993950843811,0.24849659204483032,2023-10-21T15:15:53.432617Z,1697901353432
-0.3260520100593567,0.2907995283603668,0.28361600637435913,2023-10-21T15:15:53.444574Z,1697901353444
-0.3309740424156189,0.31368038058280945,0.3197996914386749,2023-10-21T15:15:53.452814Z,1697901353452
-0.337093323469162,0.32192811369895935,0.35545122623443604,2023-10-21T15:15:53.463799Z,1697901353463
-0.34707045555114746,0.30716201663017273,0.39003854990005493,2023-10-21T15:15:53.473179Z,1697901353473
-0.3622356653213501,0.26472601294517517,0.4238276779651642,2023-10-21T15:15:53.484340Z,1697901353484
-0.38325411081314087,0.1942211091518402,0.45695170760154724,2023-10-21T15:15:53.494624Z,1697901353494
-0.4099927544593811,0.09910597652196884,0.4874151349067688,2023-10-21T15:15:53.504235Z,1697901353504
-0.4401901662349701,-0.013435843400657177,0.512291431427002,2023-10-21T15:15:53.513656Z,1697901353513
-0.4693233072757721,-0.13262906670570374,0.5283878445625305,2023-10-21T15:15:53.524434Z,1697901353524
-0.4923371970653534,-0.2480975091457367,0.5343740582466125,2023-10-21T15:15:53.533939Z,1697901353533
-0.5083005428314209,-0.3529236912727356,0.5302501916885376,2023-10-21T15:15:53.544846Z,1697901353544
-0.5209382176399231,-0.44471311569213867,0.5201400518417358,2023-10-21T15:15:53.554140Z,1697901353554
-0.5339750051498413,-0.522800624370575,0.5112271904945374,2023-10-21T15:15:53.565235Z,1697901353565
-0.5494062900543213,-0.5874522924423218,0.5124244689941406,2023-10-21T15:15:53.577702Z,1697901353577
-0.5673650503158569,-0.6381360292434692,0.5303832292556763,2023-10-21T15:15:53.585276Z,1697901353585
-0.5870532393455505,-0.674984872341156,0.5680302381515503,2023-10-21T15:15:53.594642Z,1697901353594
-0.6075395941734314,-0.6979987025260925,0.6250993013381958,2023-10-21T15:15:53.605451Z,1697901353605
-0.6265625953674316,-0.7066455483436584,0.6962693333625793,2023-10-21T15:15:53.614974Z,1697901353614
-0.6419938802719116,-0.7013244032859802,0.7726275324821472,2023-10-21T15:15:53.627908Z,1697901353627
-0.6529021859169006,-0.6837646961212158,0.8433985114097595,2023-10-21T15:15:53.635245Z,1697901353635
-0.6599526405334473,-0.6579572558403015,0.900467574596405,2023-10-21T15:15:53.646217Z,1697901353646
-0.6631453633308411,-0.6274937987327576,0.9383805990219116,2023-10-21T15:15:53.655469Z,1697901353655
-0.6611499190330505,-0.5946358442306519,0.9535458087921143,2023-10-21T15:15:53.666485Z,1697901353666
-0.6539663672447205,-0.5607136487960815,0.9451650381088257,2023-10-21T15:15:53.677985Z,1697901353677
-0.6438562273979187,-0.5270575284957886,0.9152336716651917,2023-10-21T15:15:53.686672Z,1697901353686
-0.6325488686561584,-0.493002325296402,0.8682747483253479,2023-10-21T15:15:53.696026Z,1697901353695
-0.6192460656166077,-0.455488383769989,0.8102744817733765,2023-10-21T15:15:53.706837Z,1697901353706
-0.6018193364143372,-0.40866249799728394,0.74868243932724,2023-10-21T15:15:53.716276Z,1697901353716
-0.578672468662262,-0.34720346331596375,0.6922785043716431,2023-10-21T15:15:53.728186Z,1697901353728
-0.549140214920044,-0.266588419675827,0.648645281791687,2023-10-21T15:15:53.736484Z,1697901353736
-0.5124244689941406,-0.16508793830871582,0.6225717663764954,2023-10-21T15:15:53.747864Z,1697901353747
-0.46905726194381714,-0.04323415085673332,0.6161863803863525,2023-10-21T15:15:53.756813Z,1697901353756
-0.4191717207431793,0.09591329842805862,0.6286910176277161,2023-10-21T15:15:53.767865Z,1697901353767
-0.36250171065330505,0.24783144891262054,0.6554297208786011,2023-10-21T15:15:53.777368Z,1697901353777
-0.29824912548065186,0.40746521949768066,0.6898840069770813,2023-10-21T15:15:53.787928Z,1697901353787
-0.22614786028862,0.5697595477104187,0.7252694964408875,2023-10-21T15:15:53.797331Z,1697901353797
-0.14832639694213867,0.7293933629989624,0.7585265040397644,2023-10-21T15:15:53.811107Z,1697901353811
-0.06850949674844742,0.8815775513648987,0.7905862927436829,2023-10-21T15:15:53.817643Z,1697901353817
0.008114716969430447,1.0221883058547974,0.8243754506111145,2023-10-21T15:15:53.828523Z,1697901353828
0.07742238789796829,1.1469687223434448,0.863219678401947,2023-10-21T15:15:53.837880Z,1697901353837
0.13595476746559143,1.2512627840042114,0.9089813828468323,2023-10-21T15:15:53.848871Z,1697901353848
0.1805192083120346,1.330547571182251,0.9620596170425415,2023-10-21T15:15:53.860720Z,1697901353860
0.21151475608348846,1.3830937147140503,1.0208580493927002,2023-10-21T15:15:53.868982Z,1697901353868
0.23120293021202087,1.4085021018981934,1.0825830698013306,2023-10-21T15:15:53.878385Z,1697901353878
0.24011582136154175,1.4083690643310547,1.1452393531799316,2023-10-21T15:15:53.889304Z,1697901353889
0.2343956083059311,1.3842909336090088,1.2086937427520752,2023-10-21T15:15:53.898649Z,1697901353898
0.20765694975852966,1.3370659351348877,1.2749418020248413,2023-10-21T15:15:53.909895Z,1697901353909
0.1575053334236145,1.2673592567443848,1.345579743385315,2023-10-21T15:15:53.918983Z,1697901353918
0.08407378941774368,1.1758358478546143,1.4202085733413696,2023-10-21T15:15:53.930042Z,1697901353929
-0.01144042145460844,1.0626288652420044,1.494571328163147,2023-10-21T15:15:53.939129Z,1697901353939
-0.1295694261789322,0.9284034967422485,1.5621496438980103,2023-10-21T15:15:53.950306Z,1697901353950
-0.270712286233902,0.7760862112045288,1.6153608560562134,2023-10-21T15:15:53.960475Z,1697901353960
-0.4302130341529846,0.6115304231643677,1.649150013923645,2023-10-21T15:15:53.970346Z,1697901353970
-0.5999569892883301,0.44311678409576416,1.6619206666946411,2023-10-21T15:15:53.979724Z,1697901353979
-0.7735586762428284,0.2792260944843292,1.654604196548462,2023-10-21T15:15:53.994381Z,1697901353994
-0.9458301663398743,0.1273079365491867,1.6306591033935547,2023-10-21T15:15:54.000046Z,1697901354000
-1.1130465269088745,-0.008513801731169224,1.5956727266311646,2023-10-21T15:15:54.010931Z,1697901354010
-1.2766711711883545,-0.1267758309841156,1.556429386138916,2023-10-21T15:15:54.020300Z,1697901354020
-1.4416260719299316,-0.2288084179162979,1.5186493396759033,2023-10-21T15:15:54.031348Z,1697901354031
-1.61469566822052,-0.31753820180892944,1.4867225885391235,2023-10-21T15:15:54.044083Z,1697901354044
-1.8026645183563232,-0.39642390608787537,1.464107871055603,2023-10-21T15:15:54.051365Z,1697901354051
-2.0112526416778564,-0.4677269756793976,1.4535986185073853,2023-10-21T15:15:54.060736Z,1697901354060
-2.242056369781494,-0.5322456359863281,1.4583876132965088,2023-10-21T15:15:54.071583Z,1697901354071
-2.490952253341675,-0.588649570941925,1.4812685251235962,2023-10-21T15:15:54.081039Z,1697901354080
-2.7508890628814697,-0.6354754567146301,1.5238374471664429,2023-10-21T15:15:54.094427Z,1697901354094
-3.012023448944092,-0.6708609461784363,1.585030436515808,2023-10-21T15:15:54.101334Z,1697901354101
-3.26025390625,-0.6933427453041077,1.6616545915603638,2023-10-21T15:15:54.112301Z,1697901354112
-3.4814798831939697,-0.7022556066513062,1.7483890056610107,2023-10-21T15:15:54.121613Z,1697901354121
-3.6649255752563477,-0.69773268699646,1.839247226715088,2023-10-21T15:15:54.132623Z,1697901354132
-3.805004119873047,-0.6815032362937927,1.9290412664413452,2023-10-21T15:15:54.143996Z,1697901354143
-3.899055242538452,-0.6556957364082336,2.0136470794677734,2023-10-21T15:15:54.152691Z,1697901354152
-3.9477434158325195,-0.6228377819061279,2.0897393226623535,2023-10-21T15:15:54.162182Z,1697901354162
-3.9553260803222656,-0.5857229828834534,2.1553220748901367,2023-10-21T15:15:54.172966Z,1697901354172
-3.9317800998687744,-0.5474108457565308,2.209597587585449,2023-10-21T15:15:54.182429Z,1697901354182
-3.8920047283172607,-0.5108280777931213,2.2532308101654053,2023-10-21T15:15:54.194479Z,1697901354194
-3.849834680557251,-0.47783711552619934,2.287818193435669,2023-10-21T15:15:54.202652Z,1697901354202
-3.814981460571289,-0.4495021402835846,2.3157541751861572,2023-10-21T15:15:54.213633Z,1697901354213
-3.7875776290893555,-0.4275524914264679,2.3385019302368164,2023-10-21T15:15:54.222829Z,1697901354222
-3.761636972427368,-0.4149148166179657,2.3568596839904785,2023-10-21T15:15:54.233983Z,1697901354233
-3.734898328781128,-0.41345149278640747,2.3728232383728027,2023-10-21T15:15:54.243834Z,1697901354243
-3.7113523483276367,-0.4219653010368347,2.390382766723633,2023-10-21T15:15:54.254036Z,1697901354254
-3.693925619125366,-0.4391259253025055,2.4144608974456787,2023-10-21T15:15:54.263499Z,1697901354263
-3.675567865371704,-0.46573156118392944,2.4469199180603027,2023-10-21T15:15:54.274278Z,1697901354274
-3.641911745071411,-0.5048418641090393,2.4854979515075684,2023-10-21T15:15:54.283722Z,1697901354283
-3.583113193511963,-0.5583191514015198,2.527268886566162,2023-10-21T15:15:54.294667Z,1697901354294
-3.4955806732177734,-0.6262965202331543,2.5686404705047607,2023-10-21T15:15:54.303973Z,1697901354303
-3.3793141841888428,-0.7065125107765198,2.6056225299835205,2023-10-21T15:15:54.314965Z,1697901354314
-3.2344465255737305,-0.7952423095703125,2.633026123046875,2023-10-21T15:15:54.327105Z,1697901354327
-3.061509847640991,-0.8871647715568542,2.6452648639678955,2023-10-21T15:15:54.335069Z,1697901354335
-2.863830089569092,-0.975495457649231,2.6367509365081787,2023-10-21T15:15:54.344450Z,1697901354344
-2.646328926086426,-1.051986575126648,2.6030948162078857,2023-10-21T15:15:54.355343Z,1697901354355
-2.4148600101470947,-1.1079914569854736,2.5411038398742676,2023-10-21T15:15:54.364786Z,1697901354364
-2.176473617553711,-1.1363264322280884,2.4502456188201904,2023-10-21T15:15:54.377251Z,1697901354377
-1.939151406288147,-1.1333998441696167,2.3329145908355713,2023-10-21T15:15:54.385071Z,1697901354385
-1.7126044034957886,-1.0984134674072266,2.1946983337402344,2023-10-21T15:15:54.395989Z,1697901354395
-1.5056126117706299,-1.0342938899993896,2.0427803993225098,2023-10-21T15:15:54.405192Z,1697901354405
-1.320969581604004,-0.9470273852348328,1.8819493055343628,2023-10-21T15:15:54.416311Z,1697901354416
-1.156546711921692,-0.8416691422462463,1.7144668102264404,2023-10-21T15:15:54.426817Z,1697901354426
-1.0107479095458984,-0.7224758863449097,1.5439246892929077,2023-10-21T15:15:54.436352Z,1697901354436
-0.8902243971824646,-0.5950348973274231,1.3776395320892334,2023-10-21T15:15:54.445819Z,1697901354445
-0.8108065724372864,-0.4698554277420044,1.228648066520691,2023-10-21T15:15:54.456568Z,1697901354456
-0.7976368069648743,-0.3704833984375,1.119032859802246,2023-10-21T15:15:54.466143Z,1697901354466
-0.8762564659118652,-0.32299235463142395,1.068615198135376,2023-10-21T15:15:54.477173Z,1697901354477
-1.0346930027008057,-0.3327034115791321,1.0702115297317505,2023-10-21T15:15:54.486432Z,1697901354486
-1.2101571559906006,-0.36902010440826416,1.0812528133392334,2023-10-21T15:15:54.497495Z,1697901354497
-1.3092631101608276,-0.36529529094696045,1.0378856658935547,2023-10-21T15:15:54.506448Z,1697901354506
-1.2652307748794556,-0.26419392228126526,0.8952794671058655,2023-10-21T15:15:54.517726Z,1697901354517
-1.0716748237609863,-0.05879844352602959,0.6538333892822266,2023-10-21T15:15:54.526849Z,1697901354526
-0.7536044716835022,0.21484047174453735,0.3420153856277466,2023-10-21T15:15:54.537688Z,1697901354537
-0.3464052975177765,0.5047088265419006,-0.0037247883155941963,2023-10-21T15:15:54.547118Z,1697901354547
0.11121153831481934,0.7674394249916077,-0.35039615631103516,2023-10-21T15:15:54.560499Z,1697901354560
0.555525541305542,0.9574036002159119,-0.6510397791862488,2023-10-21T15:15:54.567393Z,1697901354567
0.9069859385490417,1.0376195907592773,-0.8513801693916321,2023-10-21T15:15:54.578337Z,1697901354578
1.1287438869476318,1.0135414600372314,-0.9342567324638367,2023-10-21T15:15:54.587659Z,1697901354587
1.2497994899749756,0.9270731806755066,-0.9329264163970947,2023-10-21T15:15:54.598729Z,1697901354598
1.3449146747589111,0.8310268521308899,-0.908183217048645,2023-10-21T15:15:54.610093Z,1697901354610
1.4724886417388916,0.7571962475776672,-0.9028620719909668,2023-10-21T15:15:54.618752Z,1697901354618
1.6442279815673828,0.7079758048057556,-0.922816276550293,2023-10-21T15:15:54.628130Z,1697901354628
1.840976595878601,0.6748518347740173,-0.9566054344177246,2023-10-21T15:15:54.638988Z,1697901354638
2.028679370880127,0.6519709825515747,-0.9907937049865723,2023-10-21T15:15:54.648463Z,1697901354648
2.180464506149292,0.6395993828773499,-1.0197938680648804,2023-10-21T15:15:54.660447Z,1697901354660
2.2851576805114746,0.6395993828773499,-1.0446701049804688,2023-10-21T15:15:54.668719Z,1697901354668
2.348345994949341,0.6507737040519714,-1.0696793794631958,2023-10-21T15:15:54.679977Z,1697901354679
2.3917131423950195,0.6687325239181519,-1.1012070178985596,2023-10-21T15:15:54.688929Z,1697901354688
2.4406673908233643,0.689617931842804,-1.1448402404785156,2023-10-21T15:15:54.700104Z,1697901354700
2.5138330459594727,0.7117006182670593,-1.2027075290679932,2023-10-21T15:15:54.710062Z,1697901354710
2.6207876205444336,0.7347145080566406,-1.2725472450256348,2023-10-21T15:15:54.720116Z,1697901354720
2.7631278038024902,0.755998969078064,-1.3505017757415771,2023-10-21T15:15:54.729485Z,1697901354729
2.9396560192108154,0.77182936668396,-1.434043526649475,2023-10-21T15:15:54.740456Z,1697901354740
3.143322229385376,0.7791458964347839,-1.5218420028686523,2023-10-21T15:15:54.749857Z,1697901354749
3.36002516746521,0.7786137461662292,-1.6133654117584229,2023-10-21T15:15:54.760687Z,1697901354760
3.572205066680908,0.7722284197807312,-1.7103430032730103,2023-10-21T15:15:54.770023Z,1697901354769
3.7676234245300293,0.7618522047996521,-1.81636643409729,2023-10-21T15:15:54.781140Z,1697901354781
3.9565231800079346,0.7456228137016296,-1.9367568492889404,2023-10-21T15:15:54.793691Z,1697901354793
4.173359394073486,0.7174208164215088,-2.0748400688171387,2023-10-21T15:15:54.801181Z,1697901354801
4.4556450843811035,0.6715261340141296,-2.226492166519165,2023-10-21T15:15:54.810479Z,1697901354810
4.823866844177246,0.6064753532409668,-2.3804056644439697,2023-10-21T15:15:54.821386Z,1697901354821
5.031922817230225,0.5235987901687622,-2.4914841651916504,2023-10-21T15:15:54.830844Z,1697901354830
5.5270538330078125,0.4264882504940033,-2.606553554534912,2023-10-21T15:15:54.843960Z,1697901354843
6.1310014724731445,0.3192675709724426,-2.6914255619049072,2023-10-21T15:15:54.851108Z,1697901354851
6.879284858703613,0.20765694975852966,-2.7398478984832764,2023-10-21T15:15:54.862102Z,1697901354862
7.817399501800537,0.1015004813671112,-2.745568037033081,2023-10-21T15:15:54.871329Z,1697901354871
8.960111618041992,0.020486336201429367,-2.701136589050293,2023-10-21T15:15:54.882431Z,1697901354882
10.231993675231934,-0.009311970323324203,-2.603360891342163,2023-10-21T15:15:54.893523Z,1697901354893
11.438958168029785,0.027802884578704834,-2.4630162715911865,2023-10-21T15:15:54.902480Z,1697901354902
12.300714492797852,0.11866111308336258,-2.3052449226379395,2023-10-21T15:15:54.911853Z,1697901354911
12.594040870666504,0.22202397882938385,-2.1557211875915527,2023-10-21T15:15:54.922717Z,1697901354922
12.27942943572998,0.29279497265815735,-2.0253536701202393,2023-10-21T15:15:54.932144Z,1697901354932
11.489242553710938,0.30809319019317627,-1.911880612373352,2023-10-21T15:15:54.943825Z,1697901354943
10.429805755615234,0.2700471580028534,-1.8101140260696411,2023-10-21T15:15:54.952391Z,1697901354952
9.276984214782715,0.1936889886856079,-1.7176594734191895,2023-10-21T15:15:54.963427Z,1697901354963
8.144648551940918,0.095514215528965,-1.6349159479141235,2023-10-21T15:15:54.972528Z,1697901354972
7.09173059463501,-0.011573448777198792,-1.5625486373901367,2023-10-21T15:15:54.983695Z,1697901354983
6.126611709594727,-0.12251892685890198,-1.4976309537887573,2023-10-21T15:15:54.993489Z,1697901354993
5.218561172485352,-0.2393176406621933,-1.434309482574463,2023-10-21T15:15:55.003732Z,1697901355003
4.48171854019165,-0.36742374300956726,-1.3693917989730835,2023-10-21T15:15:55.013210Z,1697901355013
3.478952169418335,-0.5075023770332336,-1.283721685409546,2023-10-21T15:15:55.027276Z,1697901355027
2.498002529144287,-0.6534342765808105,-1.1784963607788086,2023-10-21T15:15:55.033457Z,1697901355033
1.5669386386871338,-0.793645977973938,-1.0545141696929932,2023-10-21T15:15:55.044328Z,1697901355044
0.7267327904701233,-0.915100634098053,-0.9189584851264954,2023-10-21T15:15:55.053666Z,1697901355053
0.011307393200695515,-1.0075552463531494,-0.781407356262207,2023-10-21T15:15:55.064716Z,1697901355064
-0.5589842796325684,-1.0662206411361694,-0.6517049074172974,2023-10-21T15:15:55.076880Z,1697901355076
-0.9768257141113281,-1.0902987718582153,-0.5370346307754517,2023-10-21T15:15:55.084830Z,1697901355084
-1.2503316402435303,-1.0823169946670532,-0.4403231739997864,2023-10-21T15:15:55.094228Z,1697901355094
-1.4022496938705444,-1.0470645427703857,-0.36090537905693054,2023-10-21T15:15:55.105053Z,1697901355105
-1.4674335718154907,-0.9905276298522949,-0.29492342472076416,2023-10-21T15:15:55.114503Z,1697901355114
-1.4782087802886963,-0.9185593724250793,-0.2377213090658188,2023-10-21T15:15:55.127212Z,1697901355127
-1.455461025238037,-0.8362149596214294,-0.18623940646648407,2023-10-21T15:15:55.134803Z,1697901355134
-1.4093002080917358,-0.7484163641929626,-0.14021167159080505,2023-10-21T15:15:55.145866Z,1697901355145
-1.3447816371917725,-0.6602187156677246,-0.1015004813671112,2023-10-21T15:15:55.154997Z,1697901355154
-1.2648316621780396,-0.5758788585662842,-0.07263337075710297,2023-10-21T15:15:55.166145Z,1697901355166
-1.1706477403640747,-0.49752527475357056,-0.05494062602519989,2023-10-21T15:15:55.176821Z,1697901355176
-1.065023422241211,-0.42622220516204834,-0.04868830367922783,2023-10-21T15:15:55.186176Z,1697901355186
-0.9358530640602112,-0.36369895935058594,-0.044697459787130356,2023-10-21T15:15:55.195536Z,1697901355195
-0.8278341889381409,-0.3067629039287567,-0.055738795548677444,2023-10-21T15:15:55.206364Z,1697901355206
-0.7356456518173218,-0.25820764899253845,-0.06518379598855972,2023-10-21T15:15:55.215861Z,1697901355215
-0.644122302532196,-0.21617074310779572,-0.08154625445604324,2023-10-21T15:15:55.227079Z,1697901355227
-0.5660347938537598,-0.18025314807891846,-0.09564723819494247,2023-10-21T15:15:55.236118Z,1697901355236
-0.4834243059158325,-0.15391357243061066,-0.08167928457260132,2023-10-21T15:15:55.247151Z,1697901355247
-0.425956130027771,-0.14021167159080505,-0.12065653502941132,2023-10-21T15:15:55.259903Z,1697901355259
-0.38165777921676636,-0.14260618388652802,-0.17745955288410187,2023-10-21T15:15:55.267195Z,1697901355267
-0.3337676227092743,-0.15777139365673065,-0.20406518876552582,2023-10-21T15:15:55.276548Z,1697901355276
-0.2881389856338501,-0.18557427823543549,-0.2377213090658188,2023-10-21T15:15:55.287477Z,1697901355287
-0.24237729609012604,-0.22375334799289703,-0.27749672532081604,2023-10-21T15:15:55.296876Z,1697901355296
-0.19634954631328583,-0.2693819999694824,-0.32192811369895935,2023-10-21T15:15:55.310252Z,1697901355310
-0.14992272853851318,-0.3190014958381653,-0.3698182702064514,2023-10-21T15:15:55.317144Z,1697901355317
-0.10229864716529846,-0.3676898181438446,-0.42023593187332153,2023-10-21T15:15:55.328132Z,1697901355328
-0.05361034348607063,-0.41132304072380066,-0.47344720363616943,2023-10-21T15:15:55.337406Z,1697901355337
-0.005055069923400879,-0.4468415677547455,-0.5291860103607178,2023-10-21T15:15:55.348473Z,1697901355348
0.04203689470887184,-0.47185084223747253,-0.5861220359802246,2023-10-21T15:15:55.360126Z,1697901355360
0.08553709834814072,-0.4847545921802521,-0.6411957144737244,2023-10-21T15:15:55.368535Z,1697901355368
0.12265195697546005,-0.4851536750793457,-0.6898840069770813,2023-10-21T15:15:55.377947Z,1697901355377
0.1487254798412323,-0.47384628653526306,-0.726466715335846,2023-10-21T15:15:55.388820Z,1697901355388
0.15843652188777924,-0.45375901460647583,-0.7448246479034424,2023-10-21T15:15:55.398235Z,1697901355398
0.14845941960811615,-0.42848366498947144,-0.7407007217407227,2023-10-21T15:15:55.410290Z,1697901355410
0.11866111308336258,-0.40201106667518616,-0.7136960625648499,2023-10-21T15:15:55.418435Z,1697901355418
0.09192245453596115,-0.36077234148979187,-0.6438562273979187,2023-10-21T15:15:55.429473Z,1697901355429
0.03285795450210571,-0.3440108001232147,-0.5866541266441345,2023-10-21T15:15:55.438604Z,1697901355438
-0.05174795165657997,-0.3491989076137543,-0.5451493859291077,2023-10-21T15:15:55.449818Z,1697901355449
-0.11653266102075577,-0.33789151906967163,-0.4759747385978699,2023-10-21T15:15:55.459793Z,1697901355459
-0.17772561311721802,-0.3287125527858734,-0.4117221236228943,2023-10-21T15:15:55.469824Z,1697901355469
-0.23226715624332428,-0.3209969401359558,-0.35531818866729736,2023-10-21T15:15:55.479257Z,1697901355479
-0.27909305691719055,-0.3139464259147644,-0.3090243935585022,2023-10-21T15:15:55.493609Z,1697901355493
-0.31860241293907166,-0.307295024394989,-0.2735058665275574,2023-10-21T15:15:55.499512Z,1697901355499
-0.3502631187438965,-0.3006436228752136,-0.2491617351770401,2023-10-21T15:15:55.510729Z,1697901355510
-0.3736760914325714,-0.29492342472076416,-0.23585891723632812,2023-10-21T15:15:55.519750Z,1697901355519
-0.35531818866729736,-0.2711113691329956,-0.21523955464363098,2023-10-21T15:15:55.530799Z,1697901355530
-0.3719467222690582,-0.27576735615730286,-0.22628088295459747,2023-10-21T15:15:55.542705Z,1697901355542
-0.38618072867393494,-0.2798912227153778,-0.23572587966918945,2023-10-21T15:15:55.550886Z,1697901355550
-0.3990844488143921,-0.29226285219192505,-0.25554707646369934,2023-10-21T15:15:55.560254Z,1697901355560
-0.44644248485565186,-0.33336853981018066,-0.29824912548065186,2023-10-21T15:15:55.571080Z,1697901355571
-0.4565526247024536,-0.35039615631103516,-0.30210694670677185,2023-10-21T15:15:55.580538Z,1697901355580
-0.47224992513656616,-0.37567150592803955,-0.2953225076198578,2023-10-21T15:15:55.593204Z,1697901355593
-0.49419957399368286,-0.4106579124927521,-0.2766985595226288,2023-10-21T15:15:55.600814Z,1697901355600
-0.5206722021102905,-0.45535537600517273,-0.24716630578041077,2023-10-21T15:15:55.611815Z,1697901355611
-0.5480759739875793,-0.5072363615036011,-0.21031750738620758,2023-10-21T15:15:55.621043Z,1697901355621
-0.5746816396713257,-0.5633742213249207,-0.17094117403030396,2023-10-21T15:15:55.632090Z,1697901355632
-0.6016863584518433,-0.6207093596458435,-0.13302814960479736,2023-10-21T15:15:55.642744Z,1697901355642
-0.6290901303291321,-0.6751178503036499,-0.10017019510269165,2023-10-21T15:15:55.652195Z,1697901355652
-0.6539663672447205,-0.7212786674499512,-0.07582604885101318,2023-10-21T15:15:55.661591Z,1697901355661
-0.6716591119766235,-0.753205418586731,-0.06252323091030121,2023-10-21T15:15:55.676449Z,1697901355676
-0.6784435510635376,-0.7677054405212402,-0.06159203499555588,2023-10-21T15:15:55.681901Z,1697901355681
-0.6735215187072754,-0.7658430933952332,-0.07329851388931274,2023-10-21T15:15:55.693201Z,1697901355693
-0.6587554216384888,-0.7520081400871277,-0.09684449434280396,2023-10-21T15:15:55.702188Z,1697901355702
-0.6361406445503235,-0.7303245663642883,-0.13143181800842285,2023-10-21T15:15:55.713163Z,1697901355713
-0.5776082277297974,-0.6654068231582642,-0.14034469425678253,2023-10-21T15:15:55.722293Z,1697901355722
-0.5467457175254822,-0.640929639339447,-0.19342292845249176,2023-10-21T15:15:55.733463Z,1697901355733
-0.5443512201309204,-0.6525030732154846,-0.27856093645095825,2023-10-21T15:15:55.742998Z,1697901355742
-0.48874542117118835,-0.589580774307251,-0.277762770652771,2023-10-21T15:15:55.753516Z,1697901355753
-0.46506643295288086,-0.560447633266449,-0.31088680028915405,2023-10-21T15:15:55.762907Z,1697901355762
-0.44484615325927734,-0.5355713367462158,-0.3390887677669525,2023-10-21T15:15:55.776957Z,1697901355776
-0.3799284100532532,-0.45735079050064087,-0.28960227966308594,2023-10-21T15:15:55.783247Z,1697901355783
-0.407731294631958,-0.4439149498939514,-0.3083592653274536,2023-10-21T15:15:55.794234Z,1697901355794
-0.4628049433231354,-0.4403231739997864,-0.3304419219493866,2023-10-21T15:15:55.803486Z,1697901355803
-0.4582819938659668,-0.3873779773712158,-0.2902674376964569,2023-10-21T15:15:55.814536Z,1697901355814
-0.45362600684165955,-0.3346988260746002,-0.24956081807613373,2023-10-21T15:15:55.826023Z,1697901355825
-0.4483048617839813,-0.285478413105011,-0.21178081631660461,2023-10-21T15:15:55.834599Z,1697901355834
-0.4419195353984833,-0.24184517562389374,-0.17958800494670868,2023-10-21T15:15:55.843973Z,1697901355843
-0.43380481004714966,-0.20539546012878418,-0.15351448953151703,2023-10-21T15:15:55.854839Z,1697901355854
-0.4232955873012543,-0.17599624395370483,-0.13356027007102966,2023-10-21T15:15:55.864284Z,1697901355864
-0.3868458569049835,-0.15138603746891022,-0.11600054800510406,2023-10-21T15:15:55.876780Z,1697901355876
-0.37287789583206177,-0.13901442289352417,-0.10642252117395401,2023-10-21T15:15:55.884520Z,1697901355884
-0.36090537905693054,-0.12850520014762878,-0.09830780327320099,2023-10-21T15:15:55.895585Z,1697901355895
-0.3462722897529602,-0.13635385036468506,-0.09511512517929077,2023-10-21T15:15:55.904715Z,1697901355904
-0.333634614944458,-0.14313828945159912,-0.09232153743505478,2023-10-21T15:15:55.915934Z,1697901355915
-0.318868488073349,-0.16974392533302307,-0.09764266014099121,2023-10-21T15:15:55.925941Z,1697901355925
-0.32232722640037537,-0.22468455135822296,-0.11586751788854599,2023-10-21T15:15:55.935930Z,1697901355935
-0.30596473813056946,-0.26100122928619385,-0.1295694261789322,2023-10-21T15:15:55.945352Z,1697901355945
-0.28893715143203735,-0.30157482624053955,-0.14806033670902252,2023-10-21T15:15:55.959862Z,1697901355959
-0.2712444067001343,-0.3457401692867279,-0.16947786509990692,2023-10-21T15:15:55.965583Z,1697901355965
-0.25488194823265076,-0.39429545402526855,-0.19023025035858154,2023-10-21T15:15:55.976491Z,1697901355976
-0.2426433563232422,-0.4488369822502136,-0.20712482929229736,2023-10-21T15:15:55.985818Z,1697901355985
-0.23639102280139923,-0.5105620622634888,-0.21763405203819275,2023-10-21T15:15:55.996845Z,1697901355996
-0.2365240603685379,-0.5812000036239624,-0.2206937074661255,2023-10-21T15:15:56.009205Z,1697901356009
-0.24410666525363922,-0.6622141599655151,-0.21537257730960846,2023-10-21T15:15:56.016941Z,1697901356016
-0.2590058147907257,-0.7549347877502441,-0.20233581960201263,2023-10-21T15:15:56.026324Z,1697901356026
-0.2800242602825165,-0.8577654957771301,-0.18357884883880615,2023-10-21T15:15:56.037238Z,1697901356037
-0.3051665723323822,-0.967380702495575,-0.16349159181118011,2023-10-21T15:15:56.046656Z,1697901356046
-0.33456578850746155,-1.0801886320114136,-0.1460649073123932,2023-10-21T15:15:56.059517Z,1697901356059
-0.36702466011047363,-1.1916662454605103,-0.13435843586921692,2023-10-21T15:15:56.066942Z,1697901356066
-0.400015652179718,-1.2960933446884155,-0.13089969754219055,2023-10-21T15:15:56.077975Z,1697901356077
-0.4319424033164978,-1.389212965965271,-0.13542266190052032,2023-10-21T15:15:56.087134Z,1697901356087
-0.46360310912132263,-1.469162940979004,-0.14553280174732208,2023-10-21T15:15:56.098236Z,1697901356098
-0.49579593539237976,-1.5343466997146606,-0.15710625052452087,2023-10-21T15:15:56.109107Z,1697901356109
-0.5278556942939758,-1.583301067352295,-0.1662851870059967,2023-10-21T15:15:56.118253Z,1697901356118
-0.5611127614974976,-1.6166911125183105,-0.16761547327041626,2023-10-21T15:15:56.127719Z,1697901356127
-0.5998239517211914,-1.6370444297790527,-0.15457871556282043,2023-10-21T15:15:56.138505Z,1697901356138
-0.6471819877624512,-1.6468884944915771,-0.12172076106071472,2023-10-21T15:15:56.147952Z,1697901356147
-0.7017235159873962,-1.645957350730896,-0.0658489316701889,2023-10-21T15:15:56.159562Z,1697901356159
-0.7581274509429932,-1.6315902471542358,0.012637674808502197,2023-10-21T15:15:56.168223Z,1697901356168
-0.8117377758026123,-1.6001956462860107,0.11320696026086807,2023-10-21T15:15:56.179234Z,1697901356179
-0.860027015209198,-1.5493788719177246,0.2354598343372345,2023-10-21T15:15:56.188393Z,1697901356188
-0.9019308686256409,-1.4780757427215576,0.3788641691207886,2023-10-21T15:15:56.199492Z,1697901356199
-0.9357200264930725,-1.3853552341461182,0.540493369102478,2023-10-21T15:15:56.208903Z,1697901356208
-0.9586008787155151,-1.2701528072357178,0.7135630249977112,2023-10-21T15:15:56.219548Z,1697901356219
-0.9684449434280396,-1.133266806602478,0.8890271186828613,2023-10-21T15:15:56.228965Z,1697901356228
-0.9659174084663391,-0.9793532490730286,1.0578398704528809,2023-10-21T15:15:56.242684Z,1697901356242
-0.9535458087921143,-0.8163937926292419,1.210024118423462,2023-10-21T15:15:56.249286Z,1697901356249
-0.9329264163970947,-0.6535673141479492,1.3357356786727905,2023-10-21T15:15:56.260165Z,1697901356260
-0.9056556820869446,-0.49925464391708374,1.4293874502182007,2023-10-21T15:15:56.269501Z,1697901356269
-0.8747931122779846,-0.3605062961578369,1.4908465147018433,2023-10-21T15:15:56.280577Z,1697901356280
-0.8451278209686279,-0.24237729609012604,1.5249017477035522,2023-10-21T15:15:56.292312Z,1697901356292
-0.8207836747169495,-0.14939060807228088,1.538204550743103,2023-10-21T15:15:56.300617Z,1697901356300
-0.8054854869842529,-0.08380773663520813,1.538204550743103,2023-10-21T15:15:56.310074Z,1697901356310
-0.8021597862243652,-0.04562865570187569,1.5324842929840088,2023-10-21T15:15:56.320866Z,1697901356320
-0.811870813369751,-0.03272492438554764,1.5266311168670654,2023-10-21T15:15:56.330356Z,1697901356330
-0.8326231837272644,-0.041637811809778214,1.5238374471664429,2023-10-21T15:15:56.342630Z,1697901356342
-0.860027015209198,-0.06691315770149231,1.5233054161071777,2023-10-21T15:15:56.350592Z,1697901356350
-0.8904904723167419,-0.10123442113399506,1.522374153137207,2023-10-21T15:15:56.361699Z,1697901356361
-0.9208208918571472,-0.13688597083091736,1.5185163021087646,2023-10-21T15:15:56.370788Z,1697901356370
-0.948224663734436,-0.16748245060443878,1.5108007192611694,2023-10-21T15:15:56.381915Z,1697901356381
-0.9684449434280396,-0.18743667006492615,1.4990942478179932,2023-10-21T15:15:56.392208Z,1697901356392
-0.9757614731788635,-0.1920926570892334,1.4837960004806519,2023-10-21T15:15:56.401965Z,1697901356401
-0.967779815196991,-0.17825771868228912,1.4667683839797974,2023-10-21T15:15:56.411345Z,1697901356411
-0.9455640912055969,-0.1459318846464157,1.4504059553146362,2023-10-21T15:15:56.422130Z,1697901356422
-0.9105777144432068,-0.09750963747501373,1.4372361898422241,2023-10-21T15:15:56.431663Z,1697901356431
-0.8648160099983215,-0.03631668537855148,1.4299196004867554,2023-10-21T15:15:56.442787Z,1697901356442
-0.811471700668335,0.03325703740119934,1.4303187131881714,2023-10-21T15:15:56.451975Z,1697901356451
-0.7541366219520569,0.10761977732181549,1.4388325214385986,2023-10-21T15:15:56.462977Z,1697901356462
-0.6946730017662048,0.18371187150478363,1.4530664682388306,2023-10-21T15:15:56.475894Z,1697901356475
-0.633613109588623,0.2578085660934448,1.4702271223068237,2023-10-21T15:15:56.483230Z,1697901356483
-0.5748146176338196,0.32458868622779846,1.489516258239746,2023-10-21T15:15:56.492701Z,1697901356492
-0.522268533706665,0.37952932715415955,1.5104016065597534,2023-10-21T15:15:56.503276Z,1697901356503
-0.4781031906604767,0.4199698865413666,1.5327503681182861,2023-10-21T15:15:56.512741Z,1697901356512
-0.4435158669948578,0.44484615325927734,1.5566954612731934,2023-10-21T15:15:56.526233Z,1697901356526
-0.4205019772052765,0.4534929692745209,1.582502841949463,2023-10-21T15:15:56.533003Z,1697901356532
-0.41025882959365845,0.4461764097213745,1.6100397109985352,2023-10-21T15:15:56.543906Z,1697901356543
-0.4117221236228943,0.42409375309944153,1.63731050491333,2023-10-21T15:15:56.553240Z,1697901356553
-0.4242267906665802,0.38950642943382263,1.6617876291275024,2023-10-21T15:15:56.564259Z,1697901356564
-0.4473736882209778,0.3453410863876343,1.680145502090454,2023-10-21T15:15:56.575771Z,1697901356575
-0.47890135645866394,0.29492342472076416,1.6902556419372559,2023-10-21T15:15:56.584372Z,1697901356584
-0.5137547254562378,0.24237729609012604,1.6898566484451294,2023-10-21T15:15:56.593904Z,1697901356593
-0.5451493859291077,0.19116145372390747,1.6770858764648438,2023-10-21T15:15:56.604618Z,1697901356604
-0.5680302381515503,0.14446857571601868,1.651411533355713,2023-10-21T15:15:56.614064Z,1697901356614
-0.5798696875572205,0.10509224236011505,1.6137645244598389,2023-10-21T15:15:56.625992Z,1697901356625
-0.5812000036239624,0.07542695850133896,1.5666725635528564,2023-10-21T15:15:56.634341Z,1697901356634
-0.5729522705078125,0.056403934955596924,1.5117318630218506,2023-10-21T15:15:56.645037Z,1697901356645
-0.5556585788726807,0.04682590812444687,1.450538992881775,2023-10-21T15:15:56.654476Z,1697901356654
-0.529585063457489,0.043766263872385025,1.3857542276382446,2023-10-21T15:15:56.665490Z,1697901356665
-0.4949977397918701,0.04483048617839813,1.320570468902588,2023-10-21T15:15:56.675689Z,1697901356675
-0.45375901460647583,0.0477571077644825,1.2589784860610962,2023-10-21T15:15:56.685548Z,1697901356685
-0.41025882959365845,0.050417669117450714,1.2055010795593262,2023-10-21T15:15:56.695020Z,1697901356694
-0.3698182702064514,0.05028464272618294,1.163730263710022,2023-10-21T15:15:56.709381Z,1697901356709
-0.33509790897369385,0.045096542686223984,1.135927438735962,2023-10-21T15:15:56.715339Z,1697901356715
-0.30702897906303406,0.03445428982377052,1.1223585605621338,2023-10-21T15:15:56.726395Z,1697901356726
-0.28787291049957275,0.01888999715447426,1.1212942600250244,2023-10-21T15:15:56.735563Z,1697901356735
-0.2804233431816101,-0.001064225216396153,1.1306062936782837,2023-10-21T15:15:56.746636Z,1697901356746
-0.2853453755378723,-0.025940489023923874,1.1476339101791382,2023-10-21T15:15:56.759648Z,1697901356759
-0.3014417886734009,-0.056004852056503296,1.170514702796936,2023-10-21T15:15:56.766638Z,1697901356766
-0.326185017824173,-0.0905921682715416,1.1975194215774536,2023-10-21T15:15:56.776072Z,1697901356776
-0.3573136031627655,-0.1283721625804901,1.2275837659835815,2023-10-21T15:15:56.787045Z,1697901356786
-0.39496058225631714,-0.16841363906860352,1.259244441986084,2023-10-21T15:15:56.796351Z,1697901356796
-0.43885987997055054,-0.21164779365062714,1.2907721996307373,2023-10-21T15:15:56.808929Z,1697901356808
-0.4867500066757202,-0.2596709430217743,1.319506287574768,2023-10-21T15:15:56.816679Z,1697901356816
-0.5374337434768677,-0.3140794634819031,1.343318223953247,2023-10-21T15:15:56.827540Z,1697901356827
-0.5922413468360901,-0.37447425723075867,1.361410140991211,2023-10-21T15:15:56.836860Z,1697901356836
-0.652769148349762,-0.4405892491340637,1.3736486434936523,2023-10-21T15:15:56.847910Z,1697901356847
-0.7190171480178833,-0.5118923187255859,1.3804330825805664,2023-10-21T15:15:56.858955Z,1697901356858
-0.7905862927436829,-0.5878514051437378,1.3812313079833984,2023-10-21T15:15:56.867951Z,1697901356867
-0.8682747483253479,-0.6675352454185486,1.3751120567321777,2023-10-21T15:15:56.877491Z,1697901356877
-0.9522154927253723,-0.7504118084907532,1.3608779907226562,2023-10-21T15:15:56.888199Z,1697901356888
-1.0420094728469849,-0.8356828689575195,1.3374650478363037,2023-10-21T15:15:56.897687Z,1697901356897
-1.137257695198059,-0.9209538698196411,1.3054052591323853,2023-10-21T15:15:56.909022Z,1697901356908
-1.2349003553390503,-1.0042295455932617,1.26682710647583,2023-10-21T15:15:56.917981Z,1697901356917
-1.3308136463165283,-1.0843124389648438,1.2239919900894165,2023-10-21T15:15:56.929091Z,1697901356929
-1.4195433855056763,-1.161468744277954,1.17836332321167,2023-10-21T15:15:56.938204Z,1697901356938
-1.49736487865448,-1.2364966869354248,1.1306062936782837,2023-10-21T15:15:56.949144Z,1697901356949
-1.5644110441207886,-1.309529185295105,1.0803216695785522,2023-10-21T15:15:56.958429Z,1697901356958
-1.6230764389038086,-1.3797680139541626,1.025913119316101,2023-10-21T15:15:56.969221Z,1697901356969
-1.677351951599121,-1.4457499980926514,0.9665825366973877,2023-10-21T15:15:56.978720Z,1697901356978
-1.7285678386688232,-1.5053465366363525,0.9024629592895508,2023-10-21T15:15:56.992449Z,1697901356992
-1.7690083980560303,-1.5570945739746094,0.8331553339958191,2023-10-21T15:15:56.999072Z,1697901356999
-1.7845726013183594,-1.5984662771224976,0.7567971348762512,2023-10-21T15:15:57.009911Z,1697901357009
-1.7615587711334229,-1.6256040334701538,0.6739206314086914,2023-10-21T15:15:57.019270Z,1697901357019
-1.691985011100769,-1.634516954421997,0.5873193144798279,2023-10-21T15:15:57.030202Z,1697901357030
-1.5761175155639648,-1.6224113702774048,0.4979243874549866,2023-10-21T15:15:57.042086Z,1697901357042
-1.4208736419677734,-1.5887552499771118,0.4022771418094635,2023-10-21T15:15:57.050265Z,1697901357050
-1.2416847944259644,-1.5343466997146606,0.29385918378829956,2023-10-21T15:15:57.059767Z,1697901357059
-1.0590370893478394,-1.4625115394592285,0.1696108877658844,2023-10-21T15:15:57.070567Z,1697901357070
-0.9007335901260376,-1.382827639579773,0.03166069835424423,2023-10-21T15:15:57.080063Z,1697901357080
-0.7952423095703125,-1.3076667785644531,-0.11400512605905533,2023-10-21T15:15:57.091993Z,1697901357091
-0.7643797397613525,-1.2515288591384888,-0.25873976945877075,2023-10-21T15:15:57.100319Z,1697901357100
-0.8250405788421631,-1.233170986175537,-0.389107346534729,2023-10-21T15:15:57.111249Z,1697901357111
-0.9925230145454407,-1.2720152139663696,-0.4924702048301697,2023-10-21T15:15:57.120556Z,1697901357120
-1.270019769668579,-1.3736486434936523,-0.5681632161140442,2023-10-21T15:15:57.131629Z,1697901357131
-1.6072461605072021,-1.4944382905960083,-0.6427920460700989,2023-10-21T15:15:57.141703Z,1697901357141
-1.905495285987854,-1.5472503900527954,-0.7643797397613525,2023-10-21T15:15:57.151677Z,1697901357151
-2.080693244934082,-1.4650390148162842,-0.9648531675338745,2023-10-21T15:15:57.161203Z,1697901357161
-2.114748477935791,-1.248203158378601,-1.2363636493682861,2023-10-21T15:15:57.171876Z,1697901357171
-2.0273489952087402,-0.9385136365890503,-1.5483146905899048,2023-10-21T15:15:57.181426Z,1697901357181
-1.8226187229156494,-0.5672320127487183,-1.8756968975067139,2023-10-21T15:15:57.192313Z,1697901357192
-1.515589714050293,-0.17147329449653625,-2.1887121200561523,2023-10-21T15:15:57.201646Z,1697901357201
-1.1693174839019775,0.181583434343338,-2.4377408027648926,2023-10-21T15:15:57.212599Z,1697901357212
-0.8681417107582092,0.42555704712867737,-2.5783517360687256,2023-10-21T15:15:57.224938Z,1697901357224
-0.6547645926475525,0.5426218509674072,-2.601764678955078,2023-10-21T15:15:57.232746Z,1697901357232
-0.51096111536026,0.570025622844696,-2.5371129512786865,2023-10-21T15:15:57.242179Z,1697901357242
-0.39589178562164307,0.5627090930938721,-2.427497625350952,2023-10-21T15:15:57.252983Z,1697901357252
-0.27962517738342285,0.5611127614974976,-2.309102773666382,2023-10-21T15:15:57.262481Z,1697901357262
-0.15497779846191406,0.5793375968933105,-2.200418710708618,2023-10-21T15:15:57.275363Z,1697901357275
-0.031261615455150604,0.6129937171936035,-2.10556960105896,2023-10-21T15:15:57.282738Z,1697901357282
0.07755541056394577,0.65143883228302,-2.021894931793213,2023-10-21T15:15:57.293659Z,1697901357293
0.16229434311389923,0.6874895095825195,-1.9471330642700195,2023-10-21T15:15:57.302965Z,1697901357302
0.2244184911251068,0.7208795547485352,-1.882880449295044,2023-10-21T15:15:57.314017Z,1697901357313
0.2770976424217224,0.7589256167411804,-1.8351233005523682,2023-10-21T15:15:57.324855Z,1697901357324
0.33443278074264526,0.8078799843788147,-1.8094489574432373,2023-10-21T15:15:57.334098Z,1697901357334
0.40267622470855713,0.8670774698257446,-1.8054580688476562,2023-10-21T15:15:57.343564Z,1697901357343
0.47930043935775757,0.930931031703949,-1.8179627656936646,2023-10-21T15:15:57.354491Z,1697901357354
0.562309980392456,0.9942523837089539,-1.843238115310669,2023-10-21T15:15:57.363787Z,1697901357363
0.6533012390136719,1.0562435388565063,-1.881417155265808,2023-10-21T15:15:57.375468Z,1697901357375
0.755998969078064,1.120097041130066,-1.93369722366333,2023-10-21T15:15:57.384075Z,1697901357384
0.8742610216140747,1.1908680200576782,-2.0024728775024414,2023-10-21T15:15:57.395281Z,1697901357395
1.015936017036438,1.2753409147262573,-2.092665910720825,2023-10-21T15:15:57.404149Z,1697901357404
1.1915332078933716,1.380566120147705,-2.2114601135253906,2023-10-21T15:15:57.415493Z,1697901357415
1.4115617275238037,1.5113328695297241,-2.3645753860473633,2023-10-21T15:15:57.424997Z,1697901357424
1.6834713220596313,1.6697694063186646,-2.5554707050323486,2023-10-21T15:15:57.435498Z,1697901357435
2.013381004333496,1.856407880783081,-2.7858755588531494,2023-10-21T15:15:57.444852Z,1697901357444
2.4066123962402344,2.0717804431915283,-3.055656671524048,2023-10-21T15:15:57.458609Z,1697901357458
2.86502742767334,2.315887212753296,-3.360823154449463,2023-10-21T15:15:57.465094Z,1697901357465
3.3813095092773438,2.5851361751556396,-3.689668893814087,2023-10-21T15:15:57.475986Z,1697901357475
3.93430757522583,2.87021541595459,-4.023436546325684,2023-10-21T15:15:57.485351Z,1697901357485
4.497016906738281,3.159285545349121,-4.34296989440918,2023-10-21T15:15:57.496305Z,1697901357496
5.046422958374023,3.4418373107910156,-4.634966850280762,2023-10-21T15:15:57.508147Z,1697901357508
5.266717433929443,3.613177537918091,-4.680861473083496,2023-10-21T15:15:57.516406Z,1697901357516
5.64252233505249,3.8336052894592285,-4.850738525390625,2023-10-21T15:15:57.525869Z,1697901357525
5.918954372406006,4.013060092926025,-4.947583198547363,2023-10-21T15:15:57.536659Z,1697901357536
6.074730396270752,4.139304161071777,-4.959555625915527,2023-10-21T15:15:57.546178Z,1697901357546
6.101868152618408,4.203157424926758,-4.883995532989502,2023-10-21T15:15:57.558926Z,1697901357558
6.009945869445801,4.201827049255371,-4.731279373168945,2023-10-21T15:15:57.566408Z,1697901357566
5.823307514190674,4.140102386474609,-4.520163536071777,2023-10-21T15:15:57.577481Z,1697901357577
5.5718841552734375,4.0266289710998535,-4.272332191467285,2023-10-21T15:15:57.586659Z,1697901357586
5.2806854248046875,3.8688578605651855,-4.004413604736328,2023-10-21T15:15:57.597683Z,1697901357597
5.208717346191406,3.7732105255126953,-3.830146551132202,2023-10-21T15:15:57.608377Z,1697901357608
4.824798107147217,3.5280396938323975,-3.5196588039398193,2023-10-21T15:15:57.617733Z,1697901357617
4.4263787269592285,3.260653018951416,-3.2015886306762695,2023-10-21T15:15:57.627192Z,1697901357627
4.013060092926025,2.9788994789123535,-2.8715457916259766,2023-10-21T15:15:57.642069Z,1697901357642
3.580718755722046,2.686636447906494,-2.525273323059082,2023-10-21T15:15:57.647475Z,1697901357647
3.127225875854492,2.3875892162323,-2.161574363708496,2023-10-21T15:15:57.658667Z,1697901357658
2.6577694416046143,2.08707857131958,-1.784705638885498,2023-10-21T15:15:57.667726Z,1697901357667
2.1813955307006836,1.789760708808899,-1.4007863998413086,2023-10-21T15:15:57.678774Z,1697901357678
1.7056869268417358,1.498163104057312,-1.0136744976043701,2023-10-21T15:15:57.691711Z,1697901357691
1.24421226978302,1.2138818502426147,-0.6240350604057312,2023-10-21T15:15:57.698795Z,1697901357698
0.781806468963623,0.9386466145515442,-0.23093686997890472,2023-10-21T15:15:57.708288Z,1697901357708
0.30756109952926636,0.6852279901504517,0.051348865032196045,2023-10-21T15:15:57.719110Z,1697901357719
-0.15391357243061066,0.4526948034763336,0.33988693356513977,2023-10-21T15:15:57.728525Z,1697901357728
-0.5825302600860596,0.24290940165519714,0.7267327904701233,2023-10-21T15:15:57.741865Z,1697901357741
-0.956871509552002,0.07156914472579956,1.0624958276748657,2023-10-21T15:15:57.748795Z,1697901357748
-1.2639005184173584,-0.061325978487730026,1.333740234375,2023-10-21T15:15:57.759796Z,1697901357759
-1.4994933605194092,-0.16016589105129242,1.534612774848938,2023-10-21T15:15:57.769118Z,1697901357769
-1.6676409244537354,-0.23186807334423065,1.6134984493255615,2023-10-21T15:15:57.780111Z,1697901357780
-1.7763248682022095,-0.2838820815086365,1.6349159479141235,2023-10-21T15:15:57.791510Z,1697901357791
-1.834192156791687,-0.322061151266098,1.6592601537704468,2023-10-21T15:15:57.800212Z,1697901357800
-1.8514858484268188,-0.3507952392101288,1.6402370929718018,2023-10-21T15:15:57.809565Z,1697901357809
-1.840577483177185,-0.37287789583206177,1.5922139883041382,2023-10-21T15:15:57.820427Z,1697901357820
-1.8126416206359863,-0.3884422183036804,1.5271631479263306,2023-10-21T15:15:57.829883Z,1697901357829
-1.7748615741729736,-0.39708903431892395,1.453332543373108,2023-10-21T15:15:57.841892Z,1697901357841
-1.7316274642944336,-0.39881840348243713,1.3748459815979004,2023-10-21T15:15:57.850115Z,1697901357850
-1.685200572013855,-0.3950936198234558,1.2931666374206543,2023-10-21T15:15:57.862030Z,1697901357861
-1.6358472108840942,-0.3879100978374481,1.2078956365585327,2023-10-21T15:15:57.870364Z,1697901357870
-1.583301067352295,-0.3797953724861145,1.117835521697998,2023-10-21T15:15:57.881396Z,1697901357881
-1.5256998538970947,-0.37247881293296814,1.022321343421936,2023-10-21T15:15:57.891374Z,1697901357891
-1.4627776145935059,-0.3683549463748932,0.9225502610206604,2023-10-21T15:15:57.901489Z,1697901357901
-1.3977267742156982,-0.36862102150917053,0.8222470283508301,2023-10-21T15:15:57.910865Z,1697901357910
-1.3356026411056519,-0.3736760914325714,0.726865828037262,2023-10-21T15:15:57.921670Z,1697901357921
-1.2803959846496582,-0.38205686211586,0.6413286924362183,2023-10-21T15:15:57.931175Z,1697901357931
-1.2334370613098145,-0.3908367156982422,0.5690944194793701,2023-10-21T15:15:57.942136Z,1697901357942
-1.1940606832504272,-0.3969559967517853,0.5117592811584473,2023-10-21T15:15:57.951407Z,1697901357951
-1.161468744277954,-0.39828628301620483,0.46958938241004944,2023-10-21T15:15:57.962459Z,1697901357962
-1.1341980695724487,-0.39429545402526855,0.4408552944660187,2023-10-21T15:15:57.974250Z,1697901357974
-1.1123814582824707,-0.38671284914016724,0.42289650440216064,2023-10-21T15:15:57.982501Z,1697901357982
-1.096817135810852,-0.37846508622169495,0.41305240988731384,2023-10-21T15:15:57.991891Z,1697901357991
-1.087239146232605,-0.37181368470191956,0.40799733996391296,2023-10-21T15:15:58.002729Z,1697901358002
-1.0795234441757202,-0.3671576976776123,0.40307530760765076,2023-10-21T15:15:58.012214Z,1697901358012
-1.068615198135376,-0.3644971251487732,0.39376333355903625,2023-10-21T15:15:58.024838Z,1697901358024
-1.0529178380966187,-0.36303383111953735,0.37833207845687866,2023-10-21T15:15:58.032511Z,1697901358032
-1.033362627029419,-0.36250171065330505,0.3567815124988556,2023-10-21T15:15:58.043423Z,1697901358043
-1.0116790533065796,-0.3611714243888855,0.3293777108192444,2023-10-21T15:15:58.052656Z,1697901358052
-0.9886652231216431,-0.3569145202636719,0.2958545982837677,2023-10-21T15:15:58.063720Z,1697901358063
-0.963655948638916,-0.34653833508491516,0.2551479935646057,2023-10-21T15:15:58.074405Z,1697901358074
-0.9342567324638367,-0.32631805539131165,0.205794557929039,2023-10-21T15:15:58.083777Z,1697901358083
-0.8974078893661499,-0.293194055557251,0.14566582441329956,2023-10-21T15:15:58.093250Z,1697901358093
-0.8515132069587708,-0.24556997418403625,0.07422970980405807,2023-10-21T15:15:58.104019Z,1697901358103
-0.7973707318305969,-0.18464307487010956,-0.007449576631188393,2023-10-21T15:15:58.113544Z,1697901358113
-0.7379071712493896,-0.11347301304340363,-0.09644541144371033,2023-10-21T15:15:58.124635Z,1697901358124
-0.6771132946014404,-0.03605062887072563,-0.18796877562999725,2023-10-21T15:15:58.133823Z,1697901358133
-0.6195120811462402,0.04416534677147865,-0.2755013108253479,2023-10-21T15:15:58.144814Z,1697901358144
-0.5689613819122314,0.12478040903806686,-0.351859450340271,2023-10-21T15:15:58.153866Z,1697901358153
-0.5273236036300659,0.20459729433059692,-0.4110569953918457,2023-10-21T15:15:58.165062Z,1697901358165
-0.492736279964447,0.28348299860954285,-0.45043331384658813,2023-10-21T15:15:58.174268Z,1697901358174
-0.46360310912132263,0.36090537905693054,-0.4697223901748657,2023-10-21T15:15:58.185175Z,1697901358185
-0.44098833203315735,0.43486902117729187,-0.47012150287628174,2023-10-21T15:15:58.194604Z,1697901358194
-0.42715340852737427,0.5033785104751587,-0.4521626830101013,2023-10-21T15:15:58.208033Z,1697901358208
-0.42342859506607056,0.5637733340263367,-0.41784143447875977,2023-10-21T15:15:58.214876Z,1697901358214
-0.429813951253891,0.6132597923278809,-0.37074947357177734,2023-10-21T15:15:58.225799Z,1697901358225
-0.4439149498939514,0.6491773724555969,-0.31647396087646484,2023-10-21T15:15:58.235102Z,1697901358235
-0.4620067775249481,0.6707279682159424,-0.2606021463871002,2023-10-21T15:15:58.246158Z,1697901358246
-0.4806307256221771,0.6789757013320923,-0.20872117578983307,2023-10-21T15:15:58.257654Z,1697901358257
-0.49712619185447693,0.6748518347740173,-0.16601912677288055,2023-10-21T15:15:58.266193Z,1697901358266
-0.5108280777931213,0.6584893465042114,-0.13701899349689484,2023-10-21T15:15:58.275603Z,1697901358275
-0.5209382176399231,0.6298882961273193,-0.12557858228683472,2023-10-21T15:15:58.286459Z,1697901358286
-0.5261263251304626,0.589580774307251,-0.1332942098379135,2023-10-21T15:15:58.295924Z,1697901358295
-0.5249291062355042,0.5386309623718262,-0.1597668081521988,2023-10-21T15:15:58.307873Z,1697901358307
-0.5177455544471741,0.4785022735595703,-0.2008725106716156,2023-10-21T15:15:58.316193Z,1697901358316
-0.507768452167511,0.4098597466945648,-0.2507580518722534,2023-10-21T15:15:58.327204Z,1697901358327
-0.4659976065158844,0.3462722897529602,-0.25701040029525757,2023-10-21T15:15:58.336390Z,1697901358336
-0.4622728228569031,0.26366180181503296,-0.31434550881385803,2023-10-21T15:15:58.347435Z,1697901358347
-0.45921316742897034,0.19328990578651428,-0.3632998764514923,2023-10-21T15:15:58.357448Z,1697901358357
-0.46001136302948,0.10948216915130615,-0.40320831537246704,2023-10-21T15:15:58.367482Z,1697901358367
-0.46080952882766724,0.03791302442550659,-0.43713051080703735,2023-10-21T15:15:58.376984Z,1697901358376
-0.4653324782848358,-0.036582741886377335,-0.45096543431282043,2023-10-21T15:15:58.391527Z,1697901358391
-0.4691902995109558,-0.10017019510269165,-0.4628049433231354,2023-10-21T15:15:58.397223Z,1697901358397
-0.474112331867218,-0.16162919998168945,-0.45375901460647583,2023-10-21T15:15:58.408128Z,1697901358408
-0.5165483355522156,-0.2540837824344635,-0.46998846530914307,2023-10-21T15:15:58.417443Z,1697901358417
-0.5186767578125,-0.2978500425815582,-0.44697460532188416,2023-10-21T15:15:58.428472Z,1697901358428
-0.5220024585723877,-0.3358960747718811,-0.4243597984313965,2023-10-21T15:15:58.440635Z,1697901358440
-0.5251951217651367,-0.36702466011047363,-0.40413951873779297,2023-10-21T15:15:58.448598Z,1697901358448
-0.5262593626976013,-0.3897724747657776,-0.38711193203926086,2023-10-21T15:15:58.457990Z,1697901358457
-0.5245299935340881,-0.4033413529396057,-0.3727448880672455,2023-10-21T15:15:58.468813Z,1697901358468
-0.48488759994506836,-0.3780660033226013,-0.3392217755317688,2023-10-21T15:15:58.478294Z,1697901358478
-0.4878142476081848,-0.381391704082489,-0.3244556486606598,2023-10-21T15:15:58.491093Z,1697901358491
-0.5290529727935791,-0.4098597466945648,-0.3228593170642853,2023-10-21T15:15:58.498530Z,1697901358498
-0.5311813950538635,-0.400015652179718,-0.29226285219192505,2023-10-21T15:15:58.509444Z,1697901358509
-0.5370346307754517,-0.39057064056396484,-0.2542167901992798,2023-10-21T15:15:58.518795Z,1697901358518
-0.5475438833236694,-0.38391923904418945,-0.20765694975852966,2023-10-21T15:15:58.529839Z,1697901358529
-0.563241183757782,-0.38125869631767273,-0.15191814303398132,2023-10-21T15:15:58.540566Z,1697901358540
-0.5849247574806213,-0.3848504424095154,-0.08646830171346664,2023-10-21T15:15:58.549867Z,1697901358549
-0.6133928298950195,-0.3962908685207367,-0.012371618300676346,2023-10-21T15:15:58.559311Z,1697901358559
-0.6467828750610352,-0.4154469072818756,0.06837646663188934,2023-10-21T15:15:58.570111Z,1697901358570
-0.6820353269577026,-0.43925896286964417,0.15218420326709747,2023-10-21T15:15:58.579611Z,1697901358579
-0.715957522392273,-0.4628049433231354,0.2343956083059311,2023-10-21T15:15:58.591021Z,1697901358590
-0.7449576258659363,-0.4806307256221771,0.3094234764575958,2023-10-21T15:15:58.599868Z,1697901358599
-0.7666412591934204,-0.4884793758392334,0.3726118505001068,2023-10-21T15:15:58.610920Z,1697901358610
-0.7799440622329712,-0.4851536750793457,0.42302951216697693,2023-10-21T15:15:58.620026Z,1697901358620
-0.7853981852531433,-0.470919668674469,0.46293798089027405,2023-10-21T15:15:58.631159Z,1697901358631
-0.7849991321563721,-0.44803881645202637,0.4973922669887543,2023-10-21T15:15:58.640560Z,1697901358640
-0.782737672328949,-0.42076805233955383,0.5325117111206055,2023-10-21T15:15:58.651189Z,1697901358651
-0.781806468963623,-0.3936302959918976,0.5736173987388611,2023-10-21T15:15:58.660630Z,1697901358660
-0.784600019454956,-0.37088248133659363,0.6245671510696411,2023-10-21T15:15:58.674337Z,1697901358674
-0.7919166088104248,-0.35491910576820374,0.6864252686500549,2023-10-21T15:15:58.680900Z,1697901358680
-0.8048202991485596,-0.3473365008831024,0.7573292851448059,2023-10-21T15:15:58.691855Z,1697901358691
-0.8222470283508301,-0.34826770424842834,0.8319580554962158,2023-10-21T15:15:58.701091Z,1697901358701
-0.841003954410553,-0.3569145202636719,0.9044584035873413,2023-10-21T15:15:58.712184Z,1697901358712
-0.8569673299789429,-0.37074947357177734,0.9688440561294556,2023-10-21T15:15:58.723846Z,1697901358723
-0.8665453791618347,-0.3869788944721222,1.0209910869598389,2023-10-21T15:15:58.732254Z,1697901358732
-0.8690729141235352,-0.40214410424232483,1.0594362020492554,2023-10-21T15:15:58.741664Z,1697901358741
-0.866412341594696,-0.41238728165626526,1.084179401397705,2023-10-21T15:15:58.752467Z,1697901358752
-0.8588297367095947,-0.4138505756855011,1.0973491668701172,2023-10-21T15:15:58.762017Z,1697901358761
-0.8448618054389954,-0.40214410424232483,1.1009409427642822,2023-10-21T15:15:58.774426Z,1697901358774
-0.8234442472457886,-0.3754054307937622,1.0974822044372559,2023-10-21T15:15:58.782256Z,1697901358782
-0.796439528465271,-0.3354969918727875,1.0889683961868286,2023-10-21T15:15:58.793215Z,1697901358793
-0.7670403122901917,-0.2869417369365692,1.0772619247436523,2023-10-21T15:15:58.802336Z,1697901358802
-0.7371090054512024,-0.2349277138710022,1.0634270906448364,2023-10-21T15:15:58.813504Z,1697901358813
-0.7074437141418457,-0.18504215776920319,1.047729730606079,2023-10-21T15:15:58.824228Z,1697901358824
-0.6799069046974182,-0.14260618388652802,1.0311012268066406,2023-10-21T15:15:58.833487Z,1697901358833
-0.6571590900421143,-0.11200970411300659,1.0150047540664673,2023-10-21T15:15:58.842979Z,1697901358842
-0.6415947675704956,-0.09538118541240692,1.0018349885940552,2023-10-21T15:15:58.857336Z,1697901358857
-0.6338791251182556,-0.0921885073184967,0.9938533306121826,2023-10-21T15:15:58.863284Z,1697901358863
-0.6350764036178589,-0.10189956426620483,0.9917248487472534,2023-10-21T15:15:58.874194Z,1697901358874
-0.6457186341285706,-0.12305103987455368,0.9945184588432312,2023-10-21T15:15:58.883436Z,1697901358883
-0.6644756197929382,-0.15284934639930725,0.9994404911994934,2023-10-21T15:15:58.894553Z,1697901358894
-0.6876225471496582,-0.18650546669960022,1.0030322074890137,2023-10-21T15:15:58.907042Z,1697901358907
-0.7101042866706848,-0.21829919517040253,1.0026332139968872,2023-10-21T15:15:58.914556Z,1697901358914
-0.7283291220664978,-0.2426433563232422,0.9978441596031189,2023-10-21T15:15:58.924010Z,1697901358923
-0.7403016686439514,-0.2551479935646057,0.989596426486969,2023-10-21T15:15:58.934887Z,1697901358934
-0.7428292036056519,-0.25155624747276306,0.9810826182365417,2023-10-21T15:15:58.944355Z,1697901358944
-0.7331181168556213,-0.2293405383825302,0.975495457649231,2023-10-21T15:15:58.957847Z,1697901358957
-0.7120996713638306,-0.1892990618944168,0.9762936234474182,2023-10-21T15:15:58.964571Z,1697901358964
-0.6836316585540771,-0.1350235790014267,0.985472559928894,2023-10-21T15:15:58.975543Z,1697901358975
-0.6499755382537842,-0.07210125774145126,1.0027662515640259,2023-10-21T15:15:58.984786Z,1697901358984
-0.6115304231643677,-0.0047890134155750275,1.026312232017517,2023-10-21T15:15:58.995841Z,1697901358995
-0.5714889168739319,0.06265626102685928,1.0551793575286865,2023-10-21T15:15:59.007071Z,1697901359007
-0.5339750051498413,0.1267758309841156,1.0891014337539673,2023-10-21T15:15:59.015874Z,1697901359015
-0.5001858472824097,0.18570730090141296,1.1275466680526733,2023-10-21T15:15:59.025362Z,1697901359025
-0.4725160002708435,0.23785433173179626,1.1706477403640747,2023-10-21T15:15:59.036083Z,1697901359036
-0.4540250897407532,0.28188666701316833,1.2185379266738892,2023-10-21T15:15:59.045663Z,1697901359045
-0.44591036438941956,0.3166069984436035,1.2713500261306763,2023-10-21T15:15:59.057368Z,1697901359057
-0.44843789935112,0.34108418226242065,1.3284190893173218,2023-10-21T15:15:59.065858Z,1697901359065
-0.4625388979911804,0.35425397753715515,1.3886809349060059,2023-10-21T15:15:59.076847Z,1697901359076
-0.4878142476081848,0.3566484749317169,1.4497407674789429,2023-10-21T15:15:59.086122Z,1697901359086
-0.5204061269760132,0.35106128454208374,1.5080071687698364,2023-10-21T15:15:59.097152Z,1697901359097
-0.5563237071037292,0.3420153856277466,1.5589568614959717,2023-10-21T15:15:59.106971Z,1697901359106
-0.5967642664909363,0.33350157737731934,1.5995304584503174,2023-10-21T15:15:59.117158Z,1697901359117
-0.6437232494354248,0.32791438698768616,1.6274664402008057,2023-10-21T15:15:59.126717Z,1697901359126
-0.6946730017662048,0.32525384426116943,1.6420994997024536,2023-10-21T15:15:59.140615Z,1697901359140
-0.744558572769165,0.3237905204296112,1.64555823802948,2023-10-21T15:15:59.146939Z,1697901359146
-0.793645977973938,0.32033178210258484,1.6426316499710083,2023-10-21T15:15:59.157884Z,1697901359157
-0.8489856719970703,0.3118179738521576,1.6406362056732178,2023-10-21T15:15:59.167176Z,1697901359167
-0.919623613357544,0.29612067341804504,1.645159125328064,2023-10-21T15:15:59.178280Z,1697901359178
-1.0122112035751343,0.27310678362846375,1.658728003501892,2023-10-21T15:15:59.190588Z,1697901359190
-1.1295419931411743,0.24437271058559418,1.6809437274932861,2023-10-21T15:15:59.198271Z,1697901359198
-1.2670931816101074,0.2112487107515335,1.7087466716766357,2023-10-21T15:15:59.207744Z,1697901359207
-1.414222240447998,0.17466595768928528,1.7372146844863892,2023-10-21T15:15:59.218559Z,1697901359218
-1.559622049331665,0.13622082769870758,1.7610266208648682,2023-10-21T15:15:59.228042Z,1697901359227
-1.6971731185913086,0.09817477315664291,1.7761918306350708,2023-10-21T15:15:59.240866Z,1697901359240
-1.8263435363769531,0.06305534392595291,1.7820451259613037,2023-10-21T15:15:59.248235Z,1697901359248
-1.9504587650299072,0.032192811369895935,1.7812469005584717,2023-10-21T15:15:59.259250Z,1697901359259
-2.07470703125,0.004522957373410463,1.7793846130371094,2023-10-21T15:15:59.268502Z,1697901359268
-2.204542636871338,-0.023013871163129807,1.782311201095581,2023-10-21T15:15:59.279541Z,1697901359279
-2.3444881439208984,-0.05454154312610626,1.796944260597229,2023-10-21T15:15:59.290549Z,1697901359290
-2.4990668296813965,-0.09378484636545181,1.8307334184646606,2023-10-21T15:15:59.299648Z,1697901359299
-2.671072244644165,-0.14340434968471527,1.8903300762176514,2023-10-21T15:15:59.309055Z,1697901359309
-2.8570456504821777,-0.20499637722969055,1.9777295589447021,2023-10-21T15:15:59.323767Z,1697901359323
-3.0414226055145264,-0.2781618535518646,2.086679697036743,2023-10-21T15:15:59.329359Z,1697901359329
-3.203317880630493,-0.3590429723262787,2.205207586288452,2023-10-21T15:15:59.340670Z,1697901359340
-3.319185495376587,-0.44072225689888,2.3196117877960205,2023-10-21T15:15:59.349554Z,1697901359349
-3.3678736686706543,-0.5156171321868896,2.4176535606384277,2023-10-21T15:15:59.360531Z,1697901359360
-3.3352818489074707,-0.5793375968933105,2.4894888401031494,2023-10-21T15:15:59.369639Z,1697901359369
-3.2219419479370117,-0.6293562054634094,2.529663324356079,2023-10-21T15:15:59.380838Z,1697901359380
-3.0444822311401367,-0.6640765070915222,2.538177251815796,2023-10-21T15:15:59.390155Z,1697901359390
-2.824187755584717,-0.6821683645248413,2.5175578594207764,2023-10-21T15:15:59.400877Z,1697901359400
-2.5791497230529785,-0.6825674772262573,2.469667673110962,2023-10-21T15:15:59.410408Z,1697901359410
-2.3248000144958496,-0.6654068231582642,2.395171880722046,2023-10-21T15:15:59.423778Z,1697901359423
-2.0785648822784424,-0.6290901303291321,2.2947356700897217,2023-10-21T15:15:59.430650Z,1697901359430
-1.858802318572998,-0.5718880295753479,2.168491840362549,2023-10-21T15:15:59.441557Z,1697901359441
-1.6875951290130615,-0.4956628978252411,2.023491144180298,2023-10-21T15:15:59.450832Z,1697901359450
-1.5995304584503174,-0.4098597466945648,1.880618929862976,2023-10-21T15:15:59.461996Z,1697901359461
-1.6435627937316895,-0.33882269263267517,1.7753937244415283,2023-10-21T15:15:59.473544Z,1697901359473
-1.845632553100586,-0.31368038058280945,1.7370816469192505,2023-10-21T15:15:59.482040Z,1697901359482
-2.1397578716278076,-0.333634614944458,1.739077091217041,2023-10-21T15:15:59.491428Z,1697901359491
-2.3893187046051025,-0.3418823480606079,1.6958428621292114,2023-10-21T15:15:59.502246Z,1697901359502
-2.4831035137176514,-0.26765263080596924,1.5356769561767578,2023-10-21T15:15:59.511730Z,1697901359511
-2.401158094406128,-0.095514215528965,1.2633683681488037,2023-10-21T15:15:59.523901Z,1697901359523
-2.156785488128662,0.13648688793182373,0.9331924915313721,2023-10-21T15:15:59.531936Z,1697901359531
-1.7280356884002686,0.3933642506599426,0.578672468662262,2023-10-21T15:15:59.542974Z,1697901359542
-1.1216933727264404,0.6498425006866455,0.21590469777584076,2023-10-21T15:15:59.552160Z,1697901359552
-0.44591036438941956,0.8662793040275574,-0.11560146510601044,2023-10-21T15:15:59.563244Z,1697901359563
0.11932624876499176,1.00130295753479,-0.3573136031627655,2023-10-21T15:15:59.573580Z,1697901359573
0.4472406506538391,1.0414774417877197,-0.47171783447265625,2023-10-21T15:15:59.583291Z,1697901359583
0.5334429144859314,1.0135414600372314,-0.47930043935775757,2023-10-21T15:15:59.592735Z,1697901359592
0.45748382806777954,0.9680458903312683,-0.44537824392318726,2023-10-21T15:15:59.607369Z,1697901359607
0.31195101141929626,0.9430365562438965,-0.42502495646476746,2023-10-21T15:15:59.613050Z,1697901359613
0.15923470258712769,0.941440224647522,-0.42728641629219055,2023-10-21T15:15:59.623941Z,1697901359623
0.04243598133325577,0.9454310536384583,-0.4358002245426178,2023-10-21T15:15:59.633210Z,1697901359633
-0.010110139846801758,0.944632887840271,-0.44205254316329956,2023-10-21T15:15:59.644313Z,1697901359644
0.009178942069411278,0.9411741495132446,-0.45043331384658813,2023-10-21T15:15:59.656929Z,1697901359656
0.0883306935429573,0.9391787648200989,-0.46626368165016174,2023-10-21T15:15:59.664387Z,1697901359664
0.20566152036190033,0.9403759837150574,-0.49193811416625977,2023-10-21T15:15:59.673794Z,1697901359673
0.3425475060939789,0.945032000541687,-0.5277226567268372,2023-10-21T15:15:59.684621Z,1697901359684
0.4874151349067688,0.9538118243217468,-0.5750806927680969,2023-10-21T15:15:59.694202Z,1697901359694
0.6342782378196716,0.9672476649284363,-0.6368057727813721,2023-10-21T15:15:59.707058Z,1697901359707
0.7791458964347839,0.985472559928894,-0.715957522392273,2023-10-21T15:15:59.714300Z,1697901359714
0.9189584851264954,1.0084863901138306,-0.8129350543022156,2023-10-21T15:15:59.725295Z,1697901359725
1.0514545440673828,0.9326604008674622,-0.800430417060852,2023-10-21T15:15:59.734514Z,1697901359734
1.1815561056137085,0.7732926607131958,-0.6820353269577026,2023-10-21T15:15:59.745600Z,1697901359745
1.3165795803070068,0.6415947675704956,-0.5793375968933105,2023-10-21T15:15:59.756673Z,1697901359756
1.4603830575942993,0.6252323389053345,-0.6568930149078369,2023-10-21T15:15:59.765652Z,1697901359765
1.6100397109985352,0.7013244032859802,-0.9052565693855286,2023-10-21T15:15:59.775142Z,1697901359775
1.754242181777954,0.6652737855911255,-0.9703073501586914,2023-10-21T15:15:59.785905Z,1697901359785
1.8184947967529297,0.5357043743133545,-1.0501242876052856,2023-10-21T15:15:59.795418Z,1697901359795
1.852017879486084,0.4203689694404602,-1.315914511680603,2023-10-21T15:15:59.807049Z,1697901359807
1.9056283235549927,0.3392217755317688,-1.5711954832077026,2023-10-21T15:15:59.815587Z,1697901359815
1.9145411252975464,0.3281804621219635,-1.8190269470214844,2023-10-21T15:15:59.826661Z,1697901359826
1.8770272731781006,0.3490658700466156,-2.0564823150634766,2023-10-21T15:15:59.835821Z,1697901359835
1.7900267839431763,0.3458732068538666,-2.27531361579895,2023-10-21T15:15:59.846963Z,1697901359846
1.6496821641921997,0.31846940517425537,-2.465676784515381,2023-10-21T15:15:59.856729Z,1697901359856
1.4504059553146362,0.26645538210868835,-2.6179940700531006,2023-10-21T15:15:59.866947Z,1697901359866
1.1816890239715576,0.18916603922843933,-2.724017381668091,2023-10-21T15:15:59.876441Z,1697901359876
0.8331553339958191,0.08553709834814072,-2.776430606842041,2023-10-21T15:15:59.890498Z,1697901359890
0.4380617141723633,-0.04057358577847481,-2.775233268737793,2023-10-21T15:15:59.896685Z,1697901359896
0.15191814303398132,-0.16828061640262604,-2.739980936050415,2023-10-21T15:15:59.907649Z,1697901359907
0.5382319092750549,-0.21617074310779572,-2.7544808387756348,2023-10-21T15:15:59.916868Z,1697901359916
3.3618874549865723,0.0823444277048111,-3.0930376052856445,2023-10-21T15:15:59.927977Z,1697901359927
10.436590194702148,1.11969792842865,-4.010798931121826,2023-10-21T15:15:59.940014Z,1697901359939
17.16621971130371,2.210129737854004,-4.922573566436768,2023-10-21T15:15:59.948001Z,1697901359947
18.437170028686523,2.489222764968872,-4.971794128417969,2023-10-21T15:15:59.957451Z,1697901359957
16.685321807861328,2.2687952518463135,-4.5237555503845215,2023-10-21T15:15:59.968420Z,1697901359968
14.327132225036621,1.9411468505859375,-3.9714224338531494,2023-10-21T15:15:59.977818Z,1697901359977
12.027740478515625,1.6217461824417114,-3.428534507751465,2023-10-21T15:15:59.990549Z,1697901359990
9.951170921325684,1.3410568237304688,-2.9228944778442383,2023-10-21T15:15:59.997981Z,1697901359997
8.13626766204834,1.1063951253890991,-2.460355758666992,2023-10-21T15:16:00.009120Z,1697901360009
6.586090564727783,0.9173621535301208,-2.0415830612182617,2023-10-21T15:16:00.018194Z,1697901360018
5.284543514251709,0.7683706283569336,-1.6671087741851807,2023-10-21T15:16:00.029560Z,1697901360029
4.360662937164307,0.652370035648346,-1.344116449356079,2023-10-21T15:16:00.040630Z,1697901360040
3.4166951179504395,0.5609797239303589,-1.064225196838379,2023-10-21T15:16:00.049535Z,1697901360049
2.6990082263946533,0.4900757074356079,-0.8392745852470398,2023-10-21T15:16:00.058789Z,1697901360058
2.1726157665252686,0.43659839034080505,-0.670062780380249,2023-10-21T15:16:00.073522Z,1697901360073
1.808783769607544,0.3835201561450958,-0.5553925633430481,2023-10-21T15:16:00.079098Z,1697901360079
1.5447229146957397,0.3567815124988556,-0.4751765727996826,2023-10-21T15:16:00.090181Z,1697901360090
1.3446485996246338,0.35092827677726746,-0.4171762764453888,2023-10-21T15:16:00.099291Z,1697901360099
1.2012442350387573,0.33403369784355164,-0.37899720668792725,2023-10-21T15:16:00.110417Z,1697901360110
1.082184076309204,0.3190014958381653,-0.3474695384502411,2023-10-21T15:16:00.123207Z,1697901360123
0.9717706441879272,0.3029051125049591,-0.31647396087646484,2023-10-21T15:16:00.130464Z,1697901360130
0.8501828908920288,0.2728407382965088,-0.27856093645095825,2023-10-21T15:16:00.139847Z,1697901360139
0.7498797178268433,0.25222137570381165,-0.24556997418403625,2023-10-21T15:16:00.150614Z,1697901360150
0.6642095446586609,0.23466165363788605,-0.2173680067062378,2023-10-21T15:16:00.160155Z,1697901360160
0.5670990347862244,0.20047342777252197,-0.18557427823543549,2023-10-21T15:16:00.173354Z,1697901360173
0.5075023770332336,0.172404482960701,-0.16229434311389923,2023-10-21T15:16:00.180377Z,1697901360180
0.4566856324672699,0.14832639694213867,-0.1422071009874344,2023-10-21T15:16:00.191349Z,1697901360191
0.4044055938720703,0.09538118541240692,-0.12664279341697693,2023-10-21T15:16:00.200546Z,1697901360200
0.36635953187942505,0.02075239084661007,-0.11733082681894302,2023-10-21T15:16:00.211679Z,1697901360211
0.3228593170642853,-0.05334429070353508,-0.10788583010435104,2023-10-21T15:16:00.222839Z,1697901360222
0.27683159708976746,-0.1432713270187378,-0.09844083338975906,2023-10-21T15:16:00.231715Z,1697901360231
0.22415243089199066,-0.24902869760990143,-0.08686738461256027,2023-10-21T15:16:00.241179Z,1697901360241
0.16588610410690308,-0.36369895935058594,-0.07329851388931274,2023-10-21T15:16:00.251939Z,1697901360251
0.10801886022090912,-0.4775710701942444,-0.061325978487730026,2023-10-21T15:16:00.261483Z,1697901360261
0.05627090856432915,-0.5833284258842468,-0.056536965072155,2023-10-21T15:16:00.273187Z,1697901360273
0.014367040246725082,-0.6767141819000244,-0.06425260007381439,2023-10-21T15:16:00.281665Z,1697901360281
-0.016761546954512596,-0.7542695999145508,-0.0883306935429573,2023-10-21T15:16:00.292683Z,1697901360292
-0.03698182478547096,-0.8136001825332642,-0.13129878044128418,2023-10-21T15:16:00.301824Z,1697901360301
-0.044697459787130356,-0.8549719452857971,-0.19462019205093384,2023-10-21T15:16:00.312998Z,1697901360312
-0.042169924825429916,-0.8815775513648987,-0.274570107460022,2023-10-21T15:16:00.322826Z,1697901360322
-0.03671576827764511,-0.8967427611351013,-0.36077234148979187,2023-10-21T15:16:00.333021Z,1697901360333
-0.037247881293296814,-0.9023299813270569,-0.43925896286964417,2023-10-21T15:16:00.342501Z,1697901360342
-0.050018586218357086,-0.8999354243278503,-0.49858951568603516,2023-10-21T15:16:00.356868Z,1697901360356
-0.07742238789796829,-0.8906234502792358,-0.5317135453224182,2023-10-21T15:16:00.362774Z,1697901360362
-0.12012442201375961,-0.874660074710846,-0.5350392460823059,2023-10-21T15:16:00.373702Z,1697901360373
-0.17626230418682098,-0.8500499129295349,-0.5083005428314209,2023-10-21T15:16:00.383014Z,1697901360382
-0.24237729609012604,-0.815462589263916,-0.45522233843803406,2023-10-21T15:16:00.394078Z,1697901360394
-0.31474462151527405,-0.7720953822135925,-0.38272199034690857,2023-10-21T15:16:00.405839Z,1697901360405
-0.389107346534729,-0.7215446829795837,-0.3001115024089813,2023-10-21T15:16:00.414128Z,1697901360414
-0.4598783254623413,-0.6658058762550354,-0.2168358862400055,2023-10-21T15:16:00.423516Z,1697901360423
-0.523199737071991,-0.6067414283752441,-0.14087681472301483,2023-10-21T15:16:00.434382Z,1697901360434
-0.5762779712677002,-0.5472778081893921,-0.0779544934630394,2023-10-21T15:16:00.443868Z,1697901360443
-0.6181818246841431,-0.49140599370002747,-0.03179372847080231,2023-10-21T15:16:00.456466Z,1697901360456
-0.6481131315231323,-0.4423186182975769,-0.004389929119497538,2023-10-21T15:16:00.464049Z,1697901360464
-0.6662049889564514,-0.40214410424232483,0.0027935912366956472,2023-10-21T15:16:00.475054Z,1697901360475
-0.6740536689758301,-0.3715476393699646,-0.008779858238995075,2023-10-21T15:16:00.484198Z,1697901360484
-0.67458575963974,-0.3501301109790802,-0.03538548946380615,2023-10-21T15:16:00.495364Z,1697901360495
-0.6705949306488037,-0.3357630670070648,-0.07236731797456741,2023-10-21T15:16:00.506025Z,1697901360505
-0.6624801754951477,-0.32578593492507935,-0.11626660823822021,2023-10-21T15:16:00.515377Z,1697901360515
-0.648645281791687,-0.3162079155445099,-0.16535399854183197,2023-10-21T15:16:00.524860Z,1697901360524
-0.629622220993042,-0.3039693236351013,-0.21723496913909912,2023-10-21T15:16:00.539349Z,1697901360539
-0.607805609703064,-0.2876068651676178,-0.2695150375366211,2023-10-21T15:16:00.545138Z,1697901360545
-0.58505779504776,-0.2656572163105011,-0.3200657367706299,2023-10-21T15:16:00.556291Z,1697901360556
-0.5629751682281494,-0.23745524883270264,-0.3667586147785187,2023-10-21T15:16:00.565367Z,1697901360565
-0.5422227382659912,-0.201936736702919,-0.40640100836753845,2023-10-21T15:16:00.576386Z,1697901360576
-0.5235987901687622,-0.1585695594549179,-0.4352681040763855,2023-10-21T15:16:00.585483Z,1697901360585
-0.5085666179656982,-0.10881702601909637,-0.4495021402835846,2023-10-21T15:16:00.596701Z,1697901360596
-0.5005849599838257,-0.05693604797124863,-0.4457773268222809,2023-10-21T15:16:00.605894Z,1697901360605
-0.5028464198112488,-0.006784435827285051,-0.42183226346969604,2023-10-21T15:16:00.616712Z,1697901360616
-0.5146859288215637,0.03924330323934555,-0.37833207845687866,2023-10-21T15:16:00.626218Z,1697901360626
-0.5342410802841187,0.0818123146891594,-0.31846940517425537,2023-10-21T15:16:00.639608Z,1697901360639
-0.5593833923339844,0.12172076106071472,-0.2463681399822235,2023-10-21T15:16:00.646408Z,1697901360646
-0.5887826085090637,0.16016589105129242,-0.16641822457313538,2023-10-21T15:16:00.657419Z,1697901360657
-0.6203102469444275,0.1987440586090088,-0.0834086537361145,2023-10-21T15:16:00.666668Z,1697901360666
-0.65143883228302,0.23851947486400604,-0.0029266192577779293,2023-10-21T15:16:00.677704Z,1697901360677
-0.679108738899231,0.27909305691719055,0.07010583579540253,2023-10-21T15:16:00.689209Z,1697901360689
-0.7007923126220703,0.3187354505062103,0.13183090090751648,2023-10-21T15:16:00.697812Z,1697901360697
-0.7139620780944824,0.35305672883987427,0.17825771868228912,2023-10-21T15:16:00.707234Z,1697901360707
-0.7176868915557861,0.37620362639427185,0.20499637722969055,2023-10-21T15:16:00.718095Z,1697901360718
-0.7123657464981079,0.38272199034690857,0.20792299509048462,2023-10-21T15:16:00.727525Z,1697901360727
-0.6981317400932312,0.3687540292739868,0.18504215776920319,2023-10-21T15:16:00.739473Z,1697901360739
-0.674984872341156,0.3331024944782257,0.13701899349689484,2023-10-21T15:16:00.747723Z,1697901360747
-0.6128606796264648,0.28734081983566284,0.09910597652196884,2023-10-21T15:16:00.758765Z,1697901360758
-0.5780073404312134,0.21284504234790802,0.005321125965565443,2023-10-21T15:16:00.767920Z,1697901360767
-0.5693604946136475,0.1169317439198494,-0.13143181800842285,2023-10-21T15:16:00.779060Z,1697901360779
-0.5245299935340881,0.027403799816966057,-0.23279926180839539,2023-10-21T15:16:00.789111Z,1697901360789
-0.4796995222568512,-0.06278929114341736,-0.33070799708366394,2023-10-21T15:16:00.799280Z,1697901360799
-0.43713051080703735,-0.14952364563941956,-0.4191717207431793,2023-10-21T15:16:00.808565Z,1697901360808
-0.3994835317134857,-0.22960658371448517,-0.49380049109458923,2023-10-21T15:16:00.822802Z,1697901360822
-0.36742374300956726,-0.3011757433414459,-0.5525989532470703,2023-10-21T15:16:00.828798Z,1697901360828
-0.3401529788970947,-0.3632998764514923,-0.5954340100288391,2023-10-21T15:16:00.839736Z,1697901360839
-0.31647396087646484,-0.4153138995170593,-0.622704803943634,2023-10-21T15:16:00.849040Z,1697901360849
-0.2978500425815582,-0.45735079050064087,-0.634544312953949,2023-10-21T15:16:00.860110Z,1697901360860
-0.28667566180229187,-0.4900757074356079,-0.6312185525894165,2023-10-21T15:16:00.872136Z,1697901360872
-0.2832169234752655,-0.5134886503219604,-0.6143240332603455,2023-10-21T15:16:00.880136Z,1697901360880
-0.28454720973968506,-0.5271905660629272,-0.5859889984130859,2023-10-21T15:16:00.889565Z,1697901360889
-0.28773990273475647,-0.5298511385917664,-0.5490071773529053,2023-10-21T15:16:00.900391Z,1697901360900
-0.2683177888393402,-0.48994266986846924,-0.48994266986846924,2023-10-21T15:16:00.909931Z,1697901360909
-0.2760334014892578,-0.47717198729515076,-0.44644248485565186,2023-10-21T15:16:00.922616Z,1697901360922
-0.2825517952442169,-0.466396689414978,-0.4093276262283325,2023-10-21T15:16:00.930091Z,1697901360930
-0.289336234331131,-0.43380481004714966,-0.36476320028305054,2023-10-21T15:16:00.941093Z,1697901360941
-0.2951894700527191,-0.4060019254684448,-0.3267171382904053,2023-10-21T15:16:00.950282Z,1697901360950
-0.30037757754325867,-0.35771268606185913,-0.2800242602825165,2023-10-21T15:16:00.961427Z,1697901360961
-0.33070799708366394,-0.3132812976837158,-0.23240017890930176,2023-10-21T15:16:00.972211Z,1697901360972
-0.33509790897369385,-0.2551479935646057,-0.1778586357831955,2023-10-21T15:16:00.981474Z,1697901360981
-0.3408181369304657,-0.1943541318178177,-0.12039047479629517,2023-10-21T15:16:00.990968Z,1697901360990
