ACC_X,ACC_Y,ACC_Z,DATE,UNIX_TIMESTAMP
-0.034104108810424805,-0.08571672439575195,-0.11525583267211914,2023-10-21T15:15:49.065657Z,1697901349065
-0.021863460540771484,-0.054296016693115234,-0.07400226593017578,2023-10-21T15:15:49.085939Z,1697901349085
-0.025196552276611328,-0.05968427658081055,-0.08268404006958008,2023-10-21T15:15:49.106172Z,1697901349106
0.0017116069793701172,0.004083156585693359,0.005701541900634766,2023-10-21T15:15:49.126424Z,1697901349126
0.007304191589355469,0.017384052276611328,0.024772167205810547,2023-10-21T15:15:49.146671Z,1697901349146
0.03090357780456543,0.07269477844238281,0.10573673248291016,2023-10-21T15:15:49.166961Z,1697901349166
0.0651404857635498,0.15144634246826172,0.22637367248535156,2023-10-21T15:15:49.187213Z,1697901349187
0.09867215156555176,0.22651386260986328,0.3437337875366211,2023-10-21T15:15:49.207447Z,1697901349207
0.10377693176269531,0.24016189575195312,0.36612653732299805,2023-10-21T15:15:49.228714Z,1697901349228
0.09864354133605957,0.22882509231567383,0.34205198287963867,2023-10-21T15:15:49.247984Z,1697901349247
0.04323601722717285,0.10154438018798828,0.14735698699951172,2023-10-21T15:15:49.268305Z,1697901349268
0.0513303279876709,0.11920595169067383,0.17389678955078125,2023-10-21T15:15:49.288617Z,1697901349288
0.057695865631103516,0.1324906349182129,0.19382905960083008,2023-10-21T15:15:49.308810Z,1697901349308
0.061931610107421875,0.13956689834594727,0.20470857620239258,2023-10-21T15:15:49.330342Z,1697901349330
0.06558728218078613,0.14452600479125977,0.21207904815673828,2023-10-21T15:15:49.349429Z,1697901349349
0.06644320487976074,0.1431717872619629,0.20966577529907227,2023-10-21T15:15:49.369712Z,1697901349369
0.06337857246398926,0.13390445709228516,0.19527673721313477,2023-10-21T15:15:49.390Z,1697901349389
0.056218862533569336,0.1166391372680664,0.16947603225708008,2023-10-21T15:15:49.410209Z,1697901349410
0.047167062759399414,0.0959177017211914,0.1391463279724121,2023-10-21T15:15:49.430442Z,1697901349430
0.035825490951538086,0.07139921188354492,0.10381889343261719,2023-10-21T15:15:49.450745Z,1697901349450
0.02000713348388672,0.03920269012451172,0.0572509765625,2023-10-21T15:15:49.471017Z,1697901349470
-0.005806684494018555,-0.011203765869140625,-0.016430377960205078,2023-10-21T15:15:49.491208Z,1697901349491
-0.0450441837310791,-0.0858306884765625,-0.12589311599731445,2023-10-21T15:15:49.513562Z,1697901349513
-0.10185742378234863,-0.19303321838378906,-0.281466007232666,2023-10-21T15:15:49.531768Z,1697901349531
-0.17269039154052734,-0.32824087142944336,-0.4734044075012207,2023-10-21T15:15:49.552055Z,1697901349552
-0.25194215774536133,-0.48195648193359375,-0.6844148635864258,2023-10-21T15:15:49.572273Z,1697901349572
-0.337735652923584,-0.6441926956176758,-0.9009013175964355,2023-10-21T15:15:49.592498Z,1697901349592
-0.42968249320983887,-0.8025431632995605,-1.1100316047668457,2023-10-21T15:15:49.613424Z,1697901349613
-0.5187671184539795,-0.9318246841430664,-1.2843613624572754,2023-10-21T15:15:49.633427Z,1697901349633
-0.5968368053436279,-1.015378475189209,-1.3992271423339844,2023-10-21T15:15:49.653398Z,1697901349653
-0.665048360824585,-1.0429954528808594,-1.425055980682373,2023-10-21T15:15:49.673621Z,1697901349673
-0.7152235507965088,-1.0120625495910645,-1.3507452011108398,2023-10-21T15:15:49.696660Z,1697901349696
-0.7192952632904053,-0.9136366844177246,-1.1687641143798828,2023-10-21T15:15:49.714172Z,1697901349714
-0.6615328788757324,-0.7647495269775391,-0.9339680671691895,2023-10-21T15:15:49.734433Z,1697901349734
-0.1734633445739746,-0.31692075729370117,-0.4476890563964844,2023-10-21T15:15:49.754738Z,1697901349754
-0.19601941108703613,-0.34357404708862305,-0.48050546646118164,2023-10-21T15:15:49.774905Z,1697901349774
-0.21735095977783203,-0.36409521102905273,-0.5026683807373047,2023-10-21T15:15:49.796577Z,1697901349796
-0.23705649375915527,-0.378415584564209,-0.5139002799987793,2023-10-21T15:15:49.815499Z,1697901349815
-0.254976749420166,-0.3874478340148926,-0.5154547691345215,2023-10-21T15:15:49.835777Z,1697901349835
-0.27153658866882324,-0.3930230140686035,-0.5101823806762695,2023-10-21T15:15:49.855972Z,1697901349855
-0.28708457946777344,-0.3966331481933594,-0.5005984306335449,2023-10-21T15:15:49.876173Z,1697901349876
-0.3016533851623535,-0.39914846420288086,-0.4882998466491699,2023-10-21T15:15:49.896519Z,1697901349896
-0.3150811195373535,-0.40102148056030273,-0.4741840362548828,2023-10-21T15:15:49.916822Z,1697901349916
-0.32650041580200195,-0.4017305374145508,-0.45761537551879883,2023-10-21T15:15:49.937079Z,1697901349937
-0.33563756942749023,-0.40148210525512695,-0.4387226104736328,2023-10-21T15:15:49.957306Z,1697901349957
-0.3424057960510254,-0.40108537673950195,-0.41832447052001953,2023-10-21T15:15:49.979290Z,1697901349979
-0.3473649024963379,-0.40202808380126953,-0.39777278900146484,2023-10-21T15:15:49.997903Z,1697901349997
-0.3499917984008789,-0.40401697158813477,-0.37662553787231445,2023-10-21T15:15:50.018178Z,1697901350018
-0.34793663024902344,-0.40384721755981445,-0.3522162437438965,2023-10-21T15:15:50.038385Z,1697901350038
-0.3367424011230469,-0.3951139450073242,-0.32018613815307617,2023-10-21T15:15:50.058759Z,1697901350058
-0.31240367889404297,-0.37150144577026367,-0.27794647216796875,2023-10-21T15:15:50.079380Z,1697901350079
-0.2722611427307129,-0.3284029960632324,-0.22555017471313477,2023-10-21T15:15:50.099174Z,1697901350099
-0.2167220115661621,-0.2652144432067871,-0.1664113998413086,2023-10-21T15:15:50.119486Z,1697901350119
-0.14891576766967773,-0.18482112884521484,-0.1055448055267334,2023-10-21T15:15:50.139694Z,1697901350139
-0.07288169860839844,-0.09162569046020508,-0.047480106353759766,2023-10-21T15:15:50.162737Z,1697901350162
0.007669925689697266,0.009745597839355469,0.0045702457427978516,2023-10-21T15:15:50.180213Z,1697901350180
0.0889425277709961,0.11380577087402344,0.048209190368652344,2023-10-21T15:15:50.200525Z,1697901350200
0.16607046127319336,0.2129812240600586,0.08138608932495117,2023-10-21T15:15:50.220759Z,1697901350220
0.23578882217407227,0.30155181884765625,0.10374927520751953,2023-10-21T15:15:50.240996Z,1697901350240
0.29422569274902344,0.3734731674194336,0.1153099536895752,2023-10-21T15:15:50.262644Z,1697901350262
0.3371720314025879,0.42346668243408203,0.11688446998596191,2023-10-21T15:15:50.281544Z,1697901350281
0.36051082611083984,0.44722938537597656,0.10994613170623779,2023-10-21T15:15:50.301897Z,1697901350301
0.3634963035583496,0.44494152069091797,0.09706306457519531,2023-10-21T15:15:50.322172Z,1697901350322
0.3496894836425781,0.42194366455078125,0.08133995532989502,2023-10-21T15:15:50.342283Z,1697901350342
0.32536745071411133,0.3863868713378906,0.06546390056610107,2023-10-21T15:15:50.362572Z,1697901350362
0.2962970733642578,0.3455066680908203,0.05112767219543457,2023-10-21T15:15:50.382909Z,1697901350382
0.2666969299316406,0.30463695526123047,0.03910475969314575,2023-10-21T15:15:50.403215Z,1697901350403
0.24054431915283203,0.2686295509338379,0.029669463634490967,2023-10-21T15:15:50.423442Z,1697901350423
0.21925830841064453,0.23915624618530273,0.022523164749145508,2023-10-21T15:15:50.446152Z,1697901350446
0.20433616638183594,0.2175898551940918,0.017344355583190918,2023-10-21T15:15:50.463914Z,1697901350463
0.19902276992797852,0.20659542083740234,0.01384398341178894,2023-10-21T15:15:50.484202Z,1697901350484
0.2067561149597168,0.20849847793579102,0.011726200580596924,2023-10-21T15:15:50.504484Z,1697901350504
0.2287888526916504,0.22296524047851562,0.010594040155410767,2023-10-21T15:15:50.524663Z,1697901350524
0.26375341415405273,0.24704647064208984,0.010053515434265137,2023-10-21T15:15:50.545691Z,1697901350545
0.3061213493347168,0.27451419830322266,0.009789198637008667,2023-10-21T15:15:50.565248Z,1697901350565
0.3499298095703125,0.2998809814453125,0.00967647135257721,2023-10-21T15:15:50.585542Z,1697901350585
0.3908658027648926,0.3198671340942383,0.009742051362991333,2023-10-21T15:15:50.605739Z,1697901350605
0.4275078773498535,0.3339419364929199,0.01009659469127655,2023-10-21T15:15:50.629138Z,1697901350629
0.4613504409790039,0.3438115119934082,0.010861396789550781,2023-10-21T15:15:50.646465Z,1697901350646
0.4936337471008301,0.35091066360473633,0.011987090110778809,2023-10-21T15:15:50.666593Z,1697901350666
0.5229282379150391,0.35487890243530273,0.013332366943359375,2023-10-21T15:15:50.686809Z,1697901350686
0.5466232299804688,0.35510921478271484,0.014564365148544312,2023-10-21T15:15:50.707037Z,1697901350707
0.5622100830078125,0.3513627052307129,0.015424609184265137,2023-10-21T15:15:50.728954Z,1697901350728
0.5680685043334961,0.3436703681945801,0.01583026349544525,2023-10-21T15:15:50.747625Z,1697901350747
0.5671749114990234,0.33415651321411133,0.0158003568649292,2023-10-21T15:15:50.767894Z,1697901350767
0.5666360855102539,0.32670116424560547,0.015388205647468567,2023-10-21T15:15:50.788128Z,1697901350788
0.5734748840332031,0.3248710632324219,0.014529511332511902,2023-10-21T15:15:50.808355Z,1697901350808
0.5898580551147461,0.3293747901916504,0.013118788599967957,2023-10-21T15:15:50.828796Z,1697901350828
0.6119403839111328,0.3377203941345215,0.010973751544952393,2023-10-21T15:15:50.848933Z,1697901350848
0.6335220336914062,0.3464822769165039,0.008032448589801788,2023-10-21T15:15:50.869193Z,1697901350869
0.6501750946044922,0.3534660339355469,0.004202939569950104,2023-10-21T15:15:50.889429Z,1697901350889
0.6610317230224609,0.3581700325012207,-5.530593916773796E-4,2023-10-21T15:15:50.912134Z,1697901350912
0.6662521362304688,0.3602409362792969,-0.006224803626537323,2023-10-21T15:15:50.930009Z,1697901350929
0.6664533615112305,0.3592672348022461,-0.012736797332763672,2023-10-21T15:15:50.950258Z,1697901350950
0.6609525680541992,0.3543429374694824,-0.01982942223548889,2023-10-21T15:15:50.970495Z,1697901350970
0.6473188400268555,0.34401750564575195,-0.027051806449890137,2023-10-21T15:15:50.990734Z,1697901350990
0.6232585906982422,0.32744789123535156,-0.033800363540649414,2023-10-21T15:15:51.012004Z,1697901351011
0.5873050689697266,0.3045978546142578,-0.03947693109512329,2023-10-21T15:15:51.031328Z,1697901351031
0.5399904251098633,0.2763957977294922,-0.04350918531417847,2023-10-21T15:15:51.051562Z,1697901351051
0.48462581634521484,0.24480676651000977,-0.04573202133178711,2023-10-21T15:15:51.071793Z,1697901351071
0.42609119415283203,0.21230268478393555,-0.04632312059402466,2023-10-21T15:15:51.092010Z,1697901351091
0.36981773376464844,0.1816554069519043,-0.04585719108581543,2023-10-21T15:15:51.112347Z,1697901351112
0.3228311538696289,0.15636777877807617,-0.045420169830322266,2023-10-21T15:15:51.132636Z,1697901351132
0.2889823913574219,0.1383371353149414,-0.046009063720703125,2023-10-21T15:15:51.152854Z,1697901351152
0.2691478729248047,0.12789249420166016,-0.04832494258880615,2023-10-21T15:15:51.173139Z,1697901351173
0.26042842864990234,0.12353181838989258,-0.05243527889251709,2023-10-21T15:15:51.195295Z,1697901351195
0.2589902877807617,0.12332725524902344,-0.05800986289978027,2023-10-21T15:15:51.213660Z,1697901351213
0.26328182220458984,0.12643146514892578,-0.06501650810241699,2023-10-21T15:15:51.233973Z,1697901351233
0.27334022521972656,0.132843017578125,-0.07381081581115723,2023-10-21T15:15:51.254174Z,1697901351254
0.2877330780029297,0.14197349548339844,-0.08431458473205566,2023-10-21T15:15:51.274424Z,1697901351274
0.3021268844604492,0.15183210372924805,-0.0953972339630127,2023-10-21T15:15:51.295140Z,1697901351295
0.31087303161621094,0.1595458984375,-0.10502147674560547,2023-10-21T15:15:51.314973Z,1697901351314
0.3090553283691406,0.1623249053955078,-0.11094069480895996,2023-10-21T15:15:51.335282Z,1697901351335
0.29679107666015625,0.15971088409423828,-0.11246252059936523,2023-10-21T15:15:51.355574Z,1697901351355
0.27754688262939453,0.15303277969360352,-0.11037492752075195,2023-10-21T15:15:51.378601Z,1697901351378
0.25731849670410156,0.1452465057373047,-0.10686588287353516,2023-10-21T15:15:51.396187Z,1697901351396
0.24151134490966797,0.13937902450561523,-0.10435223579406738,2023-10-21T15:15:51.416489Z,1697901351416
0.23341655731201172,0.1375575065612793,-0.10462665557861328,2023-10-21T15:15:51.436746Z,1697901351436
0.23421096801757812,0.1408252716064453,-0.10864543914794922,2023-10-21T15:15:51.456896Z,1697901351456
0.2436661720275879,0.14938116073608398,-0.1166999340057373,2023-10-21T15:15:51.478436Z,1697901351478
0.26133155822753906,0.16321802139282227,-0.1288599967956543,2023-10-21T15:15:51.497376Z,1697901351497
0.2855987548828125,0.18152332305908203,-0.14450645446777344,2023-10-21T15:15:51.517621Z,1697901351517
0.31463623046875,0.20317888259887695,-0.16269445419311523,2023-10-21T15:15:51.537925Z,1697901351537
0.3456439971923828,0.22627782821655273,-0.18177294731140137,2023-10-21T15:15:51.558093Z,1697901351558
0.3752593994140625,0.24840354919433594,-0.19957804679870605,2023-10-21T15:15:51.578451Z,1697901351578
0.3991241455078125,0.26647329330444336,-0.21333742141723633,2023-10-21T15:15:51.598718Z,1697901351598
0.4121532440185547,0.2769145965576172,-0.21993446350097656,2023-10-21T15:15:51.618998Z,1697901351618
0.4096646308898926,0.27640724182128906,-0.2167360782623291,2023-10-21T15:15:51.639232Z,1697901351639
0.3896970748901367,0.263427734375,-0.20297908782958984,2023-10-21T15:15:51.661390Z,1697901351661
0.3539419174194336,0.23902654647827148,-0.1802535057067871,2023-10-21T15:15:51.679770Z,1697901351679
0.3077874183654785,0.2070293426513672,-0.15230989456176758,2023-10-21T15:15:51.700025Z,1697901351699
0.2577643394470215,0.1722431182861328,-0.12331366539001465,2023-10-21T15:15:51.720257Z,1697901351720
0.20859289169311523,0.13824748992919922,-0.09611654281616211,2023-10-21T15:15:51.740472Z,1697901351740
0.16247177124023438,0.10674858093261719,-0.07193875312805176,2023-10-21T15:15:51.761654Z,1697901351761
0.12052631378173828,0.0785369873046875,-0.05122876167297363,2023-10-21T15:15:51.781056Z,1697901351781
0.08472394943237305,0.0547938346862793,-0.034569740295410156,2023-10-21T15:15:51.801317Z,1697901351801
0.057958126068115234,0.03722953796386719,-0.022724151611328125,2023-10-21T15:15:51.821555Z,1697901351821
0.04326343536376953,0.027615070343017578,-0.016327857971191406,2023-10-21T15:15:51.844772Z,1697901351844
0.041108131408691406,0.026089191436767578,-0.014965295791625977,2023-10-21T15:15:51.862135Z,1697901351862
0.04942798614501953,0.031212329864501953,-0.01739048957824707,2023-10-21T15:15:51.882409Z,1697901351882
0.0630793571472168,0.03966474533081055,-0.021465539932250977,2023-10-21T15:15:51.902701Z,1697901351902
0.07647132873535156,0.04791116714477539,-0.02515101432800293,2023-10-21T15:15:51.922972Z,1697901351922
0.08561325073242188,0.05345630645751953,-0.02715325355529785,2023-10-21T15:15:51.944296Z,1697901351944
0.08895301818847656,0.055355072021484375,-0.027121543884277344,2023-10-21T15:15:51.963461Z,1697901351963
0.0870819091796875,0.05400896072387695,-0.025444507598876953,2023-10-21T15:15:51.983762Z,1697901351983
0.08160781860351562,0.05045652389526367,-0.022798776626586914,2023-10-21T15:15:52.003976Z,1697901352003
0.07484912872314453,0.046160221099853516,-0.019972562789916992,2023-10-21T15:15:52.024135Z,1697901352024
0.0682535171508789,0.04202604293823242,-0.017403364181518555,2023-10-21T15:15:52.045016Z,1697901352044
0.06303882598876953,0.038809776306152344,-0.015398025512695312,2023-10-21T15:15:52.064770Z,1697901352064
0.059805870056152344,0.03687858581542969,-0.01406395435333252,2023-10-21T15:15:52.085091Z,1697901352085
0.05948352813720703,0.03681612014770508,-0.013562679290771484,2023-10-21T15:15:52.105265Z,1697901352105
0.06327247619628906,0.03938722610473633,-0.014114618301391602,2023-10-21T15:15:52.128296Z,1697901352128
0.07223033905029297,0.04530143737792969,-0.015919208526611328,2023-10-21T15:15:52.145815Z,1697901352145
0.08682727813720703,0.054931640625,-0.01907813549041748,2023-10-21T15:15:52.166131Z,1697901352166
0.10619831085205078,0.0678110122680664,-0.023439645767211914,2023-10-21T15:15:52.186418Z,1697901352186
0.12818050384521484,0.08258962631225586,-0.02857363224029541,2023-10-21T15:15:52.206610Z,1697901352206
0.1496744155883789,0.09723615646362305,-0.03378629684448242,2023-10-21T15:15:52.227683Z,1697901352227
0.1686992645263672,0.11033391952514648,-0.0385899543762207,2023-10-21T15:15:52.247121Z,1697901352247
0.18468379974365234,0.12135696411132812,-0.04276251792907715,2023-10-21T15:15:52.267422Z,1697901352267
0.1981964111328125,0.13054847717285156,-0.04635465145111084,2023-10-21T15:15:52.287645Z,1697901352287
0.2097635269165039,0.1381978988647461,-0.04943263530731201,2023-10-21T15:15:52.307870Z,1697901352307
0.21944332122802734,0.1443624496459961,-0.05200767517089844,2023-10-21T15:15:52.328169Z,1697901352328
0.22678852081298828,0.14881610870361328,-0.05399525165557861,2023-10-21T15:15:52.348514Z,1697901352348
0.23162078857421875,0.15152645111083984,-0.05539381504058838,2023-10-21T15:15:52.368700Z,1697901352368
0.2340259552001953,0.1526188850402832,-0.05626833438873291,2023-10-21T15:15:52.388939Z,1697901352388
0.23452091217041016,0.15247392654418945,-0.056777238845825195,2023-10-21T15:15:52.411659Z,1697901352411
0.23376846313476562,0.1515493392944336,-0.05711007118225098,2023-10-21T15:15:52.429508Z,1697901352429
0.2317514419555664,0.14986753463745117,-0.05727958679199219,2023-10-21T15:15:52.449832Z,1697901352449
0.22768592834472656,0.14696359634399414,-0.05708909034729004,2023-10-21T15:15:52.469973Z,1697901352469
0.22088241577148438,0.14241647720336914,-0.056337594985961914,2023-10-21T15:15:52.490251Z,1697901352490
0.211456298828125,0.1362776756286621,-0.054997920989990234,2023-10-21T15:15:52.510921Z,1697901352510
0.20010948181152344,0.1289505958557129,-0.053175926208496094,2023-10-21T15:15:52.530814Z,1697901352530
0.18813133239746094,0.12120485305786133,-0.05115771293640137,2023-10-21T15:15:52.551117Z,1697901352551
0.1760702133178711,0.11336612701416016,-0.049042701721191406,2023-10-21T15:15:52.571280Z,1697901352571
0.16434669494628906,0.10570430755615234,-0.04691314697265625,2023-10-21T15:15:52.594381Z,1697901352594
0.15288829803466797,0.0981898307800293,-0.044724225997924805,2023-10-21T15:15:52.611888Z,1697901352611
0.14172792434692383,0.09087419509887695,-0.04246926307678223,2023-10-21T15:15:52.632169Z,1697901352632
0.13147735595703125,0.08417224884033203,-0.04032754898071289,2023-10-21T15:15:52.652405Z,1697901352652
0.12306356430053711,0.07868719100952148,-0.038605690002441406,2023-10-21T15:15:52.672672Z,1697901352672
0.11681365966796875,0.07463598251342773,-0.037447214126586914,2023-10-21T15:15:52.694334Z,1697901352694
0.11231040954589844,0.07174968719482422,-0.03675246238708496,2023-10-21T15:15:52.713188Z,1697901352713
0.10913753509521484,0.06976079940795898,-0.03642106056213379,2023-10-21T15:15:52.733487Z,1697901352733
0.10699176788330078,0.06847333908081055,-0.03636956214904785,2023-10-21T15:15:52.753683Z,1697901352753
0.10598468780517578,0.06795358657836914,-0.036657094955444336,2023-10-21T15:15:52.773992Z,1697901352773
0.1060781478881836,0.06817102432250977,-0.037284135818481445,2023-10-21T15:15:52.794230Z,1697901352794
0.10717058181762695,0.06905508041381836,-0.038233041763305664,2023-10-21T15:15:52.814575Z,1697901352814
0.10906553268432617,0.07046270370483398,-0.03943777084350586,2023-10-21T15:15:52.834806Z,1697901352834
0.11168718338012695,0.07232999801635742,-0.04087114334106445,2023-10-21T15:15:52.854977Z,1697901352854
0.11490440368652344,0.07455158233642578,-0.04248332977294922,2023-10-21T15:15:52.877487Z,1697901352877
0.11871862411499023,0.07710933685302734,-0.04427194595336914,2023-10-21T15:15:52.895591Z,1697901352895
0.12302398681640625,0.0799407958984375,-0.0462040901184082,2023-10-21T15:15:52.915847Z,1697901352915
0.1276230812072754,0.0829458236694336,-0.048217058181762695,2023-10-21T15:15:52.936136Z,1697901352936
0.13205623626708984,0.08586835861206055,-0.05014681816101074,2023-10-21T15:15:52.956288Z,1697901352956
0.13657522201538086,0.08887767791748047,-0.052091121673583984,2023-10-21T15:15:52.977722Z,1697901352977
0.1414346694946289,0.09210348129272461,-0.05412101745605469,2023-10-21T15:15:52.996967Z,1697901352996
0.14673376083374023,0.09557628631591797,-0.05625033378601074,2023-10-21T15:15:53.017185Z,1697901353017
0.15183258056640625,0.0988764762878418,-0.0582122802734375,2023-10-21T15:15:53.037392Z,1697901353037
0.1555004119873047,0.10123968124389648,-0.05953025817871094,2023-10-21T15:15:53.060764Z,1697901353060
0.1568927764892578,0.10214900970458984,-0.05988955497741699,2023-10-21T15:15:53.077990Z,1697901353077
0.15584611892700195,0.10150432586669922,-0.05926036834716797,2023-10-21T15:15:53.098227Z,1697901353098
0.15312623977661133,0.09978342056274414,-0.05795741081237793,2023-10-21T15:15:53.118530Z,1697901353118
0.14941120147705078,0.0973668098449707,-0.056241750717163086,2023-10-21T15:15:53.138723Z,1697901353138
0.14509057998657227,0.09444761276245117,-0.05424833297729492,2023-10-21T15:15:53.160560Z,1697901353160
0.13975811004638672,0.09075021743774414,-0.05182218551635742,2023-10-21T15:15:53.179254Z,1697901353179
0.13305902481079102,0.08608627319335938,-0.04884910583496094,2023-10-21T15:15:53.199542Z,1697901353199
0.125244140625,0.08067655563354492,-0.04545903205871582,2023-10-21T15:15:53.219743Z,1697901353219
0.11705160140991211,0.07503366470336914,-0.041954755783081055,2023-10-21T15:15:53.239968Z,1697901353239
0.10884428024291992,0.06939506530761719,-0.038483381271362305,2023-10-21T15:15:53.260486Z,1697901353260
0.10051679611206055,0.06370401382446289,-0.035021066665649414,2023-10-21T15:15:53.280562Z,1697901353280
0.09195566177368164,0.057904720306396484,-0.03152894973754883,2023-10-21T15:15:53.300869Z,1697901353300
0.08346939086914062,0.052205562591552734,-0.02812361717224121,2023-10-21T15:15:53.321095Z,1697901353321
0.0760946273803711,0.04726266860961914,-0.02516031265258789,2023-10-21T15:15:53.343566Z,1697901353343
0.07051944732666016,0.04350090026855469,-0.022852659225463867,2023-10-21T15:15:53.361602Z,1697901353361
0.06722068786621094,0.0411992073059082,-0.021326541900634766,2023-10-21T15:15:53.381896Z,1697901353381
0.06601142883300781,0.040216922760009766,-0.020476818084716797,2023-10-21T15:15:53.402188Z,1697901353402
0.06618309020996094,0.04008150100708008,-0.02003788948059082,2023-10-21T15:15:53.422369Z,1697901353422
0.067047119140625,0.04033708572387695,-0.019765377044677734,2023-10-21T15:15:53.443713Z,1697901353443
0.06974315643310547,0.04162740707397461,-0.019965410232543945,2023-10-21T15:15:53.462930Z,1697901353462
0.0769186019897461,0.04546546936035156,-0.021344423294067383,2023-10-21T15:15:53.483232Z,1697901353483
0.09156513214111328,0.053513526916503906,-0.02462625503540039,2023-10-21T15:15:53.503458Z,1697901353503
0.11438941955566406,0.06602334976196289,-0.029865741729736328,2023-10-21T15:15:53.523662Z,1697901353523
0.14319324493408203,0.08156442642211914,-0.03640246391296387,2023-10-21T15:15:53.543968Z,1697901353543
0.17490386962890625,0.09824132919311523,-0.04344439506530762,2023-10-21T15:15:53.564282Z,1697901353564
0.20734786987304688,0.11468124389648438,-0.050508975982666016,2023-10-21T15:15:53.584514Z,1697901353584
0.24042606353759766,0.13065528869628906,-0.057641029357910156,2023-10-21T15:15:53.604727Z,1697901353604
0.2748985290527344,0.14639806747436523,-0.06510233879089355,2023-10-21T15:15:53.627029Z,1697901353626
0.3115224838256836,0.1622314453125,-0.07317948341369629,2023-10-21T15:15:53.645278Z,1697901353645
0.3502388000488281,0.17814302444458008,-0.0819709300994873,2023-10-21T15:15:53.665556Z,1697901353665
0.3903236389160156,0.19383478164672852,-0.09136009216308594,2023-10-21T15:15:53.685915Z,1697901353685
0.4308805465698242,0.2088775634765625,-0.10107684135437012,2023-10-21T15:15:53.706125Z,1697901353706
0.4722776412963867,0.2233142852783203,-0.11098742485046387,2023-10-21T15:15:53.727289Z,1697901353727
0.5158843994140625,0.2374706268310547,-0.12107372283935547,2023-10-21T15:15:53.746724Z,1697901353746
0.5634756088256836,0.25177979469299316,-0.131331205368042,2023-10-21T15:15:53.766938Z,1697901353766
0.6154422760009766,0.26613664627075195,-0.14144206047058105,2023-10-21T15:15:53.787195Z,1697901353787
0.6697731018066406,0.2796001434326172,-0.15059518814086914,2023-10-21T15:15:53.810286Z,1697901353810
0.7240867614746094,0.29116082191467285,-0.15793848037719727,2023-10-21T15:15:53.827673Z,1697901353827
0.7767314910888672,0.2999536991119385,-0.16285371780395508,2023-10-21T15:15:53.847943Z,1697901353847
0.8278999328613281,0.3056204319000244,-0.16516995429992676,2023-10-21T15:15:53.868262Z,1697901353868
0.8777284622192383,0.30771923065185547,-0.16479754447937012,2023-10-21T15:15:53.888484Z,1697901353888
0.9263114929199219,0.30579328536987305,-0.16180336475372314,2023-10-21T15:15:53.908956Z,1697901353908
0.9739847183227539,0.2996349334716797,-0.15665292739868164,2023-10-21T15:15:53.929079Z,1697901353929
1.0228147506713867,0.28981566429138184,-0.15039920806884766,2023-10-21T15:15:53.949318Z,1697901353949
1.075296401977539,0.2770712375640869,-0.1442195177078247,2023-10-21T15:15:53.969584Z,1697901353969
1.1328153610229492,0.26170873641967773,-0.13880443572998047,2023-10-21T15:15:53.989861Z,1697901353989
1.1948070526123047,0.24333012104034424,-0.13433539867401123,2023-10-21T15:15:54.010055Z,1697901354010
1.2584218978881836,0.22117841243743896,-0.13080048561096191,2023-10-21T15:15:54.030421Z,1697901354030
1.3216753005981445,0.19501101970672607,-0.1285303831100464,2023-10-21T15:15:54.050600Z,1697901354050
1.3807802200317383,0.1647489070892334,-0.1277989149093628,2023-10-21T15:15:54.070843Z,1697901354070
1.432267189025879,0.13071978092193604,-0.12872934341430664,2023-10-21T15:15:54.093528Z,1697901354093
1.4710693359375,0.09355413913726807,-0.13107794523239136,2023-10-21T15:15:54.111366Z,1697901354111
1.4921512603759766,0.05437499284744263,-0.13420593738555908,2023-10-21T15:15:54.131689Z,1697901354131
1.4907960891723633,0.014476403594017029,-0.13709509372711182,2023-10-21T15:15:54.151957Z,1697901354151
1.4627933502197266,-0.024742618203163147,-0.13863146305084229,2023-10-21T15:15:54.172211Z,1697901354172
1.406850814819336,-0.06177884340286255,-0.13828647136688232,2023-10-21T15:15:54.193541Z,1697901354193
1.3245458602905273,-0.0948934555053711,-0.13618957996368408,2023-10-21T15:15:54.212719Z,1697901354212
1.2192201614379883,-0.12222135066986084,-0.13270914554595947,2023-10-21T15:15:54.232996Z,1697901354232
1.0935096740722656,-0.14182066917419434,-0.12785303592681885,2023-10-21T15:15:54.253234Z,1697901354253
0.9502801895141602,-0.15205621719360352,-0.1212470531463623,2023-10-21T15:15:54.273528Z,1697901354273
0.7932844161987305,-0.15182387828826904,-0.11225402355194092,2023-10-21T15:15:54.293745Z,1697901354293
0.6289138793945312,-0.14095354080200195,-0.10019385814666748,2023-10-21T15:15:54.314053Z,1697901354314
0.46303749084472656,-0.11968517303466797,-0.08409249782562256,2023-10-21T15:15:54.334302Z,1697901354334
0.30104541778564453,-0.08867287635803223,-0.06289792060852051,2023-10-21T15:15:54.354602Z,1697901354354
0.14918804168701172,-0.049570322036743164,-0.03606462478637695,2023-10-21T15:15:54.376383Z,1697901354376
0.013988494873046875,-0.005196809768676758,-0.003922224044799805,2023-10-21T15:15:54.395069Z,1697901354395
-0.09877490997314453,0.04068112373352051,0.03212428092956543,2023-10-21T15:15:54.415369Z,1697901354415
-0.18555164337158203,0.08402872085571289,0.06973767280578613,2023-10-21T15:15:54.435637Z,1697901354435
-0.24770021438598633,0.1223745346069336,0.10688066482543945,2023-10-21T15:15:54.455856Z,1697901354455
-0.2982954978942871,0.15970134735107422,0.1467878818511963,2023-10-21T15:15:54.476316Z,1697901354476
-0.35248565673828125,0.2033858299255371,0.19655942916870117,2023-10-21T15:15:54.496450Z,1697901354496
-0.40485620498657227,0.25031566619873047,0.2530517578125,2023-10-21T15:15:54.516685Z,1697901354516
-0.45633745193481445,0.300321102142334,0.31508684158325195,2023-10-21T15:15:54.536945Z,1697901354536
-0.5017604827880859,0.3487682342529297,0.37589168548583984,2023-10-21T15:15:54.559646Z,1697901354559
-0.553253173828125,0.40329599380493164,0.44315433502197266,2023-10-21T15:15:54.577428Z,1697901354577
-0.6204805374145508,0.47162628173828125,0.5257840156555176,2023-10-21T15:15:54.597793Z,1697901354597
-0.70196533203125,0.5529494285583496,0.6218810081481934,2023-10-21T15:15:54.618030Z,1697901354617
-0.7985396385192871,0.6480550765991211,0.7308125495910645,2023-10-21T15:15:54.638262Z,1697901354638
-0.9084653854370117,0.7550864219665527,0.8486995697021484,2023-10-21T15:15:54.659629Z,1697901354659
-1.0268592834472656,0.8671145439147949,0.9645295143127441,2023-10-21T15:15:54.678933Z,1697901354678
-1.1482439041137695,0.9750556945800781,1.0643062591552734,2023-10-21T15:15:54.699091Z,1697901354699
-1.2769064903259277,1.080815315246582,1.150564193725586,2023-10-21T15:15:54.719347Z,1697901354719
-1.4137802124023438,1.1842002868652344,1.2242560386657715,2023-10-21T15:15:54.739752Z,1697901354739
-1.566765308380127,1.2913627624511719,1.2947564125061035,2023-10-21T15:15:54.759834Z,1697901354759
-1.735511302947998,1.3965868949890137,1.3536663055419922,2023-10-21T15:15:54.780221Z,1697901354780
-1.9197092056274414,1.4917633533477783,1.3901209831237793,2023-10-21T15:15:54.800427Z,1697901354800
-2.1227660179138184,1.5742266178131104,1.4031426906585693,2023-10-21T15:15:54.820648Z,1697901354820
-2.3431215286254883,1.6360549926757812,1.3875095844268799,2023-10-21T15:15:54.843100Z,1697901354843
-2.57875919342041,1.670670747756958,1.3393418788909912,2023-10-21T15:15:54.861125Z,1697901354861
-2.8262434005737305,1.672715663909912,1.2571654319763184,2023-10-21T15:15:54.881461Z,1697901354881
-3.0784029960632324,1.6353654861450195,1.1394213438034058,2023-10-21T15:15:54.901698Z,1697901354901
-3.3205418586730957,1.5502963066101074,0.9849796295166016,2023-10-21T15:15:54.921990Z,1697901354921
-3.5339136123657227,1.4126050472259521,0.7974907159805298,2023-10-21T15:15:54.942965Z,1697901354942
-3.6989188194274902,1.224975347518921,0.5864442586898804,2023-10-21T15:15:54.962493Z,1697901354962
-3.7863879203796387,0.9955646991729736,0.3617737889289856,2023-10-21T15:15:54.982757Z,1697901354982
-3.767423629760742,0.7449257373809814,0.1432589292526245,2023-10-21T15:15:55.002978Z,1697901355002
-3.6572580337524414,0.5014317631721497,-0.04112306237220764,2023-10-21T15:15:55.026419Z,1697901355026
-3.4759316444396973,0.284626841545105,-0.17622175812721252,2023-10-21T15:15:55.043458Z,1697901355043
-3.2534403800964355,0.10232606530189514,-0.26193416118621826,2023-10-21T15:15:55.063757Z,1697901355063
-2.9798316955566406,-0.03956133872270584,-0.30446434020996094,2023-10-21T15:15:55.084046Z,1697901355084
-2.6472134590148926,-0.13637587428092957,-0.309378445148468,2023-10-21T15:15:55.104285Z,1697901355104
-2.2746996879577637,-0.19126570224761963,-0.28544551134109497,2023-10-21T15:15:55.126081Z,1697901355126
-1.8740220069885254,-0.2091788649559021,-0.24166595935821533,2023-10-21T15:15:55.144886Z,1697901355144
-1.454543113708496,-0.19607126712799072,-0.1867448091506958,2023-10-21T15:15:55.165131Z,1697901355165
-1.0332860946655273,-0.15999436378479004,-0.128631591796875,2023-10-21T15:15:55.185387Z,1697901355185
-0.6281185150146484,-0.1088857650756836,-0.07424724102020264,2023-10-21T15:15:55.205594Z,1697901355205
-0.2327289581298828,-0.04423785209655762,-0.02576589584350586,2023-10-21T15:15:55.226193Z,1697901355226
0.15251922607421875,0.03129589557647705,0.015731453895568848,2023-10-21T15:15:55.246207Z,1697901355246
0.5343227386474609,0.11641645431518555,0.05113905668258667,2023-10-21T15:15:55.266448Z,1697901355266
0.8939838409423828,0.2047879695892334,0.07864463329315186,2023-10-21T15:15:55.286704Z,1697901355286
1.2149248123168945,0.290879487991333,0.09648579359054565,2023-10-21T15:15:55.309362Z,1697901355309
1.500920295715332,0.3731381893157959,0.10494101047515869,2023-10-21T15:15:55.327198Z,1697901355327
1.7523298263549805,0.44990110397338867,0.10435301065444946,2023-10-21T15:15:55.347491Z,1697901355347
1.972982406616211,0.5205099582672119,0.09541088342666626,2023-10-21T15:15:55.367767Z,1697901355367
2.167160987854004,0.5844156742095947,0.0792953372001648,2023-10-21T15:15:55.388054Z,1697901355388
2.3358898162841797,0.640390157699585,0.057376205921173096,2023-10-21T15:15:55.409378Z,1697901355409
2.476799964904785,0.6872341632843018,0.031305745244026184,2023-10-21T15:15:55.428544Z,1697901355428
2.5883407592773438,0.7245078086853027,0.002845420502126217,2023-10-21T15:15:55.448820Z,1697901355448
2.6721248626708984,0.7526228427886963,-0.02599944919347763,2023-10-21T15:15:55.469008Z,1697901355468
2.728999137878418,0.7718939781188965,-0.05343843996524811,2023-10-21T15:15:55.492726Z,1697901355492
2.7576751708984375,0.7825732231140137,-0.0777919590473175,2023-10-21T15:15:55.509834Z,1697901355509
2.7565555572509766,0.7851400375366211,-0.09795483946800232,2023-10-21T15:15:55.529876Z,1697901355529
2.72371768951416,0.7800869941711426,-0.11349034309387207,2023-10-21T15:15:55.550132Z,1697901355550
2.6568374633789062,0.7675034999847412,-0.12440997362136841,2023-10-21T15:15:55.570364Z,1697901355570
2.5527267456054688,0.7467489242553711,-0.13117390871047974,2023-10-21T15:15:55.592351Z,1697901355592
2.4118289947509766,0.7174839973449707,-0.13446348905563354,2023-10-21T15:15:55.610893Z,1697901355610
2.240780830383301,0.6805078983306885,-0.13532131910324097,2023-10-21T15:15:55.631176Z,1697901355631
2.0476884841918945,0.637026309967041,-0.13449323177337646,2023-10-21T15:15:55.651451Z,1697901355651
1.8393421173095703,0.5880777835845947,-0.13213032484054565,2023-10-21T15:15:55.671642Z,1697901355671
1.619882583618164,0.5340602397918701,-0.12794268131256104,2023-10-21T15:15:55.692346Z,1697901355692
1.3938961029052734,0.4753999710083008,-0.12163639068603516,2023-10-21T15:15:55.712208Z,1697901355712
1.169428825378418,0.41347503662109375,-0.11309301853179932,2023-10-21T15:15:55.732494Z,1697901355732
0.956019401550293,0.35056567192077637,-0.10250771045684814,2023-10-21T15:15:55.752732Z,1697901355752
0.761754035949707,0.28935933113098145,-0.09022295475006104,2023-10-21T15:15:55.776094Z,1697901355776
0.5924701690673828,0.23260998725891113,-0.076896071434021,2023-10-21T15:15:55.793260Z,1697901355793
0.4512767791748047,0.18263959884643555,-0.06344795227050781,2023-10-21T15:15:55.813548Z,1697901355813
0.3379507064819336,0.14052796363830566,-0.05074608325958252,2023-10-21T15:15:55.833852Z,1697901355833
0.2496662139892578,0.10623407363891602,-0.03944849967956543,2023-10-21T15:15:55.854099Z,1697901355854
0.18290996551513672,0.07928824424743652,-0.030022144317626953,2023-10-21T15:15:55.875882Z,1697901355875
0.1362133026123047,0.05989861488342285,-0.02299630641937256,2023-10-21T15:15:55.894641Z,1697901355894
0.10935115814208984,0.04860258102416992,-0.018853306770324707,2023-10-21T15:15:55.914931Z,1697901355914
0.09954357147216797,0.04459786415100098,-0.017444968223571777,2023-10-21T15:15:55.935168Z,1697901355935
0.10102462768554688,0.045549631118774414,-0.01794910430908203,2023-10-21T15:15:55.955425Z,1697901355955
0.1078805923461914,0.04892110824584961,-0.01943790912628174,2023-10-21T15:15:55.975632Z,1697901355975
0.1168527603149414,0.05331563949584961,-0.021440625190734863,2023-10-21T15:15:55.995914Z,1697901355995
0.1265087127685547,0.058129310607910156,-0.023816823959350586,2023-10-21T15:15:56.016184Z,1697901356016
0.13715362548828125,0.06353902816772461,-0.02675807476043701,2023-10-21T15:15:56.036477Z,1697901356036
0.15003585815429688,0.0701904296875,-0.030657410621643066,2023-10-21T15:15:56.058664Z,1697901356058
0.16670894622802734,0.07894182205200195,-0.036026835441589355,2023-10-21T15:15:56.076959Z,1697901356076
0.18749141693115234,0.09013032913208008,-0.04316568374633789,2023-10-21T15:15:56.097270Z,1697901356097
0.21100425720214844,0.1032719612121582,-0.051964521408081055,2023-10-21T15:15:56.117494Z,1697901356117
0.2351360321044922,0.1173868179321289,-0.06200432777404785,2023-10-21T15:15:56.137787Z,1697901356137
0.25850963592529297,0.13169240951538086,-0.07288861274719238,2023-10-21T15:15:56.158639Z,1697901356158
0.2807273864746094,0.1457657814025879,-0.08437156677246094,2023-10-21T15:15:56.178329Z,1697901356178
0.30205535888671875,0.15943479537963867,-0.09631156921386719,2023-10-21T15:15:56.198579Z,1697901356198
0.32260990142822266,0.1723794937133789,-0.10842180252075195,2023-10-21T15:15:56.218814Z,1697901356218
0.34093475341796875,0.18346309661865234,-0.11981439590454102,2023-10-21T15:15:56.241840Z,1697901356241
0.3538093566894531,0.19070911407470703,-0.1289229393005371,2023-10-21T15:15:56.259296Z,1697901356259
0.35764217376708984,0.19207048416137695,-0.1340639591217041,2023-10-21T15:15:56.279624Z,1697901356279
0.3511514663696289,0.18688344955444336,-0.13453888893127441,2023-10-21T15:15:56.299885Z,1697901356299
0.3351411819458008,0.17572927474975586,-0.1306166648864746,2023-10-21T15:15:56.320139Z,1697901356320
0.3129768371582031,0.16067934036254883,-0.12368083000183105,2023-10-21T15:15:56.341697Z,1697901356341
0.28888702392578125,0.14432001113891602,-0.11553621292114258,2023-10-21T15:15:56.360729Z,1697901356360
0.26578617095947266,0.1285080909729004,-0.10744929313659668,2023-10-21T15:15:56.380937Z,1697901356380
0.24439144134521484,0.11386990547180176,-0.09980106353759766,2023-10-21T15:15:56.401196Z,1697901356401
0.2238616943359375,0.10019516944885254,-0.09230446815490723,2023-10-21T15:15:56.421406Z,1697901356421
0.2041482925415039,0.08752608299255371,-0.08495473861694336,2023-10-21T15:15:56.441907Z,1697901356441
0.18694496154785156,0.0764932632446289,-0.07843232154846191,2023-10-21T15:15:56.462058Z,1697901356462
0.17280101776123047,0.06711483001708984,-0.07292461395263672,2023-10-21T15:15:56.482352Z,1697901356482
0.15937137603759766,0.058335304260253906,-0.06741690635681152,2023-10-21T15:15:56.502497Z,1697901356502
0.1426372528076172,0.04877305030822754,-0.06020331382751465,2023-10-21T15:15:56.525313Z,1697901356525
0.1178903579711914,0.03726363182067871,-0.04937744140625,2023-10-21T15:15:56.543014Z,1697901356542
0.08257675170898438,0.023812055587768555,-0.03411555290222168,2023-10-21T15:15:56.563310Z,1697901356563
0.03709125518798828,0.009590625762939453,-0.015018224716186523,2023-10-21T15:15:56.583614Z,1697901356583
-0.015285491943359375,-0.003464221954345703,0.006028175354003906,2023-10-21T15:15:56.603822Z,1697901356603
-0.06881904602050781,-0.013268351554870605,0.02628016471862793,2023-10-21T15:15:56.625070Z,1697901356625
-0.11777591705322266,-0.01855611801147461,0.043323516845703125,2023-10-21T15:15:56.644284Z,1697901356644
-0.15822982788085938,-0.019254446029663086,0.055832862854003906,2023-10-21T15:15:56.664608Z,1697901356664
-0.18726539611816406,-0.01609879732131958,0.06323075294494629,2023-10-21T15:15:56.684842Z,1697901356684
-0.20323944091796875,-0.010376185178756714,0.06562542915344238,2023-10-21T15:15:56.708560Z,1697901356708
-0.2047414779663086,-0.0035742521286010742,0.06333756446838379,2023-10-21T15:15:56.725536Z,1697901356725
-0.1904926300048828,0.0027474313974380493,0.05669903755187988,2023-10-21T15:15:56.745678Z,1697901356745
-0.16116714477539062,0.007149100303649902,0.04645800590515137,2023-10-21T15:15:56.765971Z,1697901356765
-0.11930084228515625,0.008631706237792969,0.03357863426208496,2023-10-21T15:15:56.786205Z,1697901356786
-0.07143211364746094,0.00704115629196167,0.019812583923339844,2023-10-21T15:15:56.808160Z,1697901356808
-0.026000022888183594,0.003204822540283203,0.00717473030090332,2023-10-21T15:15:56.826736Z,1697901356826
0.008463859558105469,-0.0012420415878295898,-0.0023462772369384766,2023-10-21T15:15:56.847046Z,1697901356846
0.02649211883544922,-0.004490971565246582,-0.007457733154296875,2023-10-21T15:15:56.867272Z,1697901356867
0.027315139770507812,-0.005246162414550781,-0.00788426399230957,2023-10-21T15:15:56.887530Z,1697901356887
0.012578964233398438,-0.0027004480361938477,-0.003757476806640625,2023-10-21T15:15:56.908229Z,1697901356908
-0.01616191864013672,0.0038383007049560547,0.005040884017944336,2023-10-21T15:15:56.928124Z,1697901356928
-0.05854034423828125,0.015245676040649414,0.019217967987060547,2023-10-21T15:15:56.948318Z,1697901356948
-0.11414051055908203,0.032328128814697266,0.03974127769470215,2023-10-21T15:15:56.968543Z,1697901356968
-0.17996788024902344,0.054927825927734375,0.06696414947509766,2023-10-21T15:15:56.991599Z,1697901356991
-0.249542236328125,0.0812537670135498,0.0999298095703125,2023-10-21T15:15:57.009044Z,1697901357009
-0.31462955474853516,0.10823512077331543,0.13634467124938965,2023-10-21T15:15:57.029343Z,1697901357029
-0.3675651550292969,0.13239645957946777,0.1729271411895752,2023-10-21T15:15:57.049606Z,1697901357049
-0.40276002883911133,0.1505579948425293,0.20595359802246094,2023-10-21T15:15:57.069877Z,1697901357069
-0.4196920394897461,0.16121530532836914,0.23322772979736328,2023-10-21T15:15:57.091223Z,1697901357091
-0.4198298454284668,0.16382694244384766,0.25338315963745117,2023-10-21T15:15:57.110442Z,1697901357110
-0.41487932205200195,0.16225266456604004,0.27221059799194336,2023-10-21T15:15:57.130699Z,1697901357130
-0.40419816970825195,0.15578341484069824,0.2879910469055176,2023-10-21T15:15:57.150962Z,1697901357150
-0.38454675674438477,0.1433420181274414,0.2958106994628906,2023-10-21T15:15:57.171162Z,1697901357171
-0.35604286193847656,0.12583279609680176,0.2930417060852051,2023-10-21T15:15:57.191446Z,1697901357191
-0.32155275344848633,0.10573911666870117,0.2803826332092285,2023-10-21T15:15:57.211709Z,1697901357211
-0.2884330749511719,0.08638548851013184,0.26500940322875977,2023-10-21T15:15:57.232009Z,1697901357231
-0.2555513381958008,0.06782388687133789,0.24640607833862305,2023-10-21T15:15:57.252287Z,1697901357252
-0.2229175567626953,0.050498366355895996,0.22470760345458984,2023-10-21T15:15:57.274516Z,1697901357274
-0.19031476974487305,0.034877777099609375,0.19975614547729492,2023-10-21T15:15:57.292762Z,1697901357292
-0.15819263458251953,0.021554529666900635,0.1720113754272461,2023-10-21T15:15:57.313085Z,1697901357313
-0.12043952941894531,0.01053619384765625,0.13443803787231445,2023-10-21T15:15:57.333355Z,1697901357333
-0.0782618522644043,0.0030521005392074585,0.08885717391967773,2023-10-21T15:15:57.353610Z,1697901357353
-0.03424882888793945,-2.902485430240631E-4,0.039310455322265625,2023-10-21T15:15:57.374633Z,1697901357374
0.008184432983398438,4.4915080070495605E-4,-0.00946044921875,2023-10-21T15:15:57.394274Z,1697901357394
0.047458648681640625,0.004793345928192139,-0.055048465728759766,2023-10-21T15:15:57.414411Z,1697901357414
0.0844879150390625,0.012304723262786865,-0.09763669967651367,2023-10-21T15:15:57.434633Z,1697901357434
0.11645936965942383,0.021941542625427246,-0.13303899765014648,2023-10-21T15:15:57.457703Z,1697901357457
0.1415724754333496,0.0324021577835083,-0.15866518020629883,2023-10-21T15:15:57.475113Z,1697901357475
0.15747737884521484,0.04197573661804199,-0.171875,2023-10-21T15:15:57.495409Z,1697901357495
0.16261672973632812,0.048970699310302734,-0.17160463333129883,2023-10-21T15:15:57.515676Z,1697901357515
0.1570262908935547,0.05233645439147949,-0.15921545028686523,2023-10-21T15:15:57.535944Z,1697901357535
0.14247894287109375,0.051840782165527344,-0.13806390762329102,2023-10-21T15:15:57.557641Z,1697901357557
0.1209859848022461,0.04758644104003906,-0.1115260124206543,2023-10-21T15:15:57.576574Z,1697901357576
0.09422492980957031,0.03971433639526367,-0.08227825164794922,2023-10-21T15:15:57.596746Z,1697901357596
0.0634164810180664,0.028383731842041016,-0.05222940444946289,2023-10-21T15:15:57.617008Z,1697901357616
0.035386085510253906,0.01658916473388672,-0.027297496795654297,2023-10-21T15:15:57.637232Z,1697901357637
0.010535240173339844,0.00510096549987793,-0.007567882537841797,2023-10-21T15:15:57.657802Z,1697901357657
-0.010609626770019531,-0.005245208740234375,0.007084369659423828,2023-10-21T15:15:57.677871Z,1697901357677
-0.026627540588378906,-0.013324737548828125,0.016559600830078125,2023-10-21T15:15:57.698060Z,1697901357698
-0.03319740295410156,-0.016690969467163086,0.019301891326904297,2023-10-21T15:15:57.718350Z,1697901357718
-0.02516317367553711,-0.012569189071655273,0.01368570327758789,2023-10-21T15:15:57.740957Z,1697901357740
-0.005828380584716797,-0.0028591156005859375,0.0029649734497070312,2023-10-21T15:15:57.758849Z,1697901357758
0.023252487182617188,0.011086463928222656,-0.011078357696533203,2023-10-21T15:15:57.779143Z,1697901357779
0.062409400939941406,0.02866506576538086,-0.027904033660888672,2023-10-21T15:15:57.799447Z,1697901357799
0.11294269561767578,0.04963254928588867,-0.04757833480834961,2023-10-21T15:15:57.819671Z,1697901357819
0.16503047943115234,0.06935596466064453,-0.0660395622253418,2023-10-21T15:15:57.840993Z,1697901357840
0.21835708618164062,0.08797740936279297,-0.08366703987121582,2023-10-21T15:15:57.861077Z,1697901357861
0.2761383056640625,0.1069028377532959,-0.10172343254089355,2023-10-21T15:15:57.880450Z,1697901357880
0.3399648666381836,0.12670397758483887,-0.12054014205932617,2023-10-21T15:15:57.900760Z,1697901357900
0.4051494598388672,0.14553380012512207,-0.13834285736083984,2023-10-21T15:15:57.920989Z,1697901357920
0.45896244049072266,0.15960979461669922,-0.15181970596313477,2023-10-21T15:15:57.941192Z,1697901357941
0.5025529861450195,0.1697998046875,-0.1622481346130371,2023-10-21T15:15:57.961509Z,1697901357961
0.540064811706543,0.17763471603393555,-0.1714315414428711,2023-10-21T15:15:57.981795Z,1697901357981
0.5759191513061523,0.18451833724975586,-0.1810588836669922,2023-10-21T15:15:58.002032Z,1697901358001
0.6121225357055664,0.1910839080810547,-0.19197320938110352,2023-10-21T15:15:58.024033Z,1697901358023
0.6508607864379883,0.19791555404663086,-0.20499491691589355,2023-10-21T15:15:58.042537Z,1697901358042
0.6936273574829102,0.205413818359375,-0.22069573402404785,2023-10-21T15:15:58.062825Z,1697901358062
0.7405385971069336,0.21357226371765137,-0.23911333084106445,2023-10-21T15:15:58.083048Z,1697901358083
0.7918434143066406,0.22242164611816406,-0.2600429058074951,2023-10-21T15:15:58.103300Z,1697901358103
0.8460445404052734,0.23159408569335938,-0.28244638442993164,2023-10-21T15:15:58.123782Z,1697901358123
0.8989944458007812,0.24022865295410156,-0.30442070960998535,2023-10-21T15:15:58.143891Z,1697901358143
0.9451065063476562,0.24730515480041504,-0.32358407974243164,2023-10-21T15:15:58.164135Z,1697901358164
0.9793567657470703,0.2519974708557129,-0.3377413749694824,2023-10-21T15:15:58.184455Z,1697901358184
0.9975223541259766,0.2537877559661865,-0.3449270725250244,2023-10-21T15:15:58.207180Z,1697901358207
0.9959621429443359,0.252366304397583,-0.34359192848205566,2023-10-21T15:15:58.224874Z,1697901358224
0.9721698760986328,0.24751830101013184,-0.332899808883667,2023-10-21T15:15:58.245177Z,1697901358245
0.9260807037353516,0.23909735679626465,-0.3131749629974365,2023-10-21T15:15:58.265453Z,1697901358265
0.8591899871826172,0.22684192657470703,-0.28560304641723633,2023-10-21T15:15:58.285726Z,1697901358285
0.7736272811889648,0.21041131019592285,-0.2518496513366699,2023-10-21T15:15:58.307031Z,1697901358306
0.6734647750854492,0.18989205360412598,-0.21420741081237793,2023-10-21T15:15:58.326316Z,1697901358326
0.5660152435302734,0.16628098487854004,-0.1757051944732666,2023-10-21T15:15:58.346535Z,1697901358346
0.45940589904785156,0.14112401008605957,-0.1391770839691162,2023-10-21T15:15:58.366755Z,1697901358366
0.3605022430419922,0.11603045463562012,-0.10666084289550781,2023-10-21T15:15:58.387008Z,1697901358386
0.27477264404296875,0.09267354011535645,-0.07950496673583984,2023-10-21T15:15:58.407284Z,1697901358407
0.20647335052490234,0.07286262512207031,-0.05852818489074707,2023-10-21T15:15:58.427555Z,1697901358427
0.1581735610961914,0.0582430362701416,-0.04399824142456055,2023-10-21T15:15:58.447881Z,1697901358447
0.12840843200683594,0.0491948127746582,-0.035114288330078125,2023-10-21T15:15:58.468075Z,1697901358468
0.1127786636352539,0.04482865333557129,-0.030365943908691406,2023-10-21T15:15:58.490250Z,1697901358490
0.1066274642944336,0.04385495185852051,-0.02830028533935547,2023-10-21T15:15:58.508574Z,1697901358508
0.1064767837524414,0.04517340660095215,-0.02786850929260254,2023-10-21T15:15:58.528879Z,1697901358528
0.11036205291748047,0.04812932014465332,-0.02846550941467285,2023-10-21T15:15:58.549134Z,1697901358549
0.1169271469116211,0.0522160530090332,-0.02969217300415039,2023-10-21T15:15:58.569374Z,1697901358569
0.12496089935302734,0.05693411827087402,-0.031210899353027344,2023-10-21T15:15:58.590138Z,1697901358590
0.13224124908447266,0.06126594543457031,-0.032479286193847656,2023-10-21T15:15:58.610037Z,1697901358609
0.13723278045654297,0.06443214416503906,-0.033167123794555664,2023-10-21T15:15:58.630256Z,1697901358630
0.14009571075439453,0.06638717651367188,-0.03335976600646973,2023-10-21T15:15:58.650457Z,1697901358650
0.1426076889038086,0.06787490844726562,-0.03352642059326172,2023-10-21T15:15:58.673494Z,1697901358673
0.14702415466308594,0.06990909576416016,-0.03423619270324707,2023-10-21T15:15:58.690967Z,1697901358690
0.1543865203857422,0.07295989990234375,-0.0357818603515625,2023-10-21T15:15:58.711281Z,1697901358711
0.1653757095336914,0.07732152938842773,-0.03839683532714844,2023-10-21T15:15:58.731518Z,1697901358731
0.18044090270996094,0.08315038681030273,-0.042253971099853516,2023-10-21T15:15:58.751759Z,1697901358751
0.20001888275146484,0.09053611755371094,-0.04749798774719238,2023-10-21T15:15:58.773441Z,1697901358773
0.22358036041259766,0.09906482696533203,-0.05402088165283203,2023-10-21T15:15:58.792303Z,1697901358792
0.25086212158203125,0.1083841323852539,-0.06173849105834961,2023-10-21T15:15:58.812562Z,1697901358812
0.2808666229248047,0.11783170700073242,-0.07037234306335449,2023-10-21T15:15:58.832766Z,1697901358832
0.3119640350341797,0.1265859603881836,-0.07947444915771484,2023-10-21T15:15:58.852942Z,1697901358852
0.3436756134033203,0.13434123992919922,-0.08885717391967773,2023-10-21T15:15:58.873303Z,1697901358873
0.37689208984375,0.14136028289794922,-0.09866786003112793,2023-10-21T15:15:58.893617Z,1697901358893
0.41397953033447266,0.14833903312683105,-0.109405517578125,2023-10-21T15:15:58.913872Z,1697901358913
0.45738983154296875,0.15576481819152832,-0.1215202808380127,2023-10-21T15:15:58.934161Z,1697901358934
0.5084085464477539,0.16345858573913574,-0.13512372970581055,2023-10-21T15:15:58.956965Z,1697901358956
0.567896842956543,0.17097210884094238,-0.15021705627441406,2023-10-21T15:15:58.974687Z,1697901358974
0.6373424530029297,0.17804217338562012,-0.16705965995788574,2023-10-21T15:15:58.994951Z,1697901358994
0.7172145843505859,0.18410730361938477,-0.18568849563598633,2023-10-21T15:15:59.015165Z,1697901359015
0.8076648712158203,0.18848299980163574,-0.20601177215576172,2023-10-21T15:15:59.035395Z,1697901359035
0.906494140625,0.18990850448608398,-0.22727227210998535,2023-10-21T15:15:59.056526Z,1697901359056
1.0092763900756836,0.1868433952331543,-0.24814105033874512,2023-10-21T15:15:59.075977Z,1697901359075
1.1122303009033203,0.178125262260437,-0.2675344944000244,2023-10-21T15:15:59.096259Z,1697901359096
1.213998794555664,0.1631678342819214,-0.28502368927001953,2023-10-21T15:15:59.116468Z,1697901359116
1.3139162063598633,0.14173996448516846,-0.30053043365478516,2023-10-21T15:15:59.139780Z,1697901359139
1.4099750518798828,0.11389684677124023,-0.31399989128112793,2023-10-21T15:15:59.157009Z,1697901359156
1.4970932006835938,0.07993614673614502,-0.32503437995910645,2023-10-21T15:15:59.177310Z,1697901359177
1.5684080123901367,0.04070079326629639,-0.33301234245300293,2023-10-21T15:15:59.197535Z,1697901359197
1.618657112121582,-0.002247086726129055,-0.3375556468963623,2023-10-21T15:15:59.217840Z,1697901359217
1.6458721160888672,-0.04686287045478821,-0.3387916088104248,2023-10-21T15:15:59.239995Z,1697901359239
1.6506805419921875,-0.09116107225418091,-0.3372621536254883,2023-10-21T15:15:59.258347Z,1697901359258
1.6325616836547852,-0.1331104040145874,-0.33337998390197754,2023-10-21T15:15:59.278652Z,1697901359278
1.5887174606323242,-0.17048656940460205,-0.3271195888519287,2023-10-21T15:15:59.298948Z,1697901359298
1.5145273208618164,-0.20091164112091064,-0.31792497634887695,2023-10-21T15:15:59.319099Z,1697901359319
1.4091215133666992,-0.2223747968673706,-0.3052327632904053,2023-10-21T15:15:59.339839Z,1697901359339
1.275299072265625,-0.23357737064361572,-0.2881500720977783,2023-10-21T15:15:59.359647Z,1697901359359
1.1172971725463867,-0.23354196548461914,-0.26541852951049805,2023-10-21T15:15:59.379920Z,1697901359379
0.9405584335327148,-0.2217850685119629,-0.2360236644744873,2023-10-21T15:15:59.400190Z,1697901359400
0.750330924987793,-0.19799327850341797,-0.19935822486877441,2023-10-21T15:15:59.422966Z,1697901359422
0.5517568588256836,-0.1619725227355957,-0.15546822547912598,2023-10-21T15:15:59.440716Z,1697901359440
0.3509635925292969,-0.11397957801818848,-0.10506582260131836,2023-10-21T15:15:59.461019Z,1697901359460
0.13981151580810547,-0.04991340637207031,-0.04471945762634277,2023-10-21T15:15:59.481259Z,1697901359481
-0.07902336120605469,0.0307924747467041,0.02711939811706543,2023-10-21T15:15:59.501500Z,1697901359501
-0.29073143005371094,0.12264704704284668,0.10676169395446777,2023-10-21T15:15:59.523017Z,1697901359522
-0.4991874694824219,0.22635912895202637,0.1947488784790039,2023-10-21T15:15:59.542067Z,1697901359542
-0.6907858848571777,0.33441162109375,0.2833230495452881,2023-10-21T15:15:59.562310Z,1697901359562
-0.8818740844726562,0.4528055191040039,0.37908315658569336,2023-10-21T15:15:59.582569Z,1697901359582
-1.0663714408874512,0.5765056610107422,0.4801802635192871,2023-10-21T15:15:59.602773Z,1697901359602
-1.2399282455444336,0.6997525691986084,0.5848977565765381,2023-10-21T15:15:59.623066Z,1697901359623
-1.406853199005127,0.8225927352905273,0.6952722072601318,2023-10-21T15:15:59.643412Z,1697901359643
-1.5730509757995605,0.9469952583312988,0.8134591579437256,2023-10-21T15:15:59.663661Z,1697901359663
-1.7345399856567383,1.0678284168243408,0.93084716796875,2023-10-21T15:15:59.683898Z,1697901359683
-1.8919010162353516,1.1827771663665771,1.041919231414795,2023-10-21T15:15:59.706214Z,1697901359706
-2.051581382751465,1.2943274974822998,1.1502344608306885,2023-10-21T15:15:59.724433Z,1697901359724
-2.211121082305908,1.3964529037475586,1.2541029453277588,2023-10-21T15:15:59.744695Z,1697901359744
-2.3839735984802246,1.4951684474945068,1.3649640083312988,2023-10-21T15:15:59.764915Z,1697901359764
-2.564035415649414,1.5796515941619873,1.4658362865447998,2023-10-21T15:15:59.785162Z,1697901359785
-2.7574567794799805,1.6481168270111084,1.551525592803955,2023-10-21T15:15:59.806203Z,1697901359806
-2.9675087928771973,1.6948974132537842,1.6149570941925049,2023-10-21T15:15:59.825742Z,1697901359825
-3.192160129547119,1.7065553665161133,1.6457600593566895,2023-10-21T15:15:59.846046Z,1697901359846
-3.4229726791381836,1.6693861484527588,1.6363880634307861,2023-10-21T15:15:59.866230Z,1697901359866
-3.6431469917297363,1.5727977752685547,1.583688497543335,2023-10-21T15:15:59.889528Z,1697901359889
-3.8297743797302246,1.4127321243286133,1.489894151687622,2023-10-21T15:15:59.906789Z,1697901359906
-3.959017753601074,1.1956884860992432,1.362075924873352,2023-10-21T15:15:59.927066Z,1697901359927
-4.008984565734863,0.937835693359375,1.209688425064087,2023-10-21T15:15:59.947298Z,1697901359947
-3.96486759185791,0.6638322472572327,1.044034719467163,2023-10-21T15:15:59.967520Z,1697901359967
-3.808187484741211,0.4025694727897644,0.8662278652191162,2023-10-21T15:15:59.989446Z,1697901359989
-3.5399603843688965,0.1819821000099182,0.6904937028884888,2023-10-21T15:16:00.008098Z,1697901360008
-3.1872262954711914,0.01666620373725891,0.5372517108917236,2023-10-21T15:16:00.028407Z,1697901360028
-2.7647347450256348,-0.09209102392196655,0.41272222995758057,2023-10-21T15:16:00.048625Z,1697901360048
-2.310647487640381,-0.15365397930145264,0.3166106939315796,2023-10-21T15:16:00.068843Z,1697901360068
-1.825113296508789,-0.17152297496795654,0.23406195640563965,2023-10-21T15:16:00.089290Z,1697901360089
-1.3308563232421875,-0.15533101558685303,0.16102361679077148,2023-10-21T15:16:00.109422Z,1697901360109
-0.8481245040893555,-0.11498594284057617,0.09712064266204834,2023-10-21T15:16:00.129689Z,1697901360129
-0.3833465576171875,-0.05806899070739746,0.04173696041107178,2023-10-21T15:16:00.149883Z,1697901360149
0.06037139892578125,0.00996708869934082,-0.006308317184448242,2023-10-21T15:16:00.172492Z,1697901360172
0.4665994644165039,0.08294308185577393,-0.04787611961364746,2023-10-21T15:16:00.190458Z,1697901360190
0.8289337158203125,0.15774190425872803,-0.08571600914001465,2023-10-21T15:16:00.210754Z,1697901360210
1.1560049057006836,0.23395991325378418,-0.1227109432220459,2023-10-21T15:16:00.230987Z,1697901360230
1.4423818588256836,0.3084714412689209,-0.15879058837890625,2023-10-21T15:16:00.251250Z,1697901360251
1.7093820571899414,0.38150548934936523,-0.1960386037826538,2023-10-21T15:16:00.272323Z,1697901360272
1.9441537857055664,0.4497218132019043,-0.23545777797698975,2023-10-21T15:16:00.291778Z,1697901360291
2.1533899307250977,0.5130274295806885,-0.2791100740432739,2023-10-21T15:16:00.312077Z,1697901360312
2.3411903381347656,0.5713026523590088,-0.3278486728668213,2023-10-21T15:16:00.332290Z,1697901360332
2.5021743774414062,0.6221253871917725,-0.38000786304473877,2023-10-21T15:16:00.352558Z,1697901360352
2.636256217956543,0.6643810272216797,-0.43356072902679443,2023-10-21T15:16:00.372824Z,1697901360372
2.7445268630981445,0.6976053714752197,-0.4860727787017822,2023-10-21T15:16:00.393121Z,1697901360393
2.8253021240234375,0.7211768627166748,-0.5344462394714355,2023-10-21T15:16:00.413356Z,1697901360413
2.8749332427978516,0.7346775531768799,-0.5755224227905273,2023-10-21T15:16:00.433617Z,1697901360433
2.8892345428466797,0.7381856441497803,-0.6065104007720947,2023-10-21T15:16:00.455612Z,1697901360455
2.863740921020508,0.7318422794342041,-0.6255507469177246,2023-10-21T15:16:00.474185Z,1697901360474
2.797616958618164,0.7163131237030029,-0.6323785781860352,2023-10-21T15:16:00.494439Z,1697901360494
2.6930856704711914,0.6925554275512695,-0.6281256675720215,2023-10-21T15:16:00.514650Z,1697901360514
2.554231643676758,0.6621367931365967,-0.6139764785766602,2023-10-21T15:16:00.534857Z,1697901360534
2.3855838775634766,0.6267299652099609,-0.5910048484802246,2023-10-21T15:16:00.555432Z,1697901360555
2.1920337677001953,0.5871467590332031,-0.559938907623291,2023-10-21T15:16:00.575473Z,1697901360575
1.9788179397583008,0.5436420440673828,-0.5216794013977051,2023-10-21T15:16:00.595768Z,1697901360595
1.7525224685668945,0.49651622772216797,-0.477555513381958,2023-10-21T15:16:00.615986Z,1697901360615
1.5204229354858398,0.44617557525634766,-0.428816556930542,2023-10-21T15:16:00.638768Z,1697901360638
1.2920026779174805,0.39382195472717285,-0.37718844413757324,2023-10-21T15:16:00.656519Z,1697901360656
1.0757522583007812,0.34090304374694824,-0.324491024017334,2023-10-21T15:16:00.676805Z,1697901360676
0.8777017593383789,0.28894925117492676,-0.27239012718200684,2023-10-21T15:16:00.697061Z,1697901360697
0.7024707794189453,0.23972344398498535,-0.22288894653320312,2023-10-21T15:16:00.717288Z,1697901360717
0.5528144836425781,0.1949315071105957,-0.17790818214416504,2023-10-21T15:16:00.738619Z,1697901360738
0.4307594299316406,0.15642380714416504,-0.139420747756958,2023-10-21T15:16:00.757899Z,1697901360757
0.3335390090942383,0.12444806098937988,-0.10779643058776855,2023-10-21T15:16:00.778127Z,1697901360778
0.2586402893066406,0.09901928901672363,-0.08297419548034668,2023-10-21T15:16:00.798366Z,1697901360798
0.2060079574584961,0.08080029487609863,-0.0652933120727539,2023-10-21T15:16:00.818606Z,1697901360818
0.1761484146118164,0.0706474781036377,-0.05493021011352539,2023-10-21T15:16:00.838883Z,1697901360838
0.16713714599609375,0.06843805313110352,-0.051128387451171875,2023-10-21T15:16:00.859179Z,1697901360859
0.1722707748413086,0.07198667526245117,-0.05162501335144043,2023-10-21T15:16:00.879423Z,1697901360879
0.1837787628173828,0.07842516899108887,-0.05399751663208008,2023-10-21T15:16:00.899673Z,1697901360899
0.19646739959716797,0.08571696281433105,-0.05672430992126465,2023-10-21T15:16:00.921724Z,1697901360921
0.20804309844970703,0.0928494930267334,-0.05921769142150879,2023-10-21T15:16:00.940218Z,1697901360940
0.21659469604492188,0.09881734848022461,-0.06097769737243652,2023-10-21T15:16:00.960519Z,1697901360960
0.22252941131591797,0.10357236862182617,-0.062059640884399414,2023-10-21T15:16:00.980741Z,1697901360980
0.22551918029785156,0.10679864883422852,-0.06231522560119629,2023-10-21T15:16:01.000980Z,1697901361000
0.2252063751220703,0.10827970504760742,-0.061589956283569336,2023-10-21T15:16:01.021935Z,1697901361021
0.22122955322265625,0.10782814025878906,-0.059823036193847656,2023-10-21T15:16:01.041543Z,1697901361041
0.21263599395751953,0.10491609573364258,-0.05685138702392578,2023-10-21T15:16:01.061895Z,1697901361061
0.20091915130615234,0.1001734733581543,-0.05317568778991699,2023-10-21T15:16:01.082092Z,1697901361082
0.18866443634033203,0.09481620788574219,-0.04952573776245117,2023-10-21T15:16:01.105196Z,1697901361105
0.177886962890625,0.08986139297485352,-0.0464327335357666,2023-10-21T15:16:01.122583Z,1697901361122
0.1714019775390625,0.08674049377441406,-0.04457545280456543,2023-10-21T15:16:01.142889Z,1697901361142
0.16973114013671875,0.08573246002197266,-0.04406237602233887,2023-10-21T15:16:01.163116Z,1697901361163
0.17255496978759766,0.08668136596679688,-0.044847726821899414,2023-10-21T15:16:01.183352Z,1697901361183
0.17901611328125,0.08916139602661133,-0.04681038856506348,2023-10-21T15:16:01.205253Z,1697901361205
0.18783187866210938,0.09250879287719727,-0.04971194267272949,2023-10-21T15:16:01.223910Z,1697901361223
0.19792556762695312,0.09609651565551758,-0.05330038070678711,2023-10-21T15:16:01.244203Z,1697901361244
0.20900249481201172,0.09961748123168945,-0.05743288993835449,2023-10-21T15:16:01.264399Z,1697901361264
0.2214822769165039,0.10306310653686523,-0.06210017204284668,2023-10-21T15:16:01.284657Z,1697901361284
0.2355365753173828,0.10625886917114258,-0.06721210479736328,2023-10-21T15:16:01.304950Z,1697901361304
0.25164127349853516,0.10916781425476074,-0.07279348373413086,2023-10-21T15:16:01.325241Z,1697901361325
0.26866912841796875,0.11108827590942383,-0.07845568656921387,2023-10-21T15:16:01.345517Z,1697901361345
0.2873268127441406,0.11217379570007324,-0.08437180519104004,2023-10-21T15:16:01.365706Z,1697901361365
0.3084754943847656,0.11259603500366211,-0.09078335762023926,2023-10-21T15:16:01.388216Z,1697901361388
0.3326416015625,0.11230731010437012,-0.09782147407531738,2023-10-21T15:16:01.406266Z,1697901361406
0.36058807373046875,0.11127734184265137,-0.10576272010803223,2023-10-21T15:16:01.426571Z,1697901361426
0.39281654357910156,0.1093900203704834,-0.11488008499145508,2023-10-21T15:16:01.446792Z,1697901361446
0.4285888671875,0.10627126693725586,-0.12519431114196777,2023-10-21T15:16:01.467050Z,1697901361467
0.46330738067626953,0.10088562965393066,-0.13565564155578613,2023-10-21T15:16:01.488439Z,1697901361488
0.49051761627197266,0.09239637851715088,-0.1446685791015625,2023-10-21T15:16:01.507609Z,1697901361507
0.5035762786865234,0.08053958415985107,-0.1504988670349121,2023-10-21T15:16:01.527908Z,1697901361527
0.49938488006591797,0.06609535217285156,-0.15221643447875977,2023-10-21T15:16:01.548126Z,1697901361548
0.4780302047729492,0.05038249492645264,-0.14952611923217773,2023-10-21T15:16:01.571789Z,1697901361571
0.4414987564086914,0.0348048210144043,-0.14244866371154785,2023-10-21T15:16:01.588899Z,1697901361588
0.39237022399902344,0.02058422565460205,-0.13112401962280273,2023-10-21T15:16:01.608958Z,1697901361608
0.3324699401855469,0.008675992488861084,-0.11545491218566895,2023-10-21T15:16:01.629151Z,1697901361629
0.26137733459472656,-9.355857037007809E-5,-0.09463334083557129,2023-10-21T15:16:01.649453Z,1697901361649
0.18034744262695312,-0.004863366484642029,-0.06832122802734375,2023-10-21T15:16:01.671349Z,1697901361671
0.09425640106201172,-0.005063742399215698,-0.03750348091125488,2023-10-21T15:16:01.689979Z,1697901361689
0.009263038635253906,-7.471442222595215E-4,-0.003885030746459961,2023-10-21T15:16:01.710362Z,1697901361710
-0.06828594207763672,0.007362723350524902,0.03026413917541504,2023-10-21T15:16:01.730470Z,1697901361730
-0.13437271118164062,0.018149256706237793,0.06304645538330078,2023-10-21T15:16:01.750679Z,1697901361750
-0.18550395965576172,0.030124902725219727,0.09223222732543945,2023-10-21T15:16:01.771218Z,1697901361771
-0.21843338012695312,0.04146075248718262,0.11512899398803711,2023-10-21T15:16:01.791300Z,1697901361791
-0.23229503631591797,0.050438761711120605,0.12975502014160156,2023-10-21T15:16:01.811591Z,1697901361811
-0.2307424545288086,0.05623829364776611,0.13646507263183594,2023-10-21T15:16:01.831783Z,1697901361831
-0.21801280975341797,0.05856895446777344,0.1362910270690918,2023-10-21T15:16:01.854616Z,1697901361854
-0.20258808135986328,0.058962106704711914,0.13382530212402344,2023-10-21T15:16:01.872340Z,1697901361872
-0.19644641876220703,0.06090235710144043,0.13711071014404297,2023-10-21T15:16:01.892633Z,1697901361892
-0.1993122100830078,0.06480860710144043,0.14667415618896484,2023-10-21T15:16:01.912902Z,1697901361912
-0.20711326599121094,0.06960225105285645,0.1597433090209961,2023-10-21T15:16:01.933083Z,1697901361933
-0.21231698989868164,0.07279467582702637,0.1702589988708496,2023-10-21T15:16:01.954422Z,1697901361954
-0.2178049087524414,0.07533049583435059,0.18048477172851562,2023-10-21T15:16:01.973717Z,1697901361973
-0.23288583755493164,0.08034920692443848,0.19886255264282227,2023-10-21T15:16:01.993978Z,1697901361993
-0.2581634521484375,0.08784914016723633,0.226654052734375,2023-10-21T15:16:02.014232Z,1697901362014
-0.28833580017089844,0.0957334041595459,0.2592935562133789,2023-10-21T15:16:02.034423Z,1697901362034
-0.32019710540771484,0.10275840759277344,0.29347991943359375,2023-10-21T15:16:02.054696Z,1697901362054
-0.3501548767089844,0.10772204399108887,0.3246116638183594,2023-10-21T15:16:02.075001Z,1697901362074
-0.37035083770751953,0.1085669994354248,0.34402036666870117,2023-10-21T15:16:02.095295Z,1697901362095
-0.38048553466796875,0.10564267635345459,0.3511500358581543,2023-10-21T15:16:02.115471Z,1697901362115
-0.38384056091308594,0.10023260116577148,0.3502054214477539,2023-10-21T15:16:02.137522Z,1697901362137
-0.3895092010498047,0.09456968307495117,0.3503270149230957,2023-10-21T15:16:02.156036Z,1697901362155
-0.3997645378112793,0.08868443965911865,0.3528757095336914,2023-10-21T15:16:02.176327Z,1697901362176
-0.4104900360107422,0.08142435550689697,0.3528914451599121,2023-10-21T15:16:02.196537Z,1697901362196
-0.42214250564575195,0.07287931442260742,0.35045337677001953,2023-10-21T15:16:02.216723Z,1697901362216
-0.43831443786621094,0.06355857849121094,0.34874629974365234,2023-10-21T15:16:02.237513Z,1697901362237
-0.46050453186035156,0.05332493782043457,0.3486614227294922,2023-10-21T15:16:02.257335Z,1697901362257
-0.4904332160949707,0.04174858331680298,0.3509650230407715,2023-10-21T15:16:02.277638Z,1697901362277
-0.530397891998291,0.02803349494934082,0.3564767837524414,2023-10-21T15:16:02.297923Z,1697901362297
-0.5808048248291016,0.010988801717758179,0.3645625114440918,2023-10-21T15:16:02.320893Z,1697901362320
-0.6379551887512207,-0.010389670729637146,0.3721308708190918,2023-10-21T15:16:02.338477Z,1697901362338
-0.696113109588623,-0.03628653287887573,0.375643253326416,2023-10-21T15:16:02.358917Z,1697901362358
-0.7459392547607422,-0.06525063514709473,0.36997413635253906,2023-10-21T15:16:02.378957Z,1697901362378
-0.7738218307495117,-0.09347265958786011,0.35034656524658203,2023-10-21T15:16:02.399175Z,1697901362399
-0.7779083251953125,-0.11809909343719482,0.3201615810394287,2023-10-21T15:16:02.420783Z,1697901362420
-0.7644023895263672,-0.1383213996887207,0.2864069938659668,2023-10-21T15:16:02.439724Z,1697901362439
-0.7428522109985352,-0.15531527996063232,0.2545771598815918,2023-10-21T15:16:02.460030Z,1697901362459
-0.7088413238525391,-0.16701865196228027,0.22286629676818848,2023-10-21T15:16:02.480237Z,1697901362480
-0.6485280990600586,-0.16771769523620605,0.18708038330078125,2023-10-21T15:16:02.500434Z,1697901362500
-0.5594406127929688,-0.1550295352935791,0.14807987213134766,2023-10-21T15:16:02.520777Z,1697901362520
-0.446929931640625,-0.1302809715270996,0.10869789123535156,2023-10-21T15:16:02.541069Z,1697901362541
-0.31586170196533203,-0.09550619125366211,0.07072687149047852,2023-10-21T15:16:02.561316Z,1697901362561
-0.1753559112548828,-0.05449724197387695,0.036325693130493164,2023-10-21T15:16:02.581555Z,1697901362581
-0.037369728088378906,-0.011893033981323242,0.007196784019470215,2023-10-21T15:16:02.604079Z,1697901362604
0.09521961212158203,0.030956268310546875,-0.01709878444671631,2023-10-21T15:16:02.622194Z,1697901362622
0.22891807556152344,0.07574462890625,-0.038254618644714355,2023-10-21T15:16:02.642429Z,1697901362642
0.3719205856323242,0.12451720237731934,-0.05774581432342529,2023-10-21T15:16:02.662659Z,1697901362662
0.5184383392333984,0.1747894287109375,-0.07517516613006592,2023-10-21T15:16:02.682882Z,1697901362682
0.6524877548217773,0.2213902473449707,-0.08953094482421875,2023-10-21T15:16:02.703907Z,1697901362703
0.7665510177612305,0.2619490623474121,-0.10122668743133545,2023-10-21T15:16:02.723600Z,1697901362723
0.8601503372192383,0.2960658073425293,-0.11131858825683594,2023-10-21T15:16:02.743747Z,1697901362743
0.9327840805053711,0.3233048915863037,-0.12071657180786133,2023-10-21T15:16:02.763940Z,1697901362763
0.9842948913574219,0.34334468841552734,-0.130196213722229,2023-10-21T15:16:02.787324Z,1697901362787
1.0155601501464844,0.35614681243896484,-0.14024853706359863,2023-10-21T15:16:02.804499Z,1697901362804
1.0296497344970703,0.362398624420166,-0.15098261833190918,2023-10-21T15:16:02.824770Z,1697901362824
1.0301647186279297,0.36298131942749023,-0.16214525699615479,2023-10-21T15:16:02.845010Z,1697901362844
1.0201940536499023,0.3586738109588623,-0.17321324348449707,2023-10-21T15:16:02.865239Z,1697901362865
1.0030813217163086,0.3505539894104004,-0.1837618350982666,2023-10-21T15:16:02.887162Z,1697901362887
0.9815149307250977,0.3396925926208496,-0.19339191913604736,2023-10-21T15:16:02.905841Z,1697901362905
0.9570140838623047,0.3269991874694824,-0.20167136192321777,2023-10-21T15:16:02.926094Z,1697901362926
0.9304265975952148,0.3133206367492676,-0.20821905136108398,2023-10-21T15:16:02.946301Z,1697901362946
0.9005632400512695,0.2989351749420166,-0.21241307258605957,2023-10-21T15:16:02.966516Z,1697901362966
0.8661317825317383,0.28401875495910645,-0.21380376815795898,2023-10-21T15:16:02.987119Z,1697901362987
0.825709342956543,0.2685391902923584,-0.21196842193603516,2023-10-21T15:16:03.007125Z,1697901363007
0.7779865264892578,0.25223517417907715,-0.2065427303314209,2023-10-21T15:16:03.027435Z,1697901363027
0.7218952178955078,0.23472380638122559,-0.19729971885681152,2023-10-21T15:16:03.047607Z,1697901363047
0.6570215225219727,0.21569585800170898,-0.18426036834716797,2023-10-21T15:16:03.070171Z,1697901363070
0.5839748382568359,0.19497323036193848,-0.16777753829956055,2023-10-21T15:16:03.088212Z,1697901363088
0.5054750442504883,0.17283034324645996,-0.14878463745117188,2023-10-21T15:16:03.108475Z,1697901363108
0.42563629150390625,0.14986777305603027,-0.12848782539367676,2023-10-21T15:16:03.128702Z,1697901363128
0.3475675582885742,0.1264951229095459,-0.1077570915222168,2023-10-21T15:16:03.148957Z,1697901363148
0.2738161087036133,0.103179931640625,-0.0872802734375,2023-10-21T15:16:03.170349Z,1697901363170
0.2057952880859375,0.0803065299987793,-0.06746196746826172,2023-10-21T15:16:03.189513Z,1697901363189
0.14510154724121094,0.05858111381530762,-0.048891305923461914,2023-10-21T15:16:03.209802Z,1697901363209
0.09444713592529297,0.0393829345703125,-0.032666683197021484,2023-10-21T15:16:03.230004Z,1697901363229
0.05599021911621094,0.024063825607299805,-0.019841909408569336,2023-10-21T15:16:03.250261Z,1697901363250
0.030536651611328125,0.013495206832885742,-0.011060476303100586,2023-10-21T15:16:03.270557Z,1697901363270
0.01738739013671875,0.007880210876464844,-0.006417512893676758,2023-10-21T15:16:03.290840Z,1697901363290
0.015043258666992188,0.006971836090087891,-0.0056362152099609375,2023-10-21T15:16:03.311082Z,1697901363311
0.021775245666503906,0.010293960571289062,-0.008254051208496094,2023-10-21T15:16:03.331346Z,1697901363331
0.036009788513183594,0.017319202423095703,-0.013767242431640625,2023-10-21T15:16:03.353422Z,1697901363353
0.05667591094970703,0.027669906616210938,-0.02180027961730957,2023-10-21T15:16:03.371856Z,1697901363371
0.0828256607055664,0.04094076156616211,-0.031989097595214844,2023-10-21T15:16:03.392157Z,1697901363392
0.11349010467529297,0.05663442611694336,-0.0439453125,2023-10-21T15:16:03.412422Z,1697901363412
0.1465129852294922,0.07358646392822266,-0.05683302879333496,2023-10-21T15:16:03.432627Z,1697901363432
0.17901039123535156,0.09020757675170898,-0.06955766677856445,2023-10-21T15:16:03.453317Z,1697901363453
0.2089853286743164,0.10531806945800781,-0.08138346672058105,2023-10-21T15:16:03.473185Z,1697901363473
0.23573684692382812,0.11841201782226562,-0.09206080436706543,2023-10-21T15:16:03.493475Z,1697901363493
0.2587137222290039,0.12907695770263672,-0.10133957862854004,2023-10-21T15:16:03.513689Z,1697901363513
0.27786731719970703,0.13719511032104492,-0.10914134979248047,2023-10-21T15:16:03.536730Z,1697901363536
0.2929515838623047,0.14259862899780273,-0.11533403396606445,2023-10-21T15:16:03.554232Z,1697901363554
0.304290771484375,0.14543700218200684,-0.1200108528137207,2023-10-21T15:16:03.574525Z,1697901363574
0.31264400482177734,0.14612221717834473,-0.12344861030578613,2023-10-21T15:16:03.594833Z,1697901363594
0.3183021545410156,0.14486336708068848,-0.12569212913513184,2023-10-21T15:16:03.615013Z,1697901363614
0.3218355178833008,0.14201974868774414,-0.12688112258911133,2023-10-21T15:16:03.636631Z,1697901363636
0.32373619079589844,0.13791418075561523,-0.12711358070373535,2023-10-21T15:16:03.655584Z,1697901363655
0.3240346908569336,0.132659912109375,-0.12635445594787598,2023-10-21T15:16:03.675843Z,1697901363675
0.3230314254760742,0.12641501426696777,-0.12465214729309082,2023-10-21T15:16:03.696040Z,1697901363696
0.32260894775390625,0.1198575496673584,-0.1226797103881836,2023-10-21T15:16:03.716392Z,1697901363716
0.32539844512939453,0.11376023292541504,-0.12134695053100586,2023-10-21T15:16:03.736609Z,1697901363736
0.33416080474853516,0.10870671272277832,-0.12147068977355957,2023-10-21T15:16:03.756952Z,1697901363756
0.3510713577270508,0.10482096672058105,-0.1235196590423584,2023-10-21T15:16:03.777104Z,1697901363777
0.37772274017333984,0.1017613410949707,-0.12757420539855957,2023-10-21T15:16:03.797335Z,1697901363797
0.41541004180908203,0.09885358810424805,-0.13350200653076172,2023-10-21T15:16:03.819820Z,1697901363819
0.46572017669677734,0.09525573253631592,-0.14117121696472168,2023-10-21T15:16:03.837949Z,1697901363837
0.5305356979370117,0.0898977518081665,-0.15041208267211914,2023-10-21T15:16:03.858233Z,1697901363858
0.6119728088378906,0.08146381378173828,-0.16104459762573242,2023-10-21T15:16:03.878455Z,1697901363878
0.7105083465576172,0.06829208135604858,-0.17247653007507324,2023-10-21T15:16:03.898752Z,1697901363898
0.8223676681518555,0.04868018627166748,-0.18338394165039062,2023-10-21T15:16:03.919737Z,1697901363919
0.9413213729858398,0.02172119915485382,-0.19241595268249512,2023-10-21T15:16:03.939230Z,1697901363939
1.0612449645996094,-0.012464314699172974,-0.19887781143188477,2023-10-21T15:16:03.959556Z,1697901363959
1.1768436431884766,-0.05291581153869629,-0.2027653455734253,2023-10-21T15:16:03.979746Z,1697901363979
1.2825956344604492,-0.09798818826675415,-0.20448088645935059,2023-10-21T15:16:04.003018Z,1697901364002
1.3723258972167969,-0.14520812034606934,-0.20463931560516357,2023-10-21T15:16:04.020288Z,1697901364020
1.4393415451049805,-0.19164025783538818,-0.20367753505706787,2023-10-21T15:16:04.040584Z,1697901364040
1.4784469604492188,-0.2343984842300415,-0.20199477672576904,2023-10-21T15:16:04.060776Z,1697901364060
1.485757827758789,-0.2709258794784546,-0.19951200485229492,2023-10-21T15:16:04.081026Z,1697901364080
1.4592084884643555,-0.2991563081741333,-0.1958761215209961,2023-10-21T15:16:04.102979Z,1697901364102
1.3996429443359375,-0.31771397590637207,-0.19054853916168213,2023-10-21T15:16:04.121618Z,1697901364121
1.3102226257324219,-0.3259003162384033,-0.18316614627838135,2023-10-21T15:16:04.141939Z,1697901364141
1.1944189071655273,-0.323225736618042,-0.17341125011444092,2023-10-21T15:16:04.162161Z,1697901364162
1.0550041198730469,-0.3090221881866455,-0.16083037853240967,2023-10-21T15:16:04.182349Z,1697901364182
0.8953580856323242,-0.282778263092041,-0.1449648141860962,2023-10-21T15:16:04.202681Z,1697901364202
0.7199974060058594,-0.24449443817138672,-0.1251918077468872,2023-10-21T15:16:04.222950Z,1697901364222
0.5359830856323242,-0.19521260261535645,-0.10109198093414307,2023-10-21T15:16:04.243259Z,1697901364243
0.3504619598388672,-0.13649249076843262,-0.07230091094970703,2023-10-21T15:16:04.263488Z,1697901364263
0.1690816879272461,-0.07012271881103516,-0.03842020034790039,2023-10-21T15:16:04.286113Z,1697901364286
-0.005053520202636719,0.0022187232971191406,0.0012733936309814453,2023-10-21T15:16:04.304014Z,1697901364303
-0.1723155975341797,0.07959461212158203,0.04827737808227539,2023-10-21T15:16:04.324255Z,1697901364324
-0.33408641815185547,0.1612555980682373,0.10445404052734375,2023-10-21T15:16:04.344556Z,1697901364344
-0.49785804748535156,0.24941062927246094,0.17430424690246582,2023-10-21T15:16:04.364741Z,1697901364364
-0.6594243049621582,0.34039759635925293,0.25803709030151367,2023-10-21T15:16:04.386199Z,1697901364386
-0.8102617263793945,0.4276878833770752,0.351776123046875,2023-10-21T15:16:04.405341Z,1697901364405
-0.9523038864135742,0.5099906921386719,0.4532036781311035,2023-10-21T15:16:04.425613Z,1697901364425
-1.0834355354309082,0.5851891040802002,0.5577583312988281,2023-10-21T15:16:04.445893Z,1697901364445
-1.2141928672790527,0.6584956645965576,0.6698009967803955,2023-10-21T15:16:04.466030Z,1697901364465
-1.3416895866394043,0.7285001277923584,0.7854037284851074,2023-10-21T15:16:04.486374Z,1697901364486
-1.4620113372802734,0.7930517196655273,0.8983399868011475,2023-10-21T15:16:04.506680Z,1697901364506
-1.5734663009643555,0.8519439697265625,1.002577543258667,2023-10-21T15:16:04.527015Z,1697901364526
-1.6754999160766602,0.904879093170166,1.092210292816162,2023-10-21T15:16:04.547150Z,1697901364547
-1.7646455764770508,0.9494609832763672,1.1559505462646484,2023-10-21T15:16:04.569323Z,1697901364569
-1.8418874740600586,0.9860668182373047,1.1927199363708496,2023-10-21T15:16:04.587689Z,1697901364587
-1.9126777648925781,1.0174977779388428,1.208437442779541,2023-10-21T15:16:04.607985Z,1697901364607
-1.9752907752990723,1.0422389507293701,1.2063546180725098,2023-10-21T15:16:04.628277Z,1697901364628
-2.0364747047424316,1.0610308647155762,1.1928858757019043,2023-10-21T15:16:04.648493Z,1697901364648
-2.091867446899414,1.0695292949676514,1.16074538230896,2023-10-21T15:16:04.669114Z,1697901364669
-2.1459298133850098,1.0680689811706543,1.1131646633148193,2023-10-21T15:16:04.689004Z,1697901364688
-2.2035164833068848,1.0583631992340088,1.054250955581665,2023-10-21T15:16:04.709325Z,1697901364709
-2.266580581665039,1.0391981601715088,0.9868214130401611,2023-10-21T15:16:04.729498Z,1697901364729
-2.337350845336914,1.0097556114196777,0.9144899845123291,2023-10-21T15:16:04.752474Z,1697901364752
-2.4168663024902344,0.9694786071777344,0.8396182060241699,2023-10-21T15:16:04.770084Z,1697901364770
-2.5023694038391113,0.9165141582489014,0.7620997428894043,2023-10-21T15:16:04.790350Z,1697901364790
-2.5867671966552734,0.8482158184051514,0.6812177896499634,2023-10-21T15:16:04.810583Z,1697901364810
-2.660557270050049,0.7620846033096313,0.5972208976745605,2023-10-21T15:16:04.830804Z,1697901364830
-2.7137112617492676,0.655852198600769,0.512129545211792,2023-10-21T15:16:04.852397Z,1697901364852
-2.727385997772217,0.5302145481109619,0.4247596263885498,2023-10-21T15:16:04.871405Z,1697901364871
-2.695589542388916,0.3922998905181885,0.3420940637588501,2023-10-21T15:16:04.891678Z,1697901364891
-2.6216893196105957,0.25139927864074707,0.2708144187927246,2023-10-21T15:16:04.911903Z,1697901364911
-2.5018200874328613,0.11707589030265808,0.21451908349990845,2023-10-21T15:16:04.932070Z,1697901364932
-2.3348937034606934,-0.0031172018498182297,0.17188584804534912,2023-10-21T15:16:04.952422Z,1697901364952
-2.1060166358947754,-0.09796801209449768,0.13714247941970825,2023-10-21T15:16:04.972698Z,1697901364972
-1.824080467224121,-0.16118502616882324,0.1083185076713562,2023-10-21T15:16:04.992953Z,1697901364992
-1.5035629272460938,-0.19059288501739502,0.08331248164176941,2023-10-21T15:16:05.013159Z,1697901365013
-1.1534614562988281,-0.18633615970611572,0.060497164726257324,2023-10-21T15:16:05.035665Z,1697901365035
-0.7840747833251953,-0.15080690383911133,0.03929373621940613,2023-10-21T15:16:05.053781Z,1697901365053
-0.4163217544555664,-0.09159374237060547,0.0204315185546875,2023-10-21T15:16:05.074076Z,1697901365074
-0.05728340148925781,-0.014021873474121094,0.0028055906295776367,2023-10-21T15:16:05.094225Z,1697901365094
0.2947711944580078,0.07855749130249023,-0.014616340398788452,2023-10-21T15:16:05.114452Z,1697901365114
0.6367502212524414,0.1817455291748047,-0.03201574087142944,2023-10-21T15:16:05.135559Z,1697901365135
0.9641656875610352,0.29044342041015625,-0.049617767333984375,2023-10-21T15:16:05.155099Z,1697901365155
1.2582149505615234,0.3969309329986572,-0.06822574138641357,2023-10-21T15:16:05.175391Z,1697901365175
1.5150423049926758,0.4971756935119629,-0.08935225009918213,2023-10-21T15:16:05.195558Z,1697901365195
1.7369604110717773,0.5892229080200195,-0.11450052261352539,2023-10-21T15:16:05.219050Z,1697901365219
1.9251422882080078,0.6709580421447754,-0.1439894437789917,2023-10-21T15:16:05.236111Z,1697901365236
2.084183692932129,0.7415883541107178,-0.1775820255279541,2023-10-21T15:16:05.256439Z,1697901365256
2.221428871154785,0.801933765411377,-0.21503067016601562,2023-10-21T15:16:05.276707Z,1697901365276
2.341777801513672,0.8530178070068359,-0.25590741634368896,2023-10-21T15:16:05.296924Z,1697901365296
2.446043014526367,0.8954005241394043,-0.298791766166687,2023-10-21T15:16:05.318818Z,1697901365318
2.5338659286499023,0.9293138980865479,-0.341403603553772,2023-10-21T15:16:05.337465Z,1697901365337
2.60262393951416,0.9537088871002197,-0.38064348697662354,2023-10-21T15:16:05.357742Z,1697901365357
2.6482887268066406,0.9669749736785889,-0.4136439561843872,2023-10-21T15:16:05.377999Z,1697901365377
2.666449546813965,0.9677872657775879,-0.4381636381149292,2023-10-21T15:16:05.398178Z,1697901365398
2.6544599533081055,0.9559001922607422,-0.4529838562011719,2023-10-21T15:16:05.418735Z,1697901365418
2.6114397048950195,0.9322328567504883,-0.4579005241394043,2023-10-21T15:16:05.438765Z,1697901365438
2.5358314514160156,0.8977270126342773,-0.4529731273651123,2023-10-21T15:16:05.459057Z,1697901365459
2.425614356994629,0.8528456687927246,-0.43816328048706055,2023-10-21T15:16:05.479317Z,1697901365479
2.2801618576049805,0.7977664470672607,-0.4139230251312256,2023-10-21T15:16:05.502382Z,1697901365502
2.102537155151367,0.7334182262420654,-0.38232994079589844,2023-10-21T15:16:05.519802Z,1697901365519
1.897374153137207,0.6616268157958984,-0.3460969924926758,2023-10-21T15:16:05.540104Z,1697901365540
1.6737852096557617,0.5858557224273682,-0.30810344219207764,2023-10-21T15:16:05.560338Z,1697901365560
1.4443597793579102,0.5101616382598877,-0.27050960063934326,2023-10-21T15:16:05.580557Z,1697901365580
1.220987319946289,0.4377286434173584,-0.23448944091796875,2023-10-21T15:16:05.602222Z,1697901365602
1.011911392211914,0.3702356815338135,-0.20047807693481445,2023-10-21T15:16:05.621164Z,1697901365621
0.8211774826049805,0.30815553665161133,-0.16849541664123535,2023-10-21T15:16:05.641412Z,1697901365641
0.6520166397094727,0.2519521713256836,-0.13877344131469727,2023-10-21T15:16:05.661601Z,1697901365661
0.5075454711914062,0.20247197151184082,-0.1119699478149414,2023-10-21T15:16:05.681867Z,1697901365681
0.3912191390991211,0.16126608848571777,-0.08921360969543457,2023-10-21T15:16:05.702206Z,1697901365702
0.3037395477294922,0.12934136390686035,-0.0712442398071289,2023-10-21T15:16:05.722473Z,1697901365722
0.2422332763671875,0.1064293384552002,-0.05805706977844238,2023-10-21T15:16:05.742729Z,1697901365742
0.20034122467041016,0.09064579010009766,-0.04868054389953613,2023-10-21T15:16:05.762953Z,1697901365762
0.16968631744384766,0.07887601852416992,-0.04145002365112305,2023-10-21T15:16:05.785462Z,1697901365785
0.1430072784423828,0.0681157112121582,-0.03482675552368164,2023-10-21T15:16:05.803504Z,1697901365803
0.1163330078125,0.05662107467651367,-0.02803659439086914,2023-10-21T15:16:05.823826Z,1697901365823
0.08827686309814453,0.04377937316894531,-0.020930051803588867,2023-10-21T15:16:05.843993Z,1697901365843
0.059838294982910156,0.030148983001708984,-0.013904809951782227,2023-10-21T15:16:05.864253Z,1697901365864
0.03283405303955078,0.01676654815673828,-0.007463932037353516,2023-10-21T15:16:05.885138Z,1697901365885
0.008122444152832031,0.004197120666503906,-0.0018045902252197266,2023-10-21T15:16:05.904873Z,1697901365904
-0.014147758483886719,-0.0073947906494140625,0.003078460693359375,2023-10-21T15:16:05.925131Z,1697901365925
-0.03279304504394531,-0.017343521118164062,0.007010698318481445,2023-10-21T15:16:05.945322Z,1697901365945
-0.04547691345214844,-0.024353504180908203,0.009608864784240723,2023-10-21T15:16:05.968655Z,1697901365968
-0.04987621307373047,-0.027077198028564453,0.010515332221984863,2023-10-21T15:16:05.985898Z,1697901365985
-0.044646263122558594,-0.02460336685180664,0.009500622749328613,2023-10-21T15:16:06.006219Z,1697901366006
-0.031038284301757812,-0.01738595962524414,0.0067386627197265625,2023-10-21T15:16:06.026456Z,1697901366026
-0.01145172119140625,-0.006527900695800781,0.0025594234466552734,2023-10-21T15:16:06.046647Z,1697901366046
0.0107879638671875,0.006262779235839844,-0.002495408058166504,2023-10-21T15:16:06.068562Z,1697901366068
0.03238105773925781,0.019136428833007812,-0.007783770561218262,2023-10-21T15:16:06.087193Z,1697901366087
0.05120086669921875,0.030765533447265625,-0.012823820114135742,2023-10-21T15:16:06.107521Z,1697901366107
0.06651020050048828,0.04053640365600586,-0.017385244369506836,2023-10-21T15:16:06.127684Z,1697901366127
0.07831478118896484,0.0482478141784668,-0.021372318267822266,2023-10-21T15:16:06.147963Z,1697901366147
0.08723831176757812,0.0540919303894043,-0.02481245994567871,2023-10-21T15:16:06.168255Z,1697901366168
0.09531688690185547,0.05917501449584961,-0.02814960479736328,2023-10-21T15:16:06.188544Z,1697901366188
0.10541057586669922,0.0651240348815918,-0.032166242599487305,2023-10-21T15:16:06.208823Z,1697901366208
0.12064456939697266,0.07367849349975586,-0.03784751892089844,2023-10-21T15:16:06.229045Z,1697901366229
0.1433420181274414,0.08592510223388672,-0.046013593673706055,2023-10-21T15:16:06.251407Z,1697901366251
0.17358684539794922,0.10145235061645508,-0.05679440498352051,2023-10-21T15:16:06.269569Z,1697901366269
0.21065044403076172,0.11930704116821289,-0.07001018524169922,2023-10-21T15:16:06.289921Z,1697901366289
0.2528705596923828,0.13803339004516602,-0.08512282371520996,2023-10-21T15:16:06.310107Z,1697901366310
0.29860401153564453,0.1562647819519043,-0.10156130790710449,2023-10-21T15:16:06.330365Z,1697901366330
0.34578418731689453,0.17252826690673828,-0.11861705780029297,2023-10-21T15:16:06.351327Z,1697901366351
0.3925590515136719,0.18564224243164062,-0.13567614555358887,2023-10-21T15:16:06.370930Z,1697901366370
0.43734073638916016,0.19480347633361816,-0.15231919288635254,2023-10-21T15:16:06.391227Z,1697901366391
0.47957420349121094,0.19993352890014648,-0.16855978965759277,2023-10-21T15:16:06.411410Z,1697901366411
0.5185642242431641,0.20102977752685547,-0.18442392349243164,2023-10-21T15:16:06.434708Z,1697901366434
0.552149772644043,0.19769287109375,-0.1993105411529541,2023-10-21T15:16:06.451943Z,1697901366451
0.5776863098144531,0.18949675559997559,-0.21225452423095703,2023-10-21T15:16:06.472219Z,1697901366472
0.5936107635498047,0.17661643028259277,-0.22244548797607422,2023-10-21T15:16:06.492470Z,1697901366492
0.6007518768310547,0.16007351875305176,-0.22990655899047852,2023-10-21T15:16:06.512694Z,1697901366512
0.6002836227416992,0.1409909725189209,-0.234785795211792,2023-10-21T15:16:06.534558Z,1697901366534
0.5923585891723633,0.12022602558135986,-0.23686456680297852,2023-10-21T15:16:06.553244Z,1697901366553
0.5758695602416992,0.09837353229522705,-0.23543310165405273,2023-10-21T15:16:06.573574Z,1697901366573
0.5501070022583008,0.07615315914154053,-0.2299039363861084,2023-10-21T15:16:06.593795Z,1697901366593
0.5152111053466797,0.05449175834655762,-0.22008705139160156,2023-10-21T15:16:06.613990Z,1697901366613
0.47156524658203125,0.03440946340560913,-0.20589995384216309,2023-10-21T15:16:06.634508Z,1697901366634
0.4205970764160156,0.016930311918258667,-0.18776488304138184,2023-10-21T15:16:06.654633Z,1697901366654
0.36582183837890625,0.002854384481906891,-0.16709661483764648,2023-10-21T15:16:06.674867Z,1697901366674
0.31160736083984375,-0.0075950175523757935,-0.14578628540039062,2023-10-21T15:16:06.695088Z,1697901366695
0.2608461380004883,-0.014699667692184448,-0.12513017654418945,2023-10-21T15:16:06.717835Z,1697901366717
0.21434307098388672,-0.01890617609024048,-0.10553455352783203,2023-10-21T15:16:06.735624Z,1697901366735
0.17040157318115234,-0.020404577255249023,-0.08620929718017578,2023-10-21T15:16:06.755924Z,1697901366755
0.12706375122070312,-0.019128918647766113,-0.06617069244384766,2023-10-21T15:16:06.776181Z,1697901366776
0.08304023742675781,-0.014969706535339355,-0.04467630386352539,2023-10-21T15:16:06.796406Z,1697901366796
0.028296470642089844,-0.005892157554626465,-0.015820026397705078,2023-10-21T15:16:06.817615Z,1697901366817
-0.03914642333984375,0.009157657623291016,0.022839069366455078,2023-10-21T15:16:06.836973Z,1697901366836
-0.11152172088623047,0.02867412567138672,0.06793069839477539,2023-10-21T15:16:06.857282Z,1697901366857
-0.18066835403442383,0.05013108253479004,0.11439132690429688,2023-10-21T15:16:06.877402Z,1697901366877
-0.2395458221435547,0.07069706916809082,0.15678691864013672,2023-10-21T15:16:06.897704Z,1697901366897
-0.2967076301574707,0.09200572967529297,0.20008420944213867,2023-10-21T15:16:06.918050Z,1697901366918
-0.36095285415649414,0.11630702018737793,0.2503185272216797,2023-10-21T15:16:06.938294Z,1697901366938
-0.4314289093017578,0.14301228523254395,0.30679941177368164,2023-10-21T15:16:06.958576Z,1697901366958
-0.5059332847595215,0.17089462280273438,0.3671550750732422,2023-10-21T15:16:06.978772Z,1697901366978
-0.5833783149719238,0.19879555702209473,0.4285902976989746,2023-10-21T15:16:07.000732Z,1697901367000
-0.6546473503112793,0.2229611873626709,0.4811406135559082,2023-10-21T15:16:07.019307Z,1697901367019
-0.7149033546447754,0.24136972427368164,0.5194797515869141,2023-10-21T15:16:07.039631Z,1697901367039
-0.7676057815551758,0.25495052337646484,0.5466032028198242,2023-10-21T15:16:07.059863Z,1697901367059
-0.8199639320373535,0.26572656631469727,0.5697197914123535,2023-10-21T15:16:07.080077Z,1697901367080
-0.8835301399230957,0.2761528491973877,0.5967302322387695,2023-10-21T15:16:07.100809Z,1697901367100
-0.955437183380127,0.2838590145111084,0.6229009628295898,2023-10-21T15:16:07.120631Z,1697901367120
-1.028193473815918,0.2856994867324829,0.6409115791320801,2023-10-21T15:16:07.140963Z,1697901367140
-1.0991358757019043,0.28057217597961426,0.6488127708435059,2023-10-21T15:16:07.161137Z,1697901367161
-1.1667189598083496,0.26797425746917725,0.646357536315918,2023-10-21T15:16:07.184175Z,1697901367184
-1.2315373420715332,0.24796807765960693,0.6350247859954834,2023-10-21T15:16:07.201683Z,1697901367201
-1.2948331832885742,0.22051787376403809,0.6166088581085205,2023-10-21T15:16:07.222011Z,1697901367221
-1.355699062347412,0.18525326251983643,0.5917277336120605,2023-10-21T15:16:07.242219Z,1697901367242
-1.4099903106689453,0.14206188917160034,0.5598483085632324,2023-10-21T15:16:07.262441Z,1697901367262
-1.4501113891601562,0.09179532527923584,0.5195436477661133,2023-10-21T15:16:07.284019Z,1697901367283
-1.4681010246276855,0.03675372898578644,0.4693562984466553,2023-10-21T15:16:07.303020Z,1697901367302
-1.446084976196289,-0.017945416271686554,0.40616631507873535,2023-10-21T15:16:07.323354Z,1697901367323
-1.379002571105957,-0.06588855385780334,0.3352459669113159,2023-10-21T15:16:07.343514Z,1697901367343
-1.2789392471313477,-0.10342210531234741,0.26639819145202637,2023-10-21T15:16:07.363732Z,1697901367363
-1.1650667190551758,-0.13072305917739868,0.20776140689849854,2023-10-21T15:16:07.384072Z,1697901367384
-1.0504560470581055,-0.14979219436645508,0.16047513484954834,2023-10-21T15:16:07.404359Z,1697901367404
-0.9259004592895508,-0.15864408016204834,0.12077462673187256,2023-10-21T15:16:07.424613Z,1697901367424
-0.7818021774291992,-0.15426850318908691,0.08647996187210083,2023-10-21T15:16:07.444803Z,1697901367444
-0.6212749481201172,-0.13687515258789062,0.05795300006866455,2023-10-21T15:16:07.467276Z,1697901367467
-0.4516763687133789,-0.10869216918945312,0.03554791212081909,2023-10-21T15:16:07.485395Z,1697901367485
-0.2838115692138672,-0.07346653938293457,0.01921921968460083,2023-10-21T15:16:07.505691Z,1697901367505
-0.13612079620361328,-0.03766775131225586,0.00828087329864502,2023-10-21T15:16:07.525915Z,1697901367525
-0.012549400329589844,-0.0037038326263427734,7.189512252807617E-4,2023-10-21T15:16:07.546215Z,1697901367546
0.09719085693359375,0.03046870231628418,-0.005454957485198975,2023-10-21T15:16:07.567167Z,1697901367567
0.2079620361328125,0.06871271133422852,-0.011611640453338623,2023-10-21T15:16:07.586755Z,1697901367586
0.32601356506347656,0.11222219467163086,-0.0185052752494812,2023-10-21T15:16:07.607019Z,1697901367606
0.4402780532836914,0.1563270092010498,-0.026138365268707275,2023-10-21T15:16:07.627211Z,1697901367627
0.5415773391723633,0.19692111015319824,-0.034570276737213135,2023-10-21T15:16:07.649566Z,1697901367649
0.630620002746582,0.23340702056884766,-0.04405069351196289,2023-10-21T15:16:07.667787Z,1697901367667
0.708404541015625,0.26560068130493164,-0.05462050437927246,2023-10-21T15:16:07.688078Z,1697901367688
0.7753820419311523,0.2933967113494873,-0.06622636318206787,2023-10-21T15:16:07.708356Z,1697901367708
0.8325128555297852,0.3167760372161865,-0.07888162136077881,2023-10-21T15:16:07.728569Z,1697901367728
0.8818235397338867,0.3362140655517578,-0.09270775318145752,2023-10-21T15:16:07.750449Z,1697901367750
0.9249114990234375,0.3522164821624756,-0.10769808292388916,2023-10-21T15:16:07.769075Z,1697901367769
0.9611396789550781,0.3646247386932373,-0.12336218357086182,2023-10-21T15:16:07.789358Z,1697901367789
0.9878692626953125,0.37273645401000977,-0.13876760005950928,2023-10-21T15:16:07.809603Z,1697901367809
1.0021543502807617,0.375995397567749,-0.1530451774597168,2023-10-21T15:16:07.829813Z,1697901367829
1.001352310180664,0.37398195266723633,-0.16540920734405518,2023-10-21T15:16:07.850397Z,1697901367850
0.9856834411621094,0.36703968048095703,-0.1754164695739746,2023-10-21T15:16:07.870506Z,1697901367870
0.9570589065551758,0.355785608291626,-0.18279993534088135,2023-10-21T15:16:07.890760Z,1697901367890
0.9170970916748047,0.34065842628479004,-0.18721318244934082,2023-10-21T15:16:07.910937Z,1697901367910
0.865992546081543,0.32190871238708496,-0.18812012672424316,2023-10-21T15:16:07.933682Z,1697901367933
0.8033199310302734,0.29962587356567383,-0.18494153022766113,2023-10-21T15:16:07.951448Z,1697901367951
0.7302665710449219,0.274289608001709,-0.1775197982788086,2023-10-21T15:16:07.971712Z,1697901367971
0.651031494140625,0.24720549583435059,-0.1666116714477539,2023-10-21T15:16:07.991999Z,1697901367991
0.5719232559204102,0.22036123275756836,-0.15368413925170898,2023-10-21T15:16:08.012216Z,1697901368012
0.49822139739990234,0.19539666175842285,-0.1401691436767578,2023-10-21T15:16:08.033426Z,1697901368033
0.43263912200927734,0.17316770553588867,-0.12703895568847656,2023-10-21T15:16:08.052753Z,1697901368052
0.37535953521728516,0.15366268157958984,-0.11470508575439453,2023-10-21T15:16:08.073043Z,1697901368073
0.3262920379638672,0.13688111305236816,-0.10350227355957031,2023-10-21T15:16:08.093244Z,1697901368093
0.2864971160888672,0.12339425086975098,-0.09411048889160156,2023-10-21T15:16:08.113530Z,1697901368113
0.2569160461425781,0.11384034156799316,-0.08724403381347656,2023-10-21T15:16:08.133862Z,1697901368133
0.23624324798583984,0.10788440704345703,-0.0828394889831543,2023-10-21T15:16:08.154224Z,1697901368154
0.22214889526367188,0.1046299934387207,-0.08040404319763184,2023-10-21T15:16:08.174400Z,1697901368174
0.2120990753173828,0.10296964645385742,-0.07922887802124023,2023-10-21T15:16:08.194630Z,1697901368194
0.20477581024169922,0.1022791862487793,-0.07893705368041992,2023-10-21T15:16:08.217054Z,1697901368217
0.19833087921142578,0.1016993522644043,-0.07887482643127441,2023-10-21T15:16:08.235191Z,1697901368235
0.1903219223022461,0.09998130798339844,-0.07804512977600098,2023-10-21T15:16:08.255466Z,1697901368255
0.1792287826538086,0.09626436233520508,-0.07570552825927734,2023-10-21T15:16:08.275711Z,1697901368275
0.1655559539794922,0.09071683883666992,-0.07194924354553223,2023-10-21T15:16:08.295947Z,1697901368295
0.1515655517578125,0.08448362350463867,-0.06768035888671875,2023-10-21T15:16:08.316938Z,1697901368316
0.13896512985229492,0.07848501205444336,-0.06362128257751465,2023-10-21T15:16:08.336431Z,1697901368336
0.12926101684570312,0.07361936569213867,-0.06048274040222168,2023-10-21T15:16:08.356739Z,1697901368356
0.12278366088867188,0.07018756866455078,-0.05847907066345215,2023-10-21T15:16:08.376961Z,1697901368376
0.11960935592651367,0.06835222244262695,-0.057730913162231445,2023-10-21T15:16:08.400286Z,1697901368400
0.11999034881591797,0.06831216812133789,-0.058420419692993164,2023-10-21T15:16:08.417477Z,1697901368417
0.12484073638916016,0.07054424285888672,-0.061025142669677734,2023-10-21T15:16:08.437820Z,1697901368437
0.13535165786743164,0.07558870315551758,-0.06611490249633789,2023-10-21T15:16:08.458093Z,1697901368458
0.1512584686279297,0.08309650421142578,-0.07351160049438477,2023-10-21T15:16:08.478316Z,1697901368478
0.17016029357910156,0.09153175354003906,-0.0819554328918457,2023-10-21T15:16:08.500128Z,1697901368500
0.18912887573242188,0.0991811752319336,-0.08997869491577148,2023-10-21T15:16:08.518830Z,1697901368518
0.20587444305419922,0.10481929779052734,-0.09650015830993652,2023-10-21T15:16:08.539184Z,1697901368539
0.220001220703125,0.10828208923339844,-0.10141372680664062,2023-10-21T15:16:08.559313Z,1697901368559
0.23160266876220703,0.10971307754516602,-0.10487723350524902,2023-10-21T15:16:08.579601Z,1697901368579
0.24102210998535156,0.1093893051147461,-0.10715818405151367,2023-10-21T15:16:08.600061Z,1697901368600
0.24776935577392578,0.10727190971374512,-0.10819339752197266,2023-10-21T15:16:08.620141Z,1697901368620
0.25119781494140625,0.10331869125366211,-0.10785555839538574,2023-10-21T15:16:08.640374Z,1697901368640
0.25175952911376953,0.09795498847961426,-0.10645866394042969,2023-10-21T15:16:08.660658Z,1697901368660
0.2508964538574219,0.09187006950378418,-0.10462284088134766,2023-10-21T15:16:08.683406Z,1697901368683
0.25113868713378906,0.08595156669616699,-0.10331869125366211,2023-10-21T15:16:08.701158Z,1697901368701
0.2545919418334961,0.08071017265319824,-0.10326576232910156,2023-10-21T15:16:08.721477Z,1697901368721
0.26395702362060547,0.0766143798828125,-0.10541415214538574,2023-10-21T15:16:08.741687Z,1697901368741
0.2812509536743164,0.0737001895904541,-0.1104118824005127,2023-10-21T15:16:08.761968Z,1697901368761
0.3090658187866211,0.07187390327453613,-0.11908125877380371,2023-10-21T15:16:08.782975Z,1697901368782
0.3485698699951172,0.07041525840759277,-0.13162970542907715,2023-10-21T15:16:08.802503Z,1697901368802
0.4000539779663086,0.06826639175415039,-0.14791011810302734,2023-10-21T15:16:08.822802Z,1697901368822
0.4621467590332031,0.06408798694610596,-0.16715073585510254,2023-10-21T15:16:08.843086Z,1697901368843
0.5327968597412109,0.05665105581283569,-0.1884467601776123,2023-10-21T15:16:08.866281Z,1697901368866
0.6087074279785156,0.0449945330619812,-0.2107253074645996,2023-10-21T15:16:08.883547Z,1697901368883
0.6845006942749023,0.028655439615249634,-0.23263168334960938,2023-10-21T15:16:08.903875Z,1697901368903
0.7528419494628906,0.008004225790500641,-0.2525315284729004,2023-10-21T15:16:08.924105Z,1697901368924
0.8064098358154297,-0.015691593289375305,-0.2688908576965332,2023-10-21T15:16:08.944327Z,1697901368944
0.8396978378295898,-0.0406019389629364,-0.280519962310791,2023-10-21T15:16:08.966160Z,1697901368966
0.8493452072143555,-0.06468474864959717,-0.2865946292877197,2023-10-21T15:16:08.984882Z,1697901368984
0.8357152938842773,-0.08620285987854004,-0.28711724281311035,2023-10-21T15:16:09.005126Z,1697901369005
0.802302360534668,-0.10411787033081055,-0.28272294998168945,2023-10-21T15:16:09.025386Z,1697901369025
0.7545604705810547,-0.11817502975463867,-0.2744753360748291,2023-10-21T15:16:09.045597Z,1697901369045
0.696436882019043,-0.12819015979766846,-0.2627992630004883,2023-10-21T15:16:09.066121Z,1697901369066
0.6316442489624023,-0.13393008708953857,-0.24802207946777344,2023-10-21T15:16:09.086272Z,1697901369086
0.5621938705444336,-0.1349925994873047,-0.23001837730407715,2023-10-21T15:16:09.106488Z,1697901369106
0.4861278533935547,-0.13025641441345215,-0.20763111114501953,2023-10-21T15:16:09.126684Z,1697901369126
0.39318084716796875,-0.11594867706298828,-0.17557239532470703,2023-10-21T15:16:09.149411Z,1697901369149
0.28742218017578125,-0.09223556518554688,-0.1340045928955078,2023-10-21T15:16:09.167251Z,1697901369167
0.18198490142822266,-0.06293129920959473,-0.08799505233764648,2023-10-21T15:16:09.187553Z,1697901369187
0.08913707733154297,-0.03291440010070801,-0.044275760650634766,2023-10-21T15:16:09.207796Z,1697901369207
0.0036878585815429688,-0.0014410018920898438,-0.0018672943115234375,2023-10-21T15:16:09.228074Z,1697901369227
-0.09333324432373047,0.03817296028137207,0.04802370071411133,2023-10-21T15:16:09.249311Z,1697901369249
-0.20969486236572266,0.08880949020385742,0.10945272445678711,2023-10-21T15:16:09.268604Z,1697901369268
-0.3429427146911621,0.1489408016204834,0.18114328384399414,2023-10-21T15:16:09.288875Z,1697901369288
-0.49016904830932617,0.21641206741333008,0.26122522354125977,2023-10-21T15:16:09.309096Z,1697901369309
-0.6458816528320312,0.28743505477905273,0.3452718257904053,2023-10-21T15:16:09.329314Z,1697901369329
-0.7967190742492676,0.3545851707458496,0.4239475727081299,2023-10-21T15:16:09.349628Z,1697901369349
-0.9434895515441895,0.41657447814941406,0.49651408195495605,2023-10-21T15:16:09.369953Z,1697901369369
-1.0959205627441406,0.47621774673461914,0.5690939426422119,2023-10-21T15:16:09.390196Z,1697901369390
-1.2662887573242188,0.5368003845214844,0.6482152938842773,2023-10-21T15:16:09.410392Z,1697901369410
-1.4530410766601562,0.5943760871887207,0.729515790939331,2023-10-21T15:16:09.432533Z,1697901369432
-1.6413745880126953,0.6400432586669922,0.7986354827880859,2023-10-21T15:16:09.450984Z,1697901369450
-1.823678970336914,0.6686611175537109,0.8473765850067139,2023-10-21T15:16:09.471240Z,1697901369471
-1.9985013008117676,0.677924394607544,0.8736727237701416,2023-10-21T15:16:09.491491Z,1697901369491
-2.1616225242614746,0.6653585433959961,0.8745803833007812,2023-10-21T15:16:09.511721Z,1697901369511
-2.3082408905029297,0.6292804479598999,0.8484330177307129,2023-10-21T15:16:09.532373Z,1697901369532
-2.4322991371154785,0.5682641267776489,0.7953712940216064,2023-10-21T15:16:09.552269Z,1697901369552
-2.5241804122924805,0.4824681282043457,0.7176119089126587,2023-10-21T15:16:09.572604Z,1697901369572
-2.5726637840270996,0.3761225938796997,0.6203182935714722,2023-10-21T15:16:09.592779Z,1697901369592
-2.5686755180358887,0.2574607729911804,0.5114288330078125,2023-10-21T15:16:09.615716Z,1697901369615
-2.5031967163085938,0.13731452822685242,0.39651381969451904,2023-10-21T15:16:09.633316Z,1697901369633
-2.362574577331543,0.02910318225622177,0.28316038846969604,2023-10-21T15:16:09.653611Z,1697901369653
-2.1556668281555176,-0.057216569781303406,0.18322354555130005,2023-10-21T15:16:09.673863Z,1697901369673
-1.9112277030944824,-0.11911314725875854,0.10679394006729126,2023-10-21T15:16:09.694096Z,1697901369694
-1.660395622253418,-0.15983688831329346,0.05460071563720703,2023-10-21T15:16:09.715649Z,1697901369715
-1.4106712341308594,-0.18127846717834473,0.021038152277469635,2023-10-21T15:16:09.734668Z,1697901369734
-1.1517887115478516,-0.18119299411773682,6.341445259749889E-4,2023-10-21T15:16:09.755011Z,1697901369754
-0.8847732543945312,-0.1609417200088501,-0.00955207645893097,2023-10-21T15:16:09.775131Z,1697901369775
-0.6198091506958008,-0.12582886219024658,-0.011957839131355286,2023-10-21T15:16:09.795356Z,1697901369795
-0.3644733428955078,-0.0807499885559082,-0.009191513061523438,2023-10-21T15:16:09.815659Z,1697901369815
-0.13009357452392578,-0.031061887741088867,-0.0036717653274536133,2023-10-21T15:16:09.835995Z,1697901369835
0.06942939758300781,0.017810821533203125,0.0019921958446502686,2023-10-21T15:16:09.856229Z,1697901369856
0.23647403717041016,0.06504535675048828,0.00643572211265564,2023-10-21T15:16:09.876470Z,1697901369876
0.3870697021484375,0.11353063583374023,0.009605556726455688,2023-10-21T15:16:09.899009Z,1697901369898
0.5365400314331055,0.16617965698242188,0.011587873101234436,2023-10-21T15:16:09.917080Z,1697901369917
0.6815910339355469,0.2207796573638916,0.011575266718864441,2023-10-21T15:16:09.937304Z,1697901369937
0.8066158294677734,0.2718820571899414,0.008324645459651947,2023-10-21T15:16:09.957535Z,1697901369957
0.906468391418457,0.3168013095855713,0.001513967290520668,2023-10-21T15:16:09.977822Z,1697901369977
0.9847278594970703,0.35521745681762695,-0.008418448269367218,2023-10-21T15:16:09.999097Z,1697901369999
1.0433568954467773,0.3867611885070801,-0.020960718393325806,2023-10-21T15:16:10.018329Z,1697901370018
1.0838003158569336,0.4111959934234619,-0.03555285930633545,2023-10-21T15:16:10.038628Z,1697901370038
1.1073875427246094,0.4283571243286133,-0.05151692032814026,2023-10-21T15:16:10.058902Z,1697901370058
1.1153907775878906,0.43830370903015137,-0.06792455911636353,2023-10-21T15:16:10.082438Z,1697901370082
1.1088361740112305,0.44124817848205566,-0.08372408151626587,2023-10-21T15:16:10.099402Z,1697901370099
1.0899839401245117,0.4380323886871338,-0.0978926420211792,2023-10-21T15:16:10.119695Z,1697901370119
1.062565803527832,0.4302787780761719,-0.10991799831390381,2023-10-21T15:16:10.139955Z,1697901370139
1.0295391082763672,0.419480562210083,-0.11957669258117676,2023-10-21T15:16:10.160179Z,1697901370160
0.993067741394043,0.4070093631744385,-0.12700021266937256,2023-10-21T15:16:10.182215Z,1697901370182
0.9548978805541992,0.3939085006713867,-0.13254213333129883,2023-10-21T15:16:10.200706Z,1697901370200
0.915618896484375,0.3805387020111084,-0.13646745681762695,2023-10-21T15:16:10.220996Z,1697901370220
0.8742742538452148,0.3664968013763428,-0.13889193534851074,2023-10-21T15:16:10.241206Z,1697901370241
0.8275127410888672,0.3503851890563965,-0.1394035816192627,2023-10-21T15:16:10.261448Z,1697901370261
0.7740879058837891,0.3316233158111572,-0.13782477378845215,2023-10-21T15:16:10.282231Z,1697901370282
0.7147312164306641,0.31028127670288086,-0.1342177391052246,2023-10-21T15:16:10.302127Z,1697901370302
0.6512613296508789,0.2868170738220215,-0.12893927097320557,2023-10-21T15:16:10.322324Z,1697901370322
0.5842170715332031,0.26119232177734375,-0.12203288078308105,2023-10-21T15:16:10.342528Z,1697901370342
0.5138978958129883,0.23335886001586914,-0.11342525482177734,2023-10-21T15:16:10.365131Z,1697901370365
0.44094085693359375,0.20339536666870117,-0.10295271873474121,2023-10-21T15:16:10.383079Z,1697901370383
0.36710453033447266,0.17195558547973633,-0.09067893028259277,2023-10-21T15:16:10.403375Z,1697901370403
0.29555416107177734,0.14046239852905273,-0.07714080810546875,2023-10-21T15:16:10.423621Z,1697901370423
0.23093509674072266,0.11122322082519531,-0.06353068351745605,2023-10-21T15:16:10.443871Z,1697901370443
0.17875957489013672,0.08713674545288086,-0.05167436599731445,2023-10-21T15:16:10.465082Z,1697901370465
0.14188003540039062,0.06992197036743164,-0.04296064376831055,2023-10-21T15:16:10.484407Z,1697901370484
0.12100791931152344,0.06026649475097656,-0.038281917572021484,2023-10-21T15:16:10.504705Z,1697901370504
0.11371040344238281,0.057247161865234375,-0.03750467300415039,2023-10-21T15:16:10.524880Z,1697901370524
0.11750507354736328,0.059833526611328125,-0.04032778739929199,2023-10-21T15:16:10.545082Z,1697901370545
0.1299762725830078,0.06695747375488281,-0.046315908432006836,2023-10-21T15:16:10.565417Z,1697901370565
0.14880752563476562,0.07752084732055664,-0.05492520332336426,2023-10-21T15:16:10.585730Z,1697901370585
0.17135047912597656,0.09017705917358398,-0.06536173820495605,2023-10-21T15:16:10.606006Z,1697901370605
0.19390106201171875,0.10296010971069336,-0.07630014419555664,2023-10-21T15:16:10.626240Z,1697901370626
0.2123737335205078,0.11361265182495117,-0.08609890937805176,2023-10-21T15:16:10.648364Z,1697901370648
0.22410869598388672,0.12056303024291992,-0.09351468086242676,2023-10-21T15:16:10.666759Z,1697901370666
0.22785568237304688,0.12294769287109375,-0.09775471687316895,2023-10-21T15:16:10.687078Z,1697901370687
0.22362899780273438,0.12060356140136719,-0.0984642505645752,2023-10-21T15:16:10.707312Z,1697901370707
0.21331405639648438,0.11448955535888672,-0.09613752365112305,2023-10-21T15:16:10.727584Z,1697901370727
0.19967269897460938,0.10615682601928711,-0.09180021286010742,2023-10-21T15:16:10.748231Z,1697901370748
0.18725109100341797,0.09816360473632812,-0.08749842643737793,2023-10-21T15:16:10.768086Z,1697901370768
0.17908287048339844,0.09217691421508789,-0.0847318172454834,2023-10-21T15:16:10.788398Z,1697901370788
0.17715072631835938,0.08918142318725586,-0.08452606201171875,2023-10-21T15:16:10.808602Z,1697901370808
0.1820201873779297,0.08930563926696777,-0.08717203140258789,2023-10-21T15:16:10.831661Z,1697901370831
0.19388103485107422,0.09240031242370605,-0.09270000457763672,2023-10-21T15:16:10.849155Z,1697901370849
0.21252918243408203,0.09805679321289062,-0.10086727142333984,2023-10-21T15:16:10.869446Z,1697901370869
0.2370767593383789,0.1055450439453125,-0.11107134819030762,2023-10-21T15:16:10.889704Z,1697901370889
0.26573753356933594,0.11379480361938477,-0.12230658531188965,2023-10-21T15:16:10.909930Z,1697901370909
0.29604434967041016,0.12156295776367188,-0.1333174705505371,2023-10-21T15:16:10.931493Z,1697901370931
0.3256349563598633,0.12778449058532715,-0.14299249649047852,2023-10-21T15:16:10.950469Z,1697901370950
0.3509340286254883,0.13106656074523926,-0.1497964859008789,2023-10-21T15:16:10.970753Z,1697901370970
0.37067317962646484,0.13104033470153809,-0.15331053733825684,2023-10-21T15:16:10.990979Z,1697901370990
0.3843536376953125,0.12767601013183594,-0.15351557731628418,2023-10-21T15:16:11.011167Z,1697901371011
0.39441776275634766,0.1219320297241211,-0.1516423225402832,2023-10-21T15:16:11.031465Z,1697901371031
0.40349769592285156,0.11470723152160645,-0.14892935752868652,2023-10-21T15:16:11.051776Z,1697901371051
0.4134836196899414,0.10659217834472656,-0.1462709903717041,2023-10-21T15:16:11.072061Z,1697901371072
0.4260540008544922,0.09798145294189453,-0.14433789253234863,2023-10-21T15:16:11.092287Z,1697901371092
0.44336795806884766,0.08916008472442627,-0.14380478858947754,2023-10-21T15:16:11.114750Z,1697901371114
0.46841907501220703,0.08023321628570557,-0.14548826217651367,2023-10-21T15:16:11.132830Z,1697901371132
0.5029487609863281,0.07076370716094971,-0.1497337818145752,2023-10-21T15:16:11.153141Z,1697901371153
0.546717643737793,0.05992627143859863,-0.15633296966552734,2023-10-21T15:16:11.173409Z,1697901371173
0.5965728759765625,0.04679936170578003,-0.16444110870361328,2023-10-21T15:16:11.193707Z,1697901371193
0.6480569839477539,0.030876129865646362,-0.1731553077697754,2023-10-21T15:16:11.215049Z,1697901371214
0.6970367431640625,0.012210309505462646,-0.1819014549255371,2023-10-21T15:16:11.234208Z,1697901371234
0.7409706115722656,-0.008718147873878479,-0.19057083129882812,2023-10-21T15:16:11.254425Z,1697901371254
0.7778606414794922,-0.031228452920913696,-0.19910073280334473,2023-10-21T15:16:11.274685Z,1697901371274
0.8042879104614258,-0.05433022975921631,-0.2069532871246338,2023-10-21T15:16:11.298019Z,1697901371297
0.8148527145385742,-0.07652288675308228,-0.21298480033874512,2023-10-21T15:16:11.315192Z,1697901371315
0.8049163818359375,-0.09588336944580078,-0.21596193313598633,2023-10-21T15:16:11.335494Z,1697901371335
0.77557373046875,-0.11101412773132324,-0.21561956405639648,2023-10-21T15:16:11.355752Z,1697901371355
0.7320756912231445,-0.12148237228393555,-0.2124178409576416,2023-10-21T15:16:11.376007Z,1697901371375
0.6782922744750977,-0.12716472148895264,-0.20643401145935059,2023-10-21T15:16:11.397859Z,1697901371397
0.6150102615356445,-0.12770044803619385,-0.19703197479248047,2023-10-21T15:16:11.416528Z,1697901371416
0.5419406890869141,-0.12270259857177734,-0.18318939208984375,2023-10-21T15:16:11.436824Z,1697901371436
0.46063709259033203,-0.11233353614807129,-0.16487455368041992,2023-10-21T15:16:11.457046Z,1697901371457
0.3631725311279297,-0.0942530632019043,-0.13830900192260742,2023-10-21T15:16:11.477253Z,1697901371477
0.24511146545410156,-0.06709837913513184,-0.09950995445251465,2023-10-21T15:16:11.497913Z,1697901371497
0.11773300170898438,-0.03374958038330078,-0.05089521408081055,2023-10-21T15:16:11.517889Z,1697901371517
-0.009470939636230469,0.0028214454650878906,0.00433349609375,2023-10-21T15:16:11.538185Z,1697901371538
-0.1228179931640625,0.03778529167175293,0.059157371520996094,2023-10-21T15:16:11.558328Z,1697901371558
-0.2310476303100586,0.07285022735595703,0.11688852310180664,2023-10-21T15:16:11.581022Z,1697901371580
-0.34099340438842773,0.10955953598022461,0.18094158172607422,2023-10-21T15:16:11.598890Z,1697901371598
-0.44959259033203125,0.1464071273803711,0.2496633529663086,2023-10-21T15:16:11.619189Z,1697901371619
-0.5566587448120117,0.18239951133728027,0.3225221633911133,2023-10-21T15:16:11.639448Z,1697901371639
-0.6672530174255371,0.2180936336517334,0.40131711959838867,2023-10-21T15:16:11.659620Z,1697901371659
-0.7762699127197266,0.2509026527404785,0.4808378219604492,2023-10-21T15:16:11.680932Z,1697901371680
-0.8773002624511719,0.27728772163391113,0.5553832054138184,2023-10-21T15:16:11.700218Z,1697901371700
-0.9754691123962402,0.2977433204650879,0.6268157958984375,2023-10-21T15:16:11.720530Z,1697901371720
-1.0741066932678223,0.31283068656921387,0.6977500915527344,2023-10-21T15:16:11.740749Z,1697901371740
-1.1882495880126953,0.32530057430267334,0.7768855094909668,2023-10-21T15:16:11.760921Z,1697901371760
-1.3157014846801758,0.33356940746307373,0.8597030639648438,2023-10-21T15:16:11.781274Z,1697901371781
-1.4496617317199707,0.3334939479827881,0.9389824867248535,2023-10-21T15:16:11.801577Z,1697901371801
-1.5862936973571777,0.322576642036438,1.0099048614501953,2023-10-21T15:16:11.821852Z,1697901371821
-1.718177318572998,0.29967665672302246,1.0651440620422363,2023-10-21T15:16:11.842111Z,1697901371842
-1.8394150733947754,0.2647587060928345,1.1000688076019287,2023-10-21T15:16:11.864156Z,1697901371864
-1.9473605155944824,0.21931838989257812,1.114222764968872,2023-10-21T15:16:11.882754Z,1697901371882
-2.036616802215576,0.16508698463439941,1.1066150665283203,2023-10-21T15:16:11.903026Z,1697901371902
-2.0987682342529297,0.10479047894477844,1.0754845142364502,2023-10-21T15:16:11.923278Z,1697901371923
-2.126297950744629,0.04181468486785889,1.021714448928833,2023-10-21T15:16:11.943386Z,1697901371943
-2.1178994178771973,-0.02030126005411148,0.9478316307067871,2023-10-21T15:16:11.964048Z,1697901371964
-2.063164710998535,-0.07536444067955017,0.8521237373352051,2023-10-21T15:16:11.983912Z,1697901371983
-1.9499316215515137,-0.11881124973297119,0.7386233806610107,2023-10-21T15:16:12.004209Z,1697901372004
-1.7842679023742676,-0.1481926441192627,0.618776798248291,2023-10-21T15:16:12.024414Z,1697901372024
-1.580759048461914,-0.16332721710205078,0.505103349685669,2023-10-21T15:16:12.047446Z,1697901372047
-1.3611078262329102,-0.16740858554840088,0.40303635597229004,2023-10-21T15:16:12.064953Z,1697901372064
-1.1238470077514648,-0.15843594074249268,0.30882906913757324,2023-10-21T15:16:12.085280Z,1697901372085
-0.865203857421875,-0.13617455959320068,0.22091174125671387,2023-10-21T15:16:12.105473Z,1697901372105
-0.5942697525024414,-0.10271143913269043,0.14150381088256836,2023-10-21T15:16:12.125710Z,1697901372125
-0.32074451446533203,-0.06009066104888916,0.07164144515991211,2023-10-21T15:16:12.147176Z,1697901372147
-0.049560546875,-0.00995326042175293,0.010504007339477539,2023-10-21T15:16:12.166272Z,1697901372166
0.20453739166259766,0.04379892349243164,-0.04181802272796631,2023-10-21T15:16:12.186597Z,1697901372186
0.4276399612426758,0.09715628623962402,-0.0855475664138794,2023-10-21T15:16:12.206802Z,1697901372206
0.6211299896240234,0.1488206386566162,-0.12306523323059082,2023-10-21T15:16:12.227039Z,1697901372227
0.7924537658691406,0.1990058422088623,-0.15641486644744873,2023-10-21T15:16:12.247325Z,1697901372247
0.9540567398071289,0.24873709678649902,-0.1891932487487793,2023-10-21T15:16:12.267645Z,1697901372267
1.1021308898925781,0.29657959938049316,-0.22208380699157715,2023-10-21T15:16:12.287895Z,1697901372287
1.2294940948486328,0.3394606113433838,-0.2542557716369629,2023-10-21T15:16:12.308125Z,1697901372308
1.337320327758789,0.37633347511291504,-0.28604912757873535,2023-10-21T15:16:12.330573Z,1697901372330
1.4256792068481445,0.4068310260772705,-0.317385196685791,2023-10-21T15:16:12.348649Z,1697901372348
1.4935235977172852,0.4303560256958008,-0.3476119041442871,2023-10-21T15:16:12.368951Z,1697901372368
1.5433721542358398,0.447476863861084,-0.37669849395751953,2023-10-21T15:16:12.389196Z,1697901372389
1.576674461364746,0.4587128162384033,-0.40415239334106445,2023-10-21T15:16:12.409455Z,1697901372409
1.5937976837158203,0.46448206901550293,-0.42908787727355957,2023-10-21T15:16:12.430684Z,1697901372430
1.5954265594482422,0.4652121067047119,-0.4507002830505371,2023-10-21T15:16:12.450076Z,1697901372450
1.5824432373046875,0.46123576164245605,-0.4683094024658203,2023-10-21T15:16:12.470308Z,1697901372470
1.5547704696655273,0.4526638984680176,-0.48111915588378906,2023-10-21T15:16:12.490562Z,1697901372490
1.510777473449707,0.4395270347595215,-0.4879467487335205,2023-10-21T15:16:12.514027Z,1697901372513
1.4488353729248047,0.4219632148742676,-0.4874560832977295,2023-10-21T15:16:12.531066Z,1697901372531
1.370309829711914,0.4004504680633545,-0.47916483879089355,2023-10-21T15:16:12.551329Z,1697901372551
1.277252197265625,0.37543535232543945,-0.4630403518676758,2023-10-21T15:16:12.571583Z,1697901372571
1.1704273223876953,0.3469383716583252,-0.43878889083862305,2023-10-21T15:16:12.591830Z,1697901372591
1.0513219833374023,0.3150806427001953,-0.4064970016479492,2023-10-21T15:16:12.613745Z,1697901372613
0.922419548034668,0.28009891510009766,-0.36679935455322266,2023-10-21T15:16:12.632369Z,1697901372632
0.7875080108642578,0.24273085594177246,-0.3211655616760254,2023-10-21T15:16:12.652652Z,1697901372652
0.6520528793334961,0.2044360637664795,-0.2719612121582031,2023-10-21T15:16:12.672879Z,1697901372672
0.5226726531982422,0.16717839241027832,-0.22226476669311523,2023-10-21T15:16:12.693074Z,1697901372693
0.4067497253417969,0.13317155838012695,-0.1756594181060791,2023-10-21T15:16:12.713657Z,1697901372713
0.31064510345458984,0.10442805290222168,-0.13558030128479004,2023-10-21T15:16:12.733698Z,1697901372733
0.23808002471923828,0.08237266540527344,-0.10444211959838867,2023-10-21T15:16:12.753987Z,1697901372753
0.19007110595703125,0.06778240203857422,-0.08330917358398438,2023-10-21T15:16:12.774171Z,1697901372774
0.16572189331054688,0.06095385551452637,-0.07213568687438965,2023-10-21T15:16:12.797019Z,1697901372796
0.16223716735839844,0.06154346466064453,-0.06971240043640137,2023-10-21T15:16:12.814738Z,1697901372814
0.17500972747802734,0.06843900680541992,-0.07381749153137207,2023-10-21T15:16:12.835022Z,1697901372834
0.1981334686279297,0.07978534698486328,-0.08160567283630371,2023-10-21T15:16:12.855268Z,1697901372855
0.22558116912841797,0.09339189529418945,-0.09031939506530762,2023-10-21T15:16:12.875493Z,1697901372875
