ACC_X,ACC_Y,ACC_Z,DATE,UNIX_TIMESTAMP
-0.011947870254516602,0.20327329635620117,0.3269920349121094,2023-10-21T15:16:47.942769Z,1697901407942
-0.019460320472717285,0.19170379638671875,0.30701446533203125,2023-10-21T15:16:47.959397Z,1697901407959
-0.02810722589492798,0.2355632781982422,0.3814506530761719,2023-10-21T15:16:47.979070Z,1697901407979
-0.01667112112045288,0.14401721954345703,0.2275676727294922,2023-10-21T15:16:47.999283Z,1697901407999
2.1630525588989258E-4,-0.0022830963134765625,-0.0034894943237304688,2023-10-21T15:16:48.022669Z,1697901408022
0.012605667114257812,-0.1489853858947754,-0.22133398056030273,2023-10-21T15:16:48.042562Z,1697901408042
0.01782965660095215,-0.21929931640625,-0.3214249610900879,2023-10-21T15:16:48.060073Z,1697901408060
0.018663346767425537,-0.2610344886779785,-0.3862919807434082,2023-10-21T15:16:48.080343Z,1697901408080
0.01778090000152588,-0.24778032302856445,-0.36984968185424805,2023-10-21T15:16:48.100633Z,1697901408100
0.01710936427116394,-0.24945831298828125,-0.3760371208190918,2023-10-21T15:16:48.122593Z,1697901408122
0.007000327110290527,-0.0801248550415039,-0.12240886688232422,2023-10-21T15:16:48.141282Z,1697901408141
0.010994404554367065,-0.13301944732666016,-0.20163631439208984,2023-10-21T15:16:48.161473Z,1697901408161
0.014963418245315552,-0.1988382339477539,-0.2976055145263672,2023-10-21T15:16:48.181741Z,1697901408181
0.017793238162994385,-0.26317930221557617,-0.3875107765197754,2023-10-21T15:16:48.201915Z,1697901408201
0.019893527030944824,-0.3282737731933594,-0.4744415283203125,2023-10-21T15:16:48.242599Z,1697901408242
0.021610110998153687,-0.39099931716918945,-0.5527458190917969,2023-10-21T15:16:48.244641Z,1697901408244
0.02348509430885315,-0.45781612396240234,-0.6300997734069824,2023-10-21T15:16:48.275518Z,1697901408275
0.02606603503227234,-0.5281386375427246,-0.7033700942993164,2023-10-21T15:16:48.283013Z,1697901408282
0.02940550446510315,-0.6074438095092773,-0.7784585952758789,2023-10-21T15:16:48.323937Z,1697901408323
0.03290379047393799,-0.6936545372009277,-0.8523173332214355,2023-10-21T15:16:48.325580Z,1697901408325
0.033698007464408875,-0.7850203514099121,-0.9194960594177246,2023-10-21T15:16:48.343867Z,1697901408343
0.029781118035316467,-0.8793482780456543,-0.9826455116271973,2023-10-21T15:16:48.377033Z,1697901408377
0.020020082592964172,-0.9651350975036621,-1.0328998565673828,2023-10-21T15:16:48.384395Z,1697901408384
0.0027794931083917618,-1.049631118774414,-1.070021629333496,2023-10-21T15:16:48.410433Z,1697901408410
-0.024564281105995178,-1.1582746505737305,-1.12764310836792,2023-10-21T15:16:48.424898Z,1697901408424
-0.07216918468475342,-1.2934660911560059,-1.1948390007019043,2023-10-21T15:16:48.445195Z,1697901408445
-0.17743337154388428,-1.466604232788086,-1.293466567993164,2023-10-21T15:16:48.465416Z,1697901408465
-0.37482893466949463,-1.6112971305847168,-1.3612165451049805,2023-10-21T15:16:48.490747Z,1697901408490
-0.6345162391662598,-1.6244583129882812,-1.334272861480713,2023-10-21T15:16:48.507455Z,1697901408507
-0.871483325958252,-1.506265640258789,-1.2239017486572266,2023-10-21T15:16:48.526279Z,1697901408526
-1.025597333908081,-1.3285493850708008,-1.098498821258545,2023-10-21T15:16:48.546500Z,1697901408546
-1.1228203773498535,-1.1440863609313965,-0.9707498550415039,2023-10-21T15:16:48.566765Z,1697901408566
-1.1284728050231934,-0.9016942977905273,-0.7740867137908936,2023-10-21T15:16:48.590218Z,1697901408590
-0.9519443511962891,-0.586395263671875,-0.5061056613922119,2023-10-21T15:16:48.607280Z,1697901408607
-0.2789703607559204,-1.1301536560058594,-1.2679829597473145,2023-10-21T15:16:48.637805Z,1697901408637
-0.39329957962036133,-1.2218284606933594,-1.3416109085083008,2023-10-21T15:16:48.647767Z,1697901408647
-0.5289463996887207,-1.2976675033569336,-1.3933539390563965,2023-10-21T15:16:48.667984Z,1697901408667
-0.680375337600708,-1.35113525390625,-1.4173779487609863,2023-10-21T15:16:48.692289Z,1697901408692
-0.8405845165252686,-1.3785529136657715,-1.4110636711120605,2023-10-21T15:16:48.723884Z,1697901408723
-1.000361442565918,-1.3759183883666992,-1.372246265411377,2023-10-21T15:16:48.728873Z,1697901408728
-1.1486947536468506,-1.3391833305358887,-1.2995800971984863,2023-10-21T15:16:48.758339Z,1697901408758
-1.271087646484375,-1.265385627746582,-1.1941957473754883,2023-10-21T15:16:48.806417Z,1697901408806
-1.3534131050109863,-1.1573610305786133,-1.0629651546478271,2023-10-21T15:16:48.808593Z,1697901408808
-1.3860316276550293,-1.0230355262756348,-0.9162373542785645,2023-10-21T15:16:48.810223Z,1697901408810
-1.3647074699401855,-0.8722906112670898,-0.7640597820281982,2023-10-21T15:16:48.830225Z,1697901408830
-1.289780616760254,-0.7149257659912109,-0.6147387027740479,2023-10-21T15:16:48.858051Z,1697901408858
-1.1649298667907715,-0.5599405765533447,-0.4744129180908203,2023-10-21T15:16:48.890631Z,1697901408890
-0.9959826469421387,-0.41437602043151855,-0.34713077545166016,2023-10-21T15:16:48.892821Z,1697901408892
-0.7898426055908203,-0.28325772285461426,-0.23557424545288086,2023-10-21T15:16:48.911277Z,1697901408911
-0.5517263412475586,-0.16955852508544922,-0.14049530029296875,2023-10-21T15:16:48.931469Z,1697901408931
-0.28631019592285156,-0.07484173774719238,-0.06194710731506348,2023-10-21T15:16:48.951670Z,1697901408951
-0.0021381378173828125,-4.730224609375E-4,-3.9005279541015625E-4,2023-10-21T15:16:48.973394Z,1697901408973
0.28592967987060547,0.053020477294921875,0.043497562408447266,2023-10-21T15:16:48.992312Z,1697901408992
0.5617847442626953,0.08692193031311035,0.07006072998046875,2023-10-21T15:16:49.012519Z,1697901409012
0.8157062530517578,0.10454678535461426,0.0812370777130127,2023-10-21T15:16:49.032721Z,1697901409032
1.0485782623291016,0.11036801338195801,0.0797731876373291,2023-10-21T15:16:49.056641Z,1697901409056
1.2626543045043945,0.10803192853927612,0.06816881895065308,2023-10-21T15:16:49.073332Z,1697901409073
1.4507818222045898,0.09981852769851685,0.04860568046569824,2023-10-21T15:16:49.093686Z,1697901409093
1.6014928817749023,0.08797210454940796,0.023667380213737488,2023-10-21T15:16:49.113899Z,1697901409113
1.7044944763183594,0.0746539831161499,-0.00371546670794487,2023-10-21T15:16:49.134058Z,1697901409134
1.7552661895751953,0.062166303396224976,-0.030925482511520386,2023-10-21T15:16:49.156617Z,1697901409156
1.7567291259765625,0.05179315805435181,-0.05583149194717407,2023-10-21T15:16:49.174692Z,1697901409174
1.7180194854736328,0.04416269063949585,-0.07700729370117188,2023-10-21T15:16:49.194974Z,1697901409194
1.6513128280639648,0.03936505317687988,-0.09359198808670044,2023-10-21T15:16:49.215119Z,1697901409215
1.5658588409423828,0.03712323307991028,-0.10548382997512817,2023-10-21T15:16:49.241136Z,1697901409241
1.4635028839111328,0.03702959418296814,-0.11252814531326294,2023-10-21T15:16:49.257347Z,1697901409257
1.3444023132324219,0.038604408502578735,-0.11497765779495239,2023-10-21T15:16:49.276118Z,1697901409276
1.2156963348388672,0.04126846790313721,-0.1137855052947998,2023-10-21T15:16:49.296357Z,1697901409296
1.088994026184082,0.044577717781066895,-0.11045479774475098,2023-10-21T15:16:49.316583Z,1697901409316
0.9744081497192383,0.04820495843887329,-0.1064232587814331,2023-10-21T15:16:49.340223Z,1697901409340
0.8772048950195312,0.051976680755615234,-0.10262954235076904,2023-10-21T15:16:49.357126Z,1697901409357
0.8002796173095703,0.05593991279602051,-0.0997840166091919,2023-10-21T15:16:49.377457Z,1697901409377
0.7433528900146484,0.06029844284057617,-0.09822988510131836,2023-10-21T15:16:49.397601Z,1697901409397
0.7026357650756836,0.06516116857528687,-0.09784376621246338,2023-10-21T15:16:49.417788Z,1697901409417
0.6713542938232422,0.0702519416809082,-0.09797132015228271,2023-10-21T15:16:49.439900Z,1697901409439
0.6420555114746094,0.07487499713897705,-0.09770238399505615,2023-10-21T15:16:49.458439Z,1697901409458
0.6101703643798828,0.07828044891357422,-0.09642505645751953,2023-10-21T15:16:49.478673Z,1697901409478
0.5742959976196289,0.0800635814666748,-0.09393370151519775,2023-10-21T15:16:49.498989Z,1697901409498
0.5347633361816406,0.08007490634918213,-0.0902935266494751,2023-10-21T15:16:49.523270Z,1697901409523
0.49331188201904297,0.0784686803817749,-0.08582472801208496,2023-10-21T15:16:49.539862Z,1697901409539
0.4503822326660156,0.07532060146331787,-0.08062195777893066,2023-10-21T15:16:49.559710Z,1697901409559
0.4047250747680664,0.07050347328186035,-0.07450008392333984,2023-10-21T15:16:49.579987Z,1697901409579
0.35742759704589844,0.06431329250335693,-0.06765782833099365,2023-10-21T15:16:49.600211Z,1697901409600
0.3125171661376953,0.05759739875793457,-0.0608673095703125,2023-10-21T15:16:49.623226Z,1697901409623
0.27649879455566406,0.05168342590332031,-0.055404067039489746,2023-10-21T15:16:49.640743Z,1697901409640
0.25463104248046875,0.04771304130554199,-0.05241692066192627,2023-10-21T15:16:49.661035Z,1697901409660
0.2494068145751953,0.04625749588012695,-0.0525822639465332,2023-10-21T15:16:49.681265Z,1697901409681
0.2603282928466797,0.04720461368560791,-0.05597949028015137,2023-10-21T15:16:49.706325Z,1697901409706
0.2825040817260742,0.04955494403839111,-0.0616755485534668,2023-10-21T15:16:49.722984Z,1697901409722
0.3098278045654297,0.05209076404571533,-0.06833338737487793,2023-10-21T15:16:49.742113Z,1697901409742
0.33890438079833984,0.054075002670288086,-0.07514095306396484,2023-10-21T15:16:49.762325Z,1697901409762
0.3711519241333008,0.05551636219024658,-0.08237767219543457,2023-10-21T15:16:49.782631Z,1697901409782
0.4080362319946289,0.05639910697937012,-0.09036993980407715,2023-10-21T15:16:49.806147Z,1697901409806
0.4484071731567383,0.056426286697387695,-0.0988459587097168,2023-10-21T15:16:49.823105Z,1697901409823
0.48853111267089844,0.055147409439086914,-0.1069648265838623,2023-10-21T15:16:49.843417Z,1697901409843
0.5247411727905273,0.052306175231933594,-0.11390256881713867,2023-10-21T15:16:49.863656Z,1697901409863
0.5536861419677734,0.04785686731338501,-0.11900544166564941,2023-10-21T15:16:49.883871Z,1697901409883
0.5738611221313477,0.04203438758850098,-0.12210536003112793,2023-10-21T15:16:49.905974Z,1697901409905
0.5888280868530273,0.03546023368835449,-0.1241447925567627,2023-10-21T15:16:49.924481Z,1697901409924
0.6039943695068359,0.028709858655929565,-0.12634944915771484,2023-10-21T15:16:49.944751Z,1697901409944
0.6225986480712891,0.02206355333328247,-0.12932085990905762,2023-10-21T15:16:49.964959Z,1697901409964
0.6436958312988281,0.01561690866947174,-0.13260316848754883,2023-10-21T15:16:49.989232Z,1697901409989
0.66534423828125,0.009485810995101929,-0.1354963779449463,2023-10-21T15:16:50.005900Z,1697901410005
0.6864442825317383,0.003807373344898224,-0.13750815391540527,2023-10-21T15:16:50.025811Z,1697901410025
0.705042839050293,-0.001246357336640358,-0.13803839683532715,2023-10-21T15:16:50.046111Z,1697901410046
0.7188005447387695,-0.005490578711032867,-0.13652944564819336,2023-10-21T15:16:50.066248Z,1697901410066
0.7262659072875977,-0.008750930428504944,-0.13262999057769775,2023-10-21T15:16:50.089203Z,1697901410089
0.7271347045898438,-0.010962486267089844,-0.12624859809875488,2023-10-21T15:16:50.106798Z,1697901410106
0.7207908630371094,-0.012225747108459473,-0.11730349063873291,2023-10-21T15:16:50.127093Z,1697901410127
0.7058496475219727,-0.01273249089717865,-0.10577881336212158,2023-10-21T15:16:50.147382Z,1697901410147
0.6813535690307617,-0.012722671031951904,-0.09195530414581299,2023-10-21T15:16:50.172369Z,1697901410172
0.6469478607177734,-0.012401595711708069,-0.07644343376159668,2023-10-21T15:16:50.189048Z,1697901410189
0.602879524230957,-0.011972591280937195,-0.060033202171325684,2023-10-21T15:16:50.208145Z,1697901410208
0.5505294799804688,-0.01160372793674469,-0.04372507333755493,2023-10-21T15:16:50.228426Z,1697901410228
0.49247264862060547,-0.011312320828437805,-0.028589189052581787,2023-10-21T15:16:50.248681Z,1697901410248
0.4308652877807617,-0.010967612266540527,-0.015401959419250488,2023-10-21T15:16:50.272372Z,1697901410272
0.3660707473754883,-0.010393589735031128,-0.004633724689483643,2023-10-21T15:16:50.289183Z,1697901410289
0.2976675033569336,-0.009440094232559204,0.003343045711517334,2023-10-21T15:16:50.309488Z,1697901410309
0.2251901626586914,-0.007995516061782837,0.008078277111053467,2023-10-21T15:16:50.329740Z,1697901410329
0.14985084533691406,-0.005966842174530029,0.00916755199432373,2023-10-21T15:16:50.349971Z,1697901410349
0.07407665252685547,-0.0033023059368133545,0.006443202495574951,2023-10-21T15:16:50.372405Z,1697901410372
7.944107055664062E-4,-3.9696693420410156E-5,9.02414321899414E-5,2023-10-21T15:16:50.390704Z,1697901410390
-0.06770801544189453,0.00370633602142334,-0.009450674057006836,2023-10-21T15:16:50.410740Z,1697901410410
-0.13053607940673828,0.007809877395629883,-0.021728038787841797,2023-10-21T15:16:50.431102Z,1697901410431
-0.18695640563964844,0.012141227722167969,-0.036249399185180664,2023-10-21T15:16:50.455594Z,1697901410455
-0.23560333251953125,0.016548991203308105,-0.05229902267456055,2023-10-21T15:16:50.472292Z,1697901410472
-0.27483558654785156,0.02085280418395996,-0.06888198852539062,2023-10-21T15:16:50.491875Z,1697901410491
-0.30289268493652344,0.024815618991851807,-0.08466649055480957,2023-10-21T15:16:50.512154Z,1697901410512
-0.31795501708984375,0.0280911922454834,-0.0980536937713623,2023-10-21T15:16:50.532410Z,1697901410532
-0.31977081298828125,0.03036600351333618,-0.10767889022827148,2023-10-21T15:16:50.555643Z,1697901410555
-0.30965709686279297,0.0314176082611084,-0.1127614974975586,2023-10-21T15:16:50.572916Z,1697901410572
-0.29081249237060547,0.03125101327896118,-0.11350536346435547,2023-10-21T15:16:50.593146Z,1697901410593
-0.26505279541015625,0.02984762191772461,-0.11001873016357422,2023-10-21T15:16:50.613382Z,1697901410613
-0.2331705093383789,0.027170658111572266,-0.10222482681274414,2023-10-21T15:16:50.633646Z,1697901410633
-0.1972341537475586,0.023473262786865234,-0.09076690673828125,2023-10-21T15:16:50.655597Z,1697901410655
-0.1620950698852539,0.019445419311523438,-0.07781457901000977,2023-10-21T15:16:50.674253Z,1697901410674
-0.13588619232177734,0.016199111938476562,-0.06760978698730469,2023-10-21T15:16:50.694457Z,1697901410694
-0.12552356719970703,0.014614284038543701,-0.06429529190063477,2023-10-21T15:16:50.714759Z,1697901410714
-0.1336688995361328,0.014861702919006348,-0.07002973556518555,2023-10-21T15:16:50.738815Z,1697901410738
-0.14837360382080078,0.015362918376922607,-0.07914447784423828,2023-10-21T15:16:50.755708Z,1697901410755
-0.15370559692382812,0.014425992965698242,-0.08324146270751953,2023-10-21T15:16:50.775562Z,1697901410775
-0.1595001220703125,0.013036549091339111,-0.08759355545043945,2023-10-21T15:16:50.795838Z,1697901410795
-0.18125343322753906,0.012077510356903076,-0.10095930099487305,2023-10-21T15:16:50.816099Z,1697901410816
-0.23646259307861328,0.011365741491317749,-0.13347911834716797,2023-10-21T15:16:50.839398Z,1697901410839
-0.31708431243896484,0.00830136239528656,-0.18140172958374023,2023-10-21T15:16:50.856553Z,1697901410856
-0.4029083251953125,5.669873207807541E-4,-0.23387384414672852,2023-10-21T15:16:50.876845Z,1697901410876
-0.483612060546875,-0.012743040919303894,-0.2856483459472656,2023-10-21T15:16:50.897097Z,1697901410897
-0.5520052909851074,-0.03143352270126343,-0.3332805633544922,2023-10-21T15:16:50.922310Z,1697901410922
-0.6031250953674316,-0.05429929494857788,-0.37400102615356445,2023-10-21T15:16:50.939195Z,1697901410939
-0.6435589790344238,-0.08094638586044312,-0.4112119674682617,2023-10-21T15:16:50.958006Z,1697901410957
-0.6841855049133301,-0.11276590824127197,-0.4515080451965332,2023-10-21T15:16:50.978144Z,1697901410978
-0.715306282043457,-0.1474010944366455,-0.48819732666015625,2023-10-21T15:16:50.998426Z,1697901410998
-0.7267160415649414,-0.1800997257232666,-0.5132842063903809,2023-10-21T15:16:51.022327Z,1697901411022
-0.7071418762207031,-0.2039484977722168,-0.5175409317016602,2023-10-21T15:16:51.038912Z,1697901411038
-0.6640844345092773,-0.2176074981689453,-0.503908634185791,2023-10-21T15:16:51.059223Z,1697901411059
-0.6104574203491211,-0.2236623764038086,-0.48030757904052734,2023-10-21T15:16:51.079437Z,1697901411079
-0.5493865013122559,-0.22162413597106934,-0.44748497009277344,2023-10-21T15:16:51.099616Z,1697901411099
-0.484468936920166,-0.2120192050933838,-0.4072246551513672,2023-10-21T15:16:51.121967Z,1697901411121
-0.4218878746032715,-0.19774413108825684,-0.36480045318603516,2023-10-21T15:16:51.140257Z,1697901411140
-0.3667726516723633,-0.18230509757995605,-0.3255295753479004,2023-10-21T15:16:51.160492Z,1697901411160
-0.32003116607666016,-0.16744375228881836,-0.2911868095397949,2023-10-21T15:16:51.180755Z,1697901411180
-0.2779426574707031,-0.15197110176086426,-0.2588534355163574,2023-10-21T15:16:51.204970Z,1697901411204
-0.2366042137145996,-0.13413619995117188,-0.22505617141723633,2023-10-21T15:16:51.221825Z,1697901411221
-0.19493722915649414,-0.11364126205444336,-0.18896865844726562,2023-10-21T15:16:51.241596Z,1697901411241
-0.16088008880615234,-0.09593677520751953,-0.1586437225341797,2023-10-21T15:16:51.261875Z,1697901411261
-0.14358806610107422,-0.08750724792480469,-0.14391517639160156,2023-10-21T15:16:51.282137Z,1697901411282
-0.13719987869262695,-0.08516955375671387,-0.1395244598388672,2023-10-21T15:16:51.304893Z,1697901411304
-0.13224363327026367,-0.08301544189453125,-0.1360011100769043,2023-10-21T15:16:51.322633Z,1697901411322
-0.11507415771484375,-0.07224512100219727,-0.11929702758789062,2023-10-21T15:16:51.342978Z,1697901411342
-0.08738088607788086,-0.05434060096740723,-0.09104108810424805,2023-10-21T15:16:51.363160Z,1697901411363
-0.058205604553222656,-0.03564715385437012,-0.060811519622802734,2023-10-21T15:16:51.383537Z,1697901411383
-0.03256416320800781,-0.019538402557373047,-0.034024715423583984,2023-10-21T15:16:51.404865Z,1697901411404
-0.012632369995117188,-0.007391214370727539,-0.01315927505493164,2023-10-21T15:16:51.424116Z,1697901411424
7.109642028808594E-4,4.0459632873535156E-4,7.357597351074219E-4,2023-10-21T15:16:51.444398Z,1697901411444
0.013350963592529297,0.0073473453521728516,0.013733386993408203,2023-10-21T15:16:51.464644Z,1697901411464
0.033582210540771484,0.0177609920501709,0.03425931930541992,2023-10-21T15:16:51.488182Z,1697901411488
0.05609703063964844,0.028422117233276367,0.056771278381347656,2023-10-21T15:16:51.504985Z,1697901411504
0.0730581283569336,0.035516977310180664,0.07347440719604492,2023-10-21T15:16:51.525294Z,1697901411525
0.07153797149658203,0.03357243537902832,0.0716395378112793,2023-10-21T15:16:51.553276Z,1697901411553
0.05304574966430664,0.024166345596313477,0.05302572250366211,2023-10-21T15:16:51.565779Z,1697901411565
0.025975704193115234,0.01151728630065918,0.02597332000732422,2023-10-21T15:16:51.605195Z,1697901411605
-0.00792837142944336,-0.0034334659576416016,-0.007952690124511719,2023-10-21T15:16:51.607566Z,1697901411607
-0.048680782318115234,-0.02069878578186035,-0.04915809631347656,2023-10-21T15:16:51.640475Z,1697901411640
-0.09437131881713867,-0.03960013389587402,-0.09619998931884766,2023-10-21T15:16:51.646799Z,1697901411646
-0.1418442726135254,-0.05901288986206055,-0.14615917205810547,2023-10-21T15:16:51.673035Z,1697901411673
-0.18772554397583008,-0.0777292251586914,-0.19557428359985352,2023-10-21T15:16:51.720920Z,1697901411720
-0.23066473007202148,-0.09544086456298828,-0.24298906326293945,2023-10-21T15:16:51.723196Z,1697901411723
-0.27080726623535156,-0.11253046989440918,-0.2885608673095703,2023-10-21T15:16:51.727849Z,1697901411727
-0.30826282501220703,-0.12937355041503906,-0.3322281837463379,2023-10-21T15:16:51.748156Z,1697901411748
-0.34283971786499023,-0.1460886001586914,-0.3732142448425293,2023-10-21T15:16:51.772750Z,1697901411772
-0.3748478889465332,-0.16284704208374023,-0.41107702255249023,2023-10-21T15:16:51.805022Z,1697901411804
-0.40551042556762695,-0.18012666702270508,-0.44638681411743164,2023-10-21T15:16:51.808897Z,1697901411808
-0.4351663589477539,-0.19786667823791504,-0.47884082794189453,2023-10-21T15:16:51.829231Z,1697901411829
-0.4637770652770996,-0.2157437801361084,-0.5077657699584961,2023-10-21T15:16:51.849466Z,1697901411849
-0.4911990165710449,-0.23331904411315918,-0.5325627326965332,2023-10-21T15:16:51.871600Z,1697901411871
-0.5182662010192871,-0.2507786750793457,-0.5539083480834961,2023-10-21T15:16:51.890052Z,1697901411890
-0.5459203720092773,-0.2685093879699707,-0.5727014541625977,2023-10-21T15:16:51.910259Z,1697901411910
-0.5742006301879883,-0.28635168075561523,-0.5886449813842773,2023-10-21T15:16:51.930491Z,1697901411930
-0.602567195892334,-0.3038785457611084,-0.6006817817687988,2023-10-21T15:16:51.955245Z,1697901411955
-0.6298274993896484,-0.3204500675201416,-0.6073164939880371,2023-10-21T15:16:51.971776Z,1697901411971
-0.6544694900512695,-0.33545684814453125,-0.607027530670166,2023-10-21T15:16:51.991345Z,1697901411991
-0.6745538711547852,-0.34812402725219727,-0.5983877182006836,2023-10-21T15:16:52.011581Z,1697901412011
-0.6891579627990723,-0.3581557273864746,-0.5811190605163574,2023-10-21T15:16:52.031812Z,1697901412031
-0.6979312896728516,-0.365492582321167,-0.5557541847229004,2023-10-21T15:16:52.054707Z,1697901412054
-0.7006978988647461,-0.37004566192626953,-0.5232868194580078,2023-10-21T15:16:52.072357Z,1697901412072
-0.6973919868469238,-0.37175536155700684,-0.4851093292236328,2023-10-21T15:16:52.092668Z,1697901412092
-0.6877603530883789,-0.37035059928894043,-0.44251441955566406,2023-10-21T15:16:52.112903Z,1697901412112
-0.6716713905334473,-0.3656013011932373,-0.39693164825439453,2023-10-21T15:16:52.138052Z,1697901412138
-0.6491117477416992,-0.3572807312011719,-0.3497915267944336,2023-10-21T15:16:52.154807Z,1697901412154
-0.6198611259460449,-0.3449831008911133,-0.3022651672363281,2023-10-21T15:16:52.173694Z,1697901412173
-0.5844473838806152,-0.3288154602050781,-0.25565242767333984,2023-10-21T15:16:52.194015Z,1697901412193
-0.5426769256591797,-0.3085775375366211,-0.21065330505371094,2023-10-21T15:16:52.214198Z,1697901412214
-0.49308300018310547,-0.2834181785583496,-0.16748380661010742,2023-10-21T15:16:52.238176Z,1697901412238
-0.4335951805114746,-0.25218629837036133,-0.12647747993469238,2023-10-21T15:16:52.254721Z,1697901412254
-0.3626837730407715,-0.21391725540161133,-0.0885930061340332,2023-10-21T15:16:52.275039Z,1697901412274
-0.27958106994628906,-0.1677532196044922,-0.05522918701171875,2023-10-21T15:16:52.295309Z,1697901412295
-0.18506431579589844,-0.11334085464477539,-0.028109192848205566,2023-10-21T15:16:52.315479Z,1697901412315
-0.08142471313476562,-0.051067352294921875,-0.008747696876525879,2023-10-21T15:16:52.337829Z,1697901412337
0.0279998779296875,0.018041133880615234,0.0017924904823303223,2023-10-21T15:16:52.356129Z,1697901412356
0.1394338607788086,0.09256792068481445,0.0029961466789245605,2023-10-21T15:16:52.376353Z,1697901412376
0.24953174591064453,0.17106056213378906,-0.005059391260147095,2023-10-21T15:16:52.396643Z,1697901412396
0.35460567474365234,0.2512660026550293,-0.02167302370071411,2023-10-21T15:16:52.421189Z,1697901412421
0.45026254653930664,0.329833984375,-0.04539644718170166,2023-10-21T15:16:52.437914Z,1697901412437
0.5324482917785645,0.4030437469482422,-0.07408106327056885,2023-10-21T15:16:52.457442Z,1697901412457
0.5992684364318848,0.4681234359741211,-0.10543191432952881,2023-10-21T15:16:52.477678Z,1697901412477
0.6507816314697266,0.523435115814209,-0.13749432563781738,2023-10-21T15:16:52.497903Z,1697901412497
0.6892738342285156,0.5692620277404785,-0.16919922828674316,2023-10-21T15:16:52.521184Z,1697901412521
0.7181377410888672,0.6071767807006836,-0.20005035400390625,2023-10-21T15:16:52.538463Z,1697901412538
0.7408905029296875,0.6391162872314453,-0.22980761528015137,2023-10-21T15:16:52.558743Z,1697901412558
0.760981559753418,0.667356014251709,-0.2586071491241455,2023-10-21T15:16:52.579019Z,1697901412578
0.7805013656616211,0.6935024261474609,-0.2866206169128418,2023-10-21T15:16:52.604334Z,1697901412604
0.8011951446533203,0.7192754745483398,-0.3143272399902344,2023-10-21T15:16:52.621035Z,1697901412620
0.8249087333679199,0.7464256286621094,-0.34248995780944824,2023-10-21T15:16:52.639762Z,1697901412639
0.8536043167114258,0.7766528129577637,-0.3720393180847168,2023-10-21T15:16:52.660054Z,1697901412660
0.8881750106811523,0.810823917388916,-0.4035525321960449,2023-10-21T15:16:52.680287Z,1697901412680
0.9265947341918945,0.847313404083252,-0.4360542297363281,2023-10-21T15:16:52.704206Z,1697901412704
0.9645919799804688,0.8822288513183594,-0.46706128120422363,2023-10-21T15:16:52.720847Z,1697901412720
0.9961276054382324,0.9095048904418945,-0.49266600608825684,2023-10-21T15:16:52.741115Z,1697901412741
1.01619291305542,0.9234318733215332,-0.5091056823730469,2023-10-21T15:16:52.761388Z,1697901412761
1.0228590965270996,0.9205832481384277,-0.5140814781188965,2023-10-21T15:16:52.781592Z,1697901412781
1.0182957649230957,0.9013400077819824,-0.507793664932251,2023-10-21T15:16:52.804316Z,1697901412804
1.0064468383789062,0.8687338829040527,-0.49216270446777344,2023-10-21T15:16:52.822193Z,1697901412822
0.9894981384277344,0.8255829811096191,-0.4689211845397949,2023-10-21T15:16:52.842438Z,1697901412842
0.966280460357666,0.7730393409729004,-0.43867063522338867,2023-10-21T15:16:52.862739Z,1697901412862
0.9356508255004883,0.7127385139465332,-0.40239810943603516,2023-10-21T15:16:52.887636Z,1697901412887
0.8999538421630859,0.6487812995910645,-0.3628528118133545,2023-10-21T15:16:52.904349Z,1697901412904
0.8641214370727539,0.5865993499755859,-0.3237323760986328,2023-10-21T15:16:52.923502Z,1697901412923
0.8330140113830566,0.5305967330932617,-0.28813886642456055,2023-10-21T15:16:52.943730Z,1697901412943
0.8086223602294922,0.4823594093322754,-0.2572925090789795,2023-10-21T15:16:52.963938Z,1697901412963
0.788142204284668,0.44036006927490234,-0.2304673194885254,2023-10-21T15:16:52.987583Z,1697901412987
0.7650604248046875,0.4012022018432617,-0.20579862594604492,2023-10-21T15:16:53.004604Z,1697901413004
0.7323074340820312,0.3615684509277344,-0.18156147003173828,2023-10-21T15:16:53.024807Z,1697901413024
0.6853675842285156,0.3197011947631836,-0.15703630447387695,2023-10-21T15:16:53.045032Z,1697901413045
0.625025749206543,0.27622532844543457,-0.132781982421875,2023-10-21T15:16:53.065193Z,1697901413065
0.5548772811889648,0.23267149925231934,-0.1096416711807251,2023-10-21T15:16:53.087474Z,1697901413087
0.47966480255126953,0.19069695472717285,-0.08830690383911133,2023-10-21T15:16:53.105882Z,1697901413105
0.40444183349609375,0.15189480781555176,-0.06926524639129639,2023-10-21T15:16:53.126115Z,1697901413126
0.33385658264160156,0.11767840385437012,-0.05289041996002197,2023-10-21T15:16:53.146354Z,1697901413146
0.27179527282714844,0.08913302421569824,-0.03948020935058594,2023-10-21T15:16:53.170629Z,1697901413170
0.22293949127197266,0.06731843948364258,-0.029401659965515137,2023-10-21T15:16:53.187313Z,1697901413187
0.1947612762451172,0.053524017333984375,-0.02317368984222412,2023-10-21T15:16:53.207219Z,1697901413207
0.19295787811279297,0.04769086837768555,-0.020721077919006348,2023-10-21T15:16:53.227463Z,1697901413227
0.21813392639160156,0.0479128360748291,-0.021293222904205322,2023-10-21T15:16:53.247713Z,1697901413247
0.26436328887939453,0.05092453956604004,-0.02376091480255127,2023-10-21T15:16:53.270643Z,1697901413270
0.3218364715576172,0.05343639850616455,-0.02719181776046753,2023-10-21T15:16:53.288209Z,1697901413288
0.38173484802246094,0.05329585075378418,-0.03133302927017212,2023-10-21T15:16:53.308509Z,1697901413308
0.4389524459838867,0.04972124099731445,-0.03664666414260864,2023-10-21T15:16:53.328762Z,1697901413328
0.4932861328125,0.043079674243927,-0.044069111347198486,2023-10-21T15:16:53.354249Z,1697901413354
0.5502519607543945,0.03420370817184448,-0.054991722106933594,2023-10-21T15:16:53.370719Z,1697901413370
0.6169309616088867,0.023438692092895508,-0.07097864151000977,2023-10-21T15:16:53.389539Z,1697901413389
0.6963405609130859,0.010308876633644104,-0.09321963787078857,2023-10-21T15:16:53.409848Z,1697901413409
0.7905616760253906,-0.0060869306325912476,-0.12274456024169922,2023-10-21T15:16:53.430052Z,1697901413430
0.9025392532348633,-0.02685922384262085,-0.16072332859039307,2023-10-21T15:16:53.453839Z,1697901413453
1.0367097854614258,-0.05321192741394043,-0.2088310718536377,2023-10-21T15:16:53.472698Z,1697901413472
1.1972932815551758,-0.08627617359161377,-0.26866745948791504,2023-10-21T15:16:53.490912Z,1697901413490
1.3837041854858398,-0.12646478414535522,-0.3401906490325928,2023-10-21T15:16:53.511154Z,1697901413511
1.590688705444336,-0.17317044734954834,-0.4210779666900635,2023-10-21T15:16:53.531380Z,1697901413531
1.8100662231445312,-0.22520971298217773,-0.5072793960571289,2023-10-21T15:16:53.553646Z,1697901413553
2.029360771179199,-0.28041577339172363,-0.5932183265686035,2023-10-21T15:16:53.572031Z,1697901413571
2.2348718643188477,-0.3359931707382202,-0.6730046272277832,2023-10-21T15:16:53.592272Z,1697901413592
2.4135475158691406,-0.3886451721191406,-0.7413184642791748,2023-10-21T15:16:53.612437Z,1697901413612
2.554183006286621,-0.435070276260376,-0.7939586639404297,2023-10-21T15:16:53.636982Z,1697901413636
2.6503477096557617,-0.47268056869506836,-0.8287615776062012,2023-10-21T15:16:53.653402Z,1697901413653
2.699610710144043,-0.4996805191040039,-0.8450503349304199,2023-10-21T15:16:53.673246Z,1697901413673
2.7011289596557617,-0.514897346496582,-0.8424777984619141,2023-10-21T15:16:53.693475Z,1697901413693
2.6532154083251953,-0.5178165435791016,-0.8201439380645752,2023-10-21T15:16:53.713726Z,1697901413713
2.555633544921875,-0.5088434219360352,-0.777815580368042,2023-10-21T15:16:53.736563Z,1697901413736
2.412109375,-0.4887770414352417,-0.7174158096313477,2023-10-21T15:16:53.754257Z,1697901413754
2.229372978210449,-0.45823967456817627,-0.6425414085388184,2023-10-21T15:16:53.774566Z,1697901413774
2.0131654739379883,-0.4172009229660034,-0.5566179752349854,2023-10-21T15:16:53.794747Z,1697901413794
1.765397071838379,-0.36555933952331543,-0.4618852138519287,2023-10-21T15:16:53.815028Z,1697901413814
1.4873037338256836,-0.3042113780975342,-0.3611600399017334,2023-10-21T15:16:53.836373Z,1697901413836
1.1822576522827148,-0.23588800430297852,-0.2594132423400879,2023-10-21T15:16:53.855593Z,1697901413855
0.8548431396484375,-0.16417181491851807,-0.16323208808898926,2023-10-21T15:16:53.875860Z,1697901413875
0.510167121887207,-0.09290218353271484,-0.08020913600921631,2023-10-21T15:16:53.896110Z,1697901413896
0.15505599975585938,-0.026271343231201172,-0.018346667289733887,2023-10-21T15:16:53.919720Z,1697901413919
-0.20205402374267578,0.031021833419799805,0.015042245388031006,2023-10-21T15:16:53.936691Z,1697901413936
-0.5513849258422852,0.0739518404006958,0.014148369431495667,2023-10-21T15:16:53.956948Z,1697901413956
-0.8814048767089844,0.09818106889724731,-0.02481168508529663,2023-10-21T15:16:53.977157Z,1697901413977
-1.1780166625976562,0.10139584541320801,-0.10244512557983398,2023-10-21T15:16:53.997383Z,1697901413997
-1.4244346618652344,0.08437824249267578,-0.21368789672851562,2023-10-21T15:16:54.019760Z,1697901414019
-1.6086540222167969,0.051401495933532715,-0.34769654273986816,2023-10-21T15:16:54.037992Z,1697901414037
-1.7254619598388672,0.008736789226531982,-0.49033308029174805,2023-10-21T15:16:54.058275Z,1697901414058
-1.775498867034912,-0.03723980486392975,-0.6266994476318359,2023-10-21T15:16:54.078480Z,1697901414078
-1.7600679397583008,-0.0805431604385376,-0.7409605979919434,2023-10-21T15:16:54.102919Z,1697901414102
-1.6805219650268555,-0.11613890528678894,-0.8172905445098877,2023-10-21T15:16:54.119697Z,1697901414119
-1.5564370155334473,-0.14201462268829346,-0.8520963191986084,2023-10-21T15:16:54.139324Z,1697901414139
-1.4047064781188965,-0.15794014930725098,-0.8470449447631836,2023-10-21T15:16:54.159546Z,1697901414159
-1.2434115409851074,-0.16620904207229614,-0.8110542297363281,2023-10-21T15:16:54.179795Z,1697901414179
-1.0777502059936523,-0.16712093353271484,-0.7484912872314453,2023-10-21T15:16:54.202813Z,1697901414202
-0.9074254035949707,-0.16059541702270508,-0.662114143371582,2023-10-21T15:16:54.220346Z,1697901414220
-0.739501953125,-0.14785897731781006,-0.561272144317627,2023-10-21T15:16:54.240593Z,1697901414240
-0.5794053077697754,-0.1300281286239624,-0.4538688659667969,2023-10-21T15:16:54.260838Z,1697901414260
-0.42850732803344727,-0.10717320442199707,-0.34403562545776367,2023-10-21T15:16:54.281086Z,1697901414281
-0.29099082946777344,-0.08059418201446533,-0.2381448745727539,2023-10-21T15:16:54.302967Z,1697901414302
-0.17393779754638672,-0.053044795989990234,-0.1445293426513672,2023-10-21T15:16:54.321690Z,1697901414321
-0.07362890243530273,-0.024524688720703125,-0.061856746673583984,2023-10-21T15:16:54.341956Z,1697901414341
0.01266622543334961,0.0045659542083740234,0.010717391967773438,2023-10-21T15:16:54.362164Z,1697901414362
0.09132099151611328,0.03521156311035156,0.07753992080688477,2023-10-21T15:16:54.386126Z,1697901414386
0.16103839874267578,0.06573176383972168,0.13683319091796875,2023-10-21T15:16:54.402736Z,1697901414402
0.2178516387939453,0.09332156181335449,0.18490076065063477,2023-10-21T15:16:54.423005Z,1697901414422
0.2647438049316406,0.11798930168151855,0.22385406494140625,2023-10-21T15:16:54.443244Z,1697901414443
0.30425167083740234,0.13995981216430664,0.25558042526245117,2023-10-21T15:16:54.463403Z,1697901414463
0.3357830047607422,0.15854668617248535,0.27974939346313477,2023-10-21T15:16:54.486254Z,1697901414486
0.3593788146972656,0.1736607551574707,0.2967529296875,2023-10-21T15:16:54.504027Z,1697901414503
0.3745875358581543,0.1851806640625,0.3066692352294922,2023-10-21T15:16:54.524346Z,1697901414524
0.38073301315307617,0.19284701347351074,0.3093271255493164,2023-10-21T15:16:54.544533Z,1697901414544
0.37752532958984375,0.19649958610534668,0.3047924041748047,2023-10-21T15:16:54.569269Z,1697901414569
0.36385250091552734,0.195296049118042,0.2923622131347656,2023-10-21T15:16:54.585828Z,1697901414585
0.33669471740722656,0.18719887733459473,0.26981258392333984,2023-10-21T15:16:54.605385Z,1697901414605
0.28979969024658203,0.16779279708862305,0.23209571838378906,2023-10-21T15:16:54.625578Z,1697901414625
0.22808599472045898,0.1379861831665039,0.18264245986938477,2023-10-21T15:16:54.645875Z,1697901414645
0.15621280670166016,0.09891223907470703,0.12498044967651367,2023-10-21T15:16:54.669632Z,1697901414669
0.08115863800048828,0.05368614196777344,0.06472110748291016,2023-10-21T15:16:54.686559Z,1697901414686
0.003975868225097656,0.00273895263671875,0.003150463104248047,2023-10-21T15:16:54.706855Z,1697901414706
-0.07680273056030273,-0.05484914779663086,-0.06023359298706055,2023-10-21T15:16:54.727126Z,1697901414727
-0.15551376342773438,-0.11427783966064453,-0.1199030876159668,2023-10-21T15:16:54.747209Z,1697901414747
-0.22809267044067383,-0.17090892791748047,-0.1715865135192871,2023-10-21T15:16:54.769513Z,1697901414769
-0.29310131072998047,-0.22206497192382812,-0.2136702537536621,2023-10-21T15:16:54.787761Z,1697901414787
-0.34687137603759766,-0.26343679428100586,-0.2434549331665039,2023-10-21T15:16:54.807970Z,1697901414807
-0.3827638626098633,-0.2886519432067871,-0.2570657730102539,2023-10-21T15:16:54.828198Z,1697901414828
-0.4018568992614746,-0.29869747161865234,-0.2572774887084961,2023-10-21T15:16:54.852487Z,1697901414852
-0.40561628341674805,-0.29550600051879883,-0.24705123901367188,2023-10-21T15:16:54.868990Z,1697901414868
-0.3986496925354004,-0.2841510772705078,-0.23090791702270508,2023-10-21T15:16:54.889048Z,1697901414889
-0.38025569915771484,-0.2648954391479492,-0.20934009552001953,2023-10-21T15:16:54.909257Z,1697901414909
-0.3476724624633789,-0.2365398406982422,-0.18179678916931152,2023-10-21T15:16:54.929477Z,1697901414929
-0.3064236640930176,-0.2038121223449707,-0.152299165725708,2023-10-21T15:16:54.952672Z,1697901414952
-0.2612767219543457,-0.1701655387878418,-0.12352705001831055,2023-10-21T15:16:54.970146Z,1697901414970
-0.21200990676879883,-0.13530683517456055,-0.09526824951171875,2023-10-21T15:16:54.990379Z,1697901414990
-0.15688800811767578,-0.0981283187866211,-0.06682825088500977,2023-10-21T15:16:55.010548Z,1697901415010
-0.0936594009399414,-0.057413578033447266,-0.03768301010131836,2023-10-21T15:16:55.035828Z,1697901415035
-0.02119302749633789,-0.012740612030029297,-0.008021831512451172,2023-10-21T15:16:55.052845Z,1697901415052
0.060390472412109375,0.035639286041259766,0.021401166915893555,2023-10-21T15:16:55.071411Z,1697901415071
0.15007972717285156,0.0870518684387207,0.04955554008483887,2023-10-21T15:16:55.091655Z,1697901415091
0.2445697784423828,0.13956356048583984,0.07483673095703125,2023-10-21T15:16:55.111870Z,1697901415111
0.34048938751220703,0.19130373001098633,0.09601593017578125,2023-10-21T15:16:55.135753Z,1697901415135
0.4360036849975586,0.24130535125732422,0.11261630058288574,2023-10-21T15:16:55.152421Z,1697901415152
0.5293741226196289,0.2888054847717285,0.12441086769104004,2023-10-21T15:16:55.172739Z,1697901415172
0.6178340911865234,0.3327012062072754,0.1311098337173462,2023-10-21T15:16:55.192947Z,1697901415192
0.696772575378418,0.37119340896606445,0.13230550289154053,2023-10-21T15:16:55.213132Z,1697901415213
0.7622318267822266,0.4029202461242676,0.12794959545135498,2023-10-21T15:16:55.235879Z,1697901415235
0.8124246597290039,0.42745351791381836,0.11851716041564941,2023-10-21T15:16:55.253820Z,1697901415253
0.8485240936279297,0.4456672668457031,0.104827880859375,2023-10-21T15:16:55.274112Z,1697901415274
0.8730487823486328,0.4589686393737793,0.08774346113204956,2023-10-21T15:16:55.294253Z,1697901415294
0.8889245986938477,0.46902894973754883,0.06809568405151367,2023-10-21T15:16:55.318945Z,1697901415318
0.8989295959472656,0.4774003028869629,0.04667258262634277,2023-10-21T15:16:55.336034Z,1697901415335
0.9042892456054688,0.4846320152282715,0.024150967597961426,2023-10-21T15:16:55.355119Z,1697901415355
0.9062738418579102,0.4909176826477051,0.0010985564440488815,2023-10-21T15:16:55.375429Z,1697901415375
0.9053211212158203,0.4957847595214844,-0.02213434875011444,2023-10-21T15:16:55.395568Z,1697901415395
0.9012088775634766,0.49841737747192383,-0.0453430712223053,2023-10-21T15:16:55.419130Z,1697901415419
0.8941316604614258,0.4983491897583008,-0.06824713945388794,2023-10-21T15:16:55.436204Z,1697901415436
0.8844175338745117,0.4953293800354004,-0.09055984020233154,2023-10-21T15:16:55.456419Z,1697901415456
0.8716669082641602,0.48888540267944336,-0.11191082000732422,2023-10-21T15:16:55.476655Z,1697901415476
0.8553028106689453,0.47860050201416016,-0.13191938400268555,2023-10-21T15:16:55.496843Z,1697901415496
0.8342952728271484,0.46384716033935547,-0.15015220642089844,2023-10-21T15:16:55.519221Z,1697901415519
0.8087434768676758,0.4447164535522461,-0.1663684844970703,2023-10-21T15:16:55.537484Z,1697901415537
0.7807216644287109,0.4225006103515625,-0.18076705932617188,2023-10-21T15:16:55.557717Z,1697901415557
0.7533502578735352,0.3992161750793457,-0.19394564628601074,2023-10-21T15:16:55.577968Z,1697901415577
0.7300910949707031,0.37699365615844727,-0.20665931701660156,2023-10-21T15:16:55.602188Z,1697901415602
0.7137260437011719,0.3573894500732422,-0.21964645385742188,2023-10-21T15:16:55.619078Z,1697901415619
0.7053623199462891,0.3408670425415039,-0.23338079452514648,2023-10-21T15:16:55.638806Z,1697901415638
0.7042055130004883,0.32685351371765137,-0.24788188934326172,2023-10-21T15:16:55.659030Z,1697901415659
0.7085056304931641,0.3143155574798584,-0.2627527713775635,2023-10-21T15:16:55.679219Z,1697901415679
0.7151927947998047,0.30168890953063965,-0.2768864631652832,2023-10-21T15:16:55.702211Z,1697901415702
0.7213554382324219,0.2876744270324707,-0.28906941413879395,2023-10-21T15:16:55.719838Z,1697901415719
0.7241811752319336,0.27130770683288574,-0.2981414794921875,2023-10-21T15:16:55.740111Z,1697901415740
0.7213296890258789,0.25218963623046875,-0.3033101558685303,2023-10-21T15:16:55.760281Z,1697901415760
0.7109174728393555,0.23029804229736328,-0.3039672374725342,2023-10-21T15:16:55.785291Z,1697901415785
0.6919364929199219,0.20604848861694336,-0.2998464107513428,2023-10-21T15:16:55.802077Z,1697901415802
0.6654815673828125,0.1804039478302002,-0.2916254997253418,2023-10-21T15:16:55.821165Z,1697901415821
0.6350488662719727,0.1548607349395752,-0.28113770484924316,2023-10-21T15:16:55.841402Z,1697901415841
0.6064243316650391,0.13120007514953613,-0.2712228298187256,2023-10-21T15:16:55.861610Z,1697901415861
0.5849533081054688,0.11053872108459473,-0.26433682441711426,2023-10-21T15:16:55.885411Z,1697901415885
0.5738372802734375,0.09303021430969238,-0.2617373466491699,2023-10-21T15:16:55.902824Z,1697901415902
0.5737409591674805,0.07808518409729004,-0.26340627670288086,2023-10-21T15:16:55.922508Z,1697901415922
0.5844564437866211,0.06493246555328369,-0.26898860931396484,2023-10-21T15:16:55.942720Z,1697901415942
0.6069583892822266,0.05299562215805054,-0.2787003517150879,2023-10-21T15:16:55.962918Z,1697901415962
0.6420936584472656,0.041755855083465576,-0.29276132583618164,2023-10-21T15:16:55.985461Z,1697901415985
0.6887378692626953,0.03059929609298706,-0.31046199798583984,2023-10-21T15:16:56.003574Z,1697901416003
0.742487907409668,0.01900339126586914,-0.32953643798828125,2023-10-21T15:16:56.023815Z,1697901416023
0.7970409393310547,0.0066726431250572205,-0.3468813896179199,2023-10-21T15:16:56.044021Z,1697901416043
0.8464860916137695,-0.00645224004983902,-0.3597407341003418,2023-10-21T15:16:56.068547Z,1697901416068
0.8877429962158203,-0.020211011171340942,-0.36701226234436035,2023-10-21T15:16:56.085102Z,1697901416085
0.9212312698364258,-0.03436911106109619,-0.36949920654296875,2023-10-21T15:16:56.104880Z,1697901416104
0.9492044448852539,-0.04862833023071289,-0.3688530921936035,2023-10-21T15:16:56.125090Z,1697901416125
0.9734354019165039,-0.06261926889419556,-0.36627984046936035,2023-10-21T15:16:56.145255Z,1697901416145
0.9936590194702148,-0.07590603828430176,-0.3618907928466797,2023-10-21T15:16:56.168373Z,1697901416168
1.0090265274047852,-0.08816862106323242,-0.35533642768859863,2023-10-21T15:16:56.185950Z,1697901416185
1.0207147598266602,-0.09932214021682739,-0.3468208312988281,2023-10-21T15:16:56.206201Z,1697901416206
1.0312623977661133,-0.10949409008026123,-0.3368077278137207,2023-10-21T15:16:56.226397Z,1697901416226
1.0431203842163086,-0.11890757083892822,-0.325592041015625,2023-10-21T15:16:56.246656Z,1697901416246
1.0564565658569336,-0.12766408920288086,-0.31268858909606934,2023-10-21T15:16:56.268165Z,1697901416268
1.0695314407348633,-0.1356961727142334,-0.2972559928894043,2023-10-21T15:16:56.287254Z,1697901416287
1.0809640884399414,-0.14298951625823975,-0.27889275550842285,2023-10-21T15:16:56.307460Z,1697901416307
1.0898141860961914,-0.14955675601959229,-0.2575533390045166,2023-10-21T15:16:56.327700Z,1697901416327
1.0948352813720703,-0.15539336204528809,-0.23318743705749512,2023-10-21T15:16:56.351580Z,1697901416351
1.0934572219848633,-0.16026008129119873,-0.20564031600952148,2023-10-21T15:16:56.368274Z,1697901416368
1.0826940536499023,-0.16362214088439941,-0.17519700527191162,2023-10-21T15:16:56.388535Z,1697901416388
1.0599498748779297,-0.16475653648376465,-0.14290392398834229,2023-10-21T15:16:56.408742Z,1697901416408
1.0237159729003906,-0.16300642490386963,-0.11040139198303223,2023-10-21T15:16:56.429014Z,1697901416428
0.972712516784668,-0.1577814817428589,-0.07916158437728882,2023-10-21T15:16:56.451505Z,1697901416451
0.9053106307983398,-0.14858150482177734,-0.05037236213684082,2023-10-21T15:16:56.469576Z,1697901416469
0.8204402923583984,-0.135156512260437,-0.02500203251838684,2023-10-21T15:16:56.489890Z,1697901416489
0.7177648544311523,-0.11749815940856934,-0.004017163068056107,2023-10-21T15:16:56.510085Z,1697901416510
0.5987892150878906,-0.09619152545928955,0.01157902181148529,2023-10-21T15:16:56.534926Z,1697901416534
0.46643924713134766,-0.0724332332611084,0.020812690258026123,2023-10-21T15:16:56.551627Z,1697901416551
0.3248634338378906,-0.0479658842086792,0.022901713848114014,2023-10-21T15:16:56.582429Z,1697901416582
0.1795673370361328,-0.024801969528198242,0.017446577548980713,2023-10-21T15:16:56.591077Z,1697901416591
0.03529071807861328,-0.004492998123168945,0.004407405853271484,2023-10-21T15:16:56.611349Z,1697901416611
-0.106658935546875,0.012349486351013184,-0.016429901123046875,2023-10-21T15:16:56.635786Z,1697901416635
-0.24634456634521484,0.02558368444442749,-0.04547524452209473,2023-10-21T15:16:56.668200Z,1697901416668
-0.38005542755126953,0.034829020500183105,-0.08218729496002197,2023-10-21T15:16:56.672186Z,1697901416672
-0.5006551742553711,0.03974556922912598,-0.12438631057739258,2023-10-21T15:16:56.704469Z,1697901416704
-0.6023788452148438,0.04066193103790283,-0.16928672790527344,2023-10-21T15:16:56.712662Z,1697901416712
-0.6774816513061523,0.03820034861564636,-0.21259093284606934,2023-10-21T15:16:56.750870Z,1697901416750
-0.7281150817871094,0.03345492482185364,-0.25208091735839844,2023-10-21T15:16:56.753238Z,1697901416753
-0.7678442001342773,0.027186602354049683,-0.28940820693969727,2023-10-21T15:16:56.773535Z,1697901416773
-0.8090019226074219,0.01900257170200348,-0.3272075653076172,2023-10-21T15:16:56.802637Z,1697901416802
-0.8617238998413086,0.007793106138706207,-0.36893272399902344,2023-10-21T15:16:56.836653Z,1697901416836
-0.915252685546875,-0.00785374641418457,-0.4101228713989258,2023-10-21T15:16:56.838970Z,1697901416838
-0.959449291229248,-0.02833552658557892,-0.4459567070007324,2023-10-21T15:16:56.854648Z,1697901416854
-0.9933371543884277,-0.05364599823951721,-0.47561073303222656,2023-10-21T15:16:56.874866Z,1697901416874
-1.019181728363037,-0.08392447233200073,-0.49971771240234375,2023-10-21T15:16:56.895031Z,1697901416894
-1.0394482612609863,-0.1193544864654541,-0.5185766220092773,2023-10-21T15:16:56.917742Z,1697901416917
-1.058955192565918,-0.16048860549926758,-0.5339372158050537,2023-10-21T15:16:56.935664Z,1697901416935
-1.0739846229553223,-0.20634090900421143,-0.5432336330413818,2023-10-21T15:16:56.955984Z,1697901416955
-1.0716981887817383,-0.2523285150527954,-0.5402100086212158,2023-10-21T15:16:56.976153Z,1697901416976
-1.0426263809204102,-0.2920105457305908,-0.5214216709136963,2023-10-21T15:16:57.001013Z,1697901417000
-0.9811587333679199,-0.3183753490447998,-0.48533058166503906,2023-10-21T15:16:57.017704Z,1697901417017
-0.8979392051696777,-0.3305177688598633,-0.4378972053527832,2023-10-21T15:16:57.036978Z,1697901417036
-0.8007683753967285,-0.32861948013305664,-0.38326334953308105,2023-10-21T15:16:57.057221Z,1697901417057
-0.6917290687561035,-0.31179046630859375,-0.32303810119628906,2023-10-21T15:16:57.077406Z,1697901417077
-0.5733389854431152,-0.2804076671600342,-0.25984978675842285,2023-10-21T15:16:57.100952Z,1697901417100
-0.44824838638305664,-0.2356576919555664,-0.19633913040161133,2023-10-21T15:16:57.118035Z,1697901417117
-0.31684398651123047,-0.17769479751586914,-0.13367223739624023,2023-10-21T15:16:57.138310Z,1697901417138
-0.18002939224243164,-0.10693073272705078,-0.07297182083129883,2023-10-21T15:16:57.158560Z,1697901417158
-0.04037046432495117,-0.025217056274414062,-0.015701770782470703,2023-10-21T15:16:57.178745Z,1697901417178
0.09798765182495117,0.06398963928222656,0.036556243896484375,2023-10-21T15:16:57.200731Z,1697901417200
0.23224925994873047,0.15787935256958008,0.08302903175354004,2023-10-21T15:16:57.219359Z,1697901417219
0.35723400115966797,0.2522454261779785,0.12211847305297852,2023-10-21T15:16:57.239700Z,1697901417239
0.47145748138427734,0.3452906608581543,0.15371036529541016,2023-10-21T15:16:57.259831Z,1697901417259
0.5797004699707031,0.4390830993652344,0.18030023574829102,2023-10-21T15:16:57.284209Z,1697901417284
0.6859035491943359,0.534693717956543,0.20438218116760254,2023-10-21T15:16:57.300716Z,1697901417300
0.7950077056884766,0.6337037086486816,0.22855091094970703,2023-10-21T15:16:57.320690Z,1697901417320
0.8997516632080078,0.7297177314758301,0.25110793113708496,2023-10-21T15:16:57.340930Z,1697901417340
0.9942283630371094,0.8178682327270508,0.2704184055328369,2023-10-21T15:16:57.361189Z,1697901417361
1.0779838562011719,0.8968338966369629,0.2861320972442627,2023-10-21T15:16:57.384087Z,1697901417384
1.1515512466430664,0.9652986526489258,0.29839587211608887,2023-10-21T15:16:57.401741Z,1697901417401
1.2145190238952637,1.0211634635925293,0.3078000545501709,2023-10-21T15:16:57.421986Z,1697901417421
1.2687582969665527,1.0642304420471191,0.31577563285827637,2023-10-21T15:16:57.442197Z,1697901417442
1.3124809265136719,1.0929408073425293,0.3226015567779541,2023-10-21T15:16:57.462459Z,1697901417462
1.339879035949707,1.1040539741516113,0.32619643211364746,2023-10-21T15:16:57.483985Z,1697901417483
1.3475580215454102,1.0963644981384277,0.324282169342041,2023-10-21T15:16:57.503024Z,1697901417502
1.3310046195983887,1.0679798126220703,0.31487274169921875,2023-10-21T15:16:57.523249Z,1697901417523
1.2950758934020996,1.0227632522583008,0.29967403411865234,2023-10-21T15:16:57.543464Z,1697901417543
1.2442493438720703,0.9647293090820312,0.2806832790374756,2023-10-21T15:16:57.567391Z,1697901417567
1.1815710067749023,0.8976325988769531,0.25928735733032227,2023-10-21T15:16:57.584077Z,1697901417584
1.112752914428711,0.8269314765930176,0.2369905710220337,2023-10-21T15:16:57.604344Z,1697901417604
1.0437307357788086,0.7576804161071777,0.21518409252166748,2023-10-21T15:16:57.624599Z,1697901417624
0.97857666015625,0.6930561065673828,0.19486474990844727,2023-10-21T15:16:57.644792Z,1697901417644
0.9208583831787109,0.6355628967285156,0.1767585277557373,2023-10-21T15:16:57.667071Z,1697901417667
0.8719892501831055,0.5861673355102539,0.16112840175628662,2023-10-21T15:16:57.685412Z,1697901417685
0.8315162658691406,0.5444917678833008,0.14786946773529053,2023-10-21T15:16:57.705680Z,1697901417705
0.7971305847167969,0.5088367462158203,0.13648760318756104,2023-10-21T15:16:57.725907Z,1697901417725
0.7667417526245117,0.47756147384643555,0.126578688621521,2023-10-21T15:16:57.750504Z,1697901417750
0.7395105361938477,0.4496932029724121,0.11792182922363281,2023-10-21T15:16:57.767395Z,1697901417767
0.7140464782714844,0.42406749725341797,0.11015498638153076,2023-10-21T15:16:57.786796Z,1697901417786
0.6883573532104492,0.3993344306945801,0.10280013084411621,2023-10-21T15:16:57.807007Z,1697901417806
0.660003662109375,0.37404727935791016,0.0953742265701294,2023-10-21T15:16:57.827203Z,1697901417827
0.6282720565795898,0.34777069091796875,0.08774566650390625,2023-10-21T15:16:57.850434Z,1697901417850
0.5934228897094727,0.32068967819213867,0.0799722671508789,2023-10-21T15:16:57.867812Z,1697901417867
0.5561466217041016,0.2933206558227539,0.07213819026947021,2023-10-21T15:16:57.888071Z,1697901417888
0.5178871154785156,0.2666149139404297,0.06436049938201904,2023-10-21T15:16:57.908403Z,1697901417908
0.4823493957519531,0.24251174926757812,0.057056427001953125,2023-10-21T15:16:57.928476Z,1697901417928
0.45477294921875,0.2234649658203125,0.05078768730163574,2023-10-21T15:16:57.950769Z,1697901417950
0.43768787384033203,0.21045207977294922,0.04569464921951294,2023-10-21T15:16:57.969102Z,1697901417969
0.4305915832519531,0.20297718048095703,0.04151087999343872,2023-10-21T15:16:57.989340Z,1697901417989
0.4318275451660156,0.20012903213500977,0.037831902503967285,2023-10-21T15:16:58.009615Z,1697901418009
0.4415884017944336,0.201934814453125,0.03442960977554321,2023-10-21T15:16:58.033685Z,1697901418033
0.4598426818847656,0.20835113525390625,0.031084775924682617,2023-10-21T15:16:58.050365Z,1697901418050
0.4832487106323242,0.2178821563720703,0.027386724948883057,2023-10-21T15:16:58.070465Z,1697901418070
0.5058841705322266,0.22784042358398438,0.02291300892829895,2023-10-21T15:16:58.090655Z,1697901418090
0.5225725173950195,0.23581695556640625,0.017426520586013794,2023-10-21T15:16:58.110893Z,1697901418110
0.5309915542602539,0.2406773567199707,0.0108986496925354,2023-10-21T15:16:58.133523Z,1697901418133
0.5312604904174805,0.24233341217041016,0.0034201815724372864,2023-10-21T15:16:58.151502Z,1697901418151
0.5243396759033203,0.24104070663452148,-0.004824809730052948,2023-10-21T15:16:58.171760Z,1697901418171
0.512181282043457,0.2375650405883789,-0.01362261176109314,2023-10-21T15:16:58.191936Z,1697901418191
0.4969806671142578,0.23279428482055664,-0.022748976945877075,2023-10-21T15:16:58.216934Z,1697901418216
0.48006725311279297,0.227203369140625,-0.03201788663864136,2023-10-21T15:16:58.233514Z,1697901418233
0.46344757080078125,0.2216029167175293,-0.041417837142944336,2023-10-21T15:16:58.252791Z,1697901418252
0.4505777359008789,0.2175273895263672,-0.05124032497406006,2023-10-21T15:16:58.273028Z,1697901418272
0.44542884826660156,0.21683597564697266,-0.06212258338928223,2023-10-21T15:16:58.293227Z,1697901418293
0.4495658874511719,0.2202301025390625,-0.07465136051177979,2023-10-21T15:16:58.316899Z,1697901418316
0.4611358642578125,0.22667598724365234,-0.08892810344696045,2023-10-21T15:16:58.333888Z,1697901418333
0.4762611389160156,0.23411273956298828,-0.10449159145355225,2023-10-21T15:16:58.354148Z,1697901418354
0.49172306060791016,0.2408123016357422,-0.12067198753356934,2023-10-21T15:16:58.374353Z,1697901418374
0.5051727294921875,0.24545717239379883,-0.13671112060546875,2023-10-21T15:16:58.394543Z,1697901418394
0.5149431228637695,0.2470693588256836,-0.1518087387084961,2023-10-21T15:16:58.416706Z,1697901418416
0.5196371078491211,0.2449626922607422,-0.16519403457641602,2023-10-21T15:16:58.435193Z,1697901418435
0.5185070037841797,0.23893356323242188,-0.17629051208496094,2023-10-21T15:16:58.455442Z,1697901418455
0.5125770568847656,0.22969889640808105,-0.18514752388000488,2023-10-21T15:16:58.475614Z,1697901418475
0.5038089752197266,0.2184767723083496,-0.1922287940979004,2023-10-21T15:16:58.500056Z,1697901418500
0.49387550354003906,0.20627665519714355,-0.1980302333831787,2023-10-21T15:16:58.516704Z,1697901418516
0.48290157318115234,0.1933746337890625,-0.20253300666809082,2023-10-21T15:16:58.536498Z,1697901418536
0.47142982482910156,0.1801290512084961,-0.20590829849243164,2023-10-21T15:16:58.556702Z,1697901418556
0.46134090423583984,0.16729426383972168,-0.20893287658691406,2023-10-21T15:16:58.576914Z,1697901418576
0.45504093170166016,0.15569329261779785,-0.21268653869628906,2023-10-21T15:16:58.599999Z,1697901418599
0.45256996154785156,0.14520692825317383,-0.21721696853637695,2023-10-21T15:16:58.617518Z,1697901418617
0.4516744613647461,0.134962797164917,-0.2214183807373047,2023-10-21T15:16:58.637867Z,1697901418637
0.44945526123046875,0.12407946586608887,-0.22377920150756836,2023-10-21T15:16:58.658001Z,1697901418657
0.4434080123901367,0.11203336715698242,-0.22295188903808594,2023-10-21T15:16:58.683460Z,1697901418683
0.43317127227783203,0.09894096851348877,-0.2187352180480957,2023-10-21T15:16:58.700119Z,1697901418700
0.42088985443115234,0.08543097972869873,-0.2122974395751953,2023-10-21T15:16:58.718836Z,1697901418718
0.410736083984375,0.07235562801361084,-0.20585966110229492,2023-10-21T15:16:58.739079Z,1697901418739
0.4064321517944336,0.060114502906799316,-0.20132732391357422,2023-10-21T15:16:58.759373Z,1697901418759
0.4077587127685547,0.048319101333618164,-0.19858694076538086,2023-10-21T15:16:58.783397Z,1697901418783
0.41240692138671875,0.036423683166503906,-0.19652891159057617,2023-10-21T15:16:58.799880Z,1697901418799
0.41875267028808594,0.024216830730438232,-0.1944575309753418,2023-10-21T15:16:58.820203Z,1697901418820
0.4260702133178711,0.011647313833236694,-0.1921548843383789,2023-10-21T15:16:58.840421Z,1697901418840
0.43408203125,-0.00134214386343956,-0.18960833549499512,2023-10-21T15:16:58.860640Z,1697901418860
0.44358158111572266,-0.014864087104797363,-0.18735432624816895,2023-10-21T15:16:58.883151Z,1697901418883
0.4549102783203125,-0.02901458740234375,-0.1856975555419922,2023-10-21T15:16:58.901229Z,1697901418901
0.4675025939941406,-0.04375666379928589,-0.18450570106506348,2023-10-21T15:16:58.921492Z,1697901418921
0.47878456115722656,-0.058777809143066406,-0.18278837203979492,2023-10-21T15:16:58.941697Z,1697901418941
0.48456287384033203,-0.07327961921691895,-0.17902398109436035,2023-10-21T15:16:58.966507Z,1697901418966
0.4844217300415039,-0.08670759201049805,-0.1732161045074463,2023-10-21T15:16:58.983302Z,1697901418983
0.4814777374267578,-0.09919607639312744,-0.1665329933166504,2023-10-21T15:16:59.002584Z,1697901419002
0.47960472106933594,-0.11140298843383789,-0.16013884544372559,2023-10-21T15:16:59.022773Z,1697901419022
0.4825258255004883,-0.1243133544921875,-0.15491557121276855,2023-10-21T15:16:59.042968Z,1697901419042
0.49372386932373047,-0.13914012908935547,-0.15147757530212402,2023-10-21T15:16:59.066246Z,1697901419066
0.5156030654907227,-0.15694332122802734,-0.14995098114013672,2023-10-21T15:16:59.083636Z,1697901419083
0.5487298965454102,-0.17826533317565918,-0.1498396396636963,2023-10-21T15:16:59.103914Z,1697901419103
0.5921421051025391,-0.2028675079345703,-0.15026307106018066,2023-10-21T15:16:59.124107Z,1697901419124
0.6439085006713867,-0.22977662086486816,-0.15022897720336914,2023-10-21T15:16:59.144260Z,1697901419144
0.7014884948730469,-0.25739192962646484,-0.14873480796813965,2023-10-21T15:16:59.180707Z,1697901419180
0.76092529296875,-0.2834358215332031,-0.14452600479125977,2023-10-21T15:16:59.184856Z,1697901419184
0.815943717956543,-0.3049201965332031,-0.13617968559265137,2023-10-21T15:16:59.205152Z,1697901419205
0.8592414855957031,-0.3187255859375,-0.12272775173187256,2023-10-21T15:16:59.233963Z,1697901419233
0.8831720352172852,-0.32184767723083496,-0.10404253005981445,2023-10-21T15:16:59.268468Z,1697901419268
0.8801212310791016,-0.31177854537963867,-0.08098161220550537,2023-10-21T15:16:59.270478Z,1697901419270
0.8472576141357422,-0.28856611251831055,-0.05557107925415039,2023-10-21T15:16:59.299841Z,1697901419299
0.7877445220947266,-0.2550806999206543,-0.030443131923675537,2023-10-21T15:16:59.306433Z,1697901419306
0.7069416046142578,-0.2152867317199707,-0.007882632315158844,2023-10-21T15:16:59.333960Z,1697901419333
0.6091890335083008,-0.1725447177886963,0.010393276810646057,2023-10-21T15:16:59.366581Z,1697901419366
0.4974861145019531,-0.12945008277893066,0.022949516773223877,2023-10-21T15:16:59.368604Z,1697901419368
0.3770427703857422,-0.0888204574584961,0.02866750955581665,2023-10-21T15:16:59.401656Z,1697901419401
0.25635337829589844,-0.053682565689086914,0.027307748794555664,2023-10-21T15:16:59.407739Z,1697901419407
0.14681243896484375,-0.02670586109161377,0.02014899253845215,2023-10-21T15:16:59.433915Z,1697901419433
0.059368133544921875,-0.009116411209106445,0.009963154792785645,2023-10-21T15:16:59.466224Z,1697901419466
0.0016984939575195312,-2.1195411682128906E-4,3.352165222167969E-4,2023-10-21T15:16:59.468629Z,1697901419468
-0.022736549377441406,0.002176046371459961,-0.005166053771972656,2023-10-21T15:16:59.516459Z,1697901419516
-0.018732070922851562,0.0012337565422058105,-0.0048100948333740234,2023-10-21T15:16:59.518204Z,1697901419518
0.008870124816894531,-3.1253695487976074E-4,0.002549409866333008,2023-10-21T15:16:59.532872Z,1697901419532
0.06582832336425781,-2.195015549659729E-4,0.02091073989868164,2023-10-21T15:16:59.566130Z,1697901419566
0.13644027709960938,0.0040503740310668945,0.04745316505432129,2023-10-21T15:16:59.569909Z,1697901419569
0.20374584197998047,0.013021349906921387,0.07675790786743164,2023-10-21T15:16:59.600290Z,1697901419600
0.24918460845947266,0.024872660636901855,0.1012568473815918,2023-10-21T15:16:59.610333Z,1697901419610
0.26744651794433594,0.03670346736907959,0.11701464653015137,2023-10-21T15:16:59.634452Z,1697901419634
0.27536487579345703,0.04841125011444092,0.12932825088500977,2023-10-21T15:16:59.666294Z,1697901419666
0.27568626403808594,0.05937981605529785,0.13853025436401367,2023-10-21T15:16:59.671218Z,1697901419671
0.26698970794677734,0.06838130950927734,0.14306306838989258,2023-10-21T15:16:59.700653Z,1697901419700
0.2515897750854492,0.07487916946411133,0.14295244216918945,2023-10-21T15:16:59.732625Z,1697901419732
0.2321023941040039,0.07885122299194336,0.1388235092163086,2023-10-21T15:16:59.734661Z,1697901419734
0.20650672912597656,0.0788419246673584,0.12934017181396484,2023-10-21T15:16:59.752355Z,1697901419752
0.1873774528503418,0.07904434204101562,0.12209558486938477,2023-10-21T15:16:59.772574Z,1697901419772
0.18484830856323242,0.08474326133728027,0.12459564208984375,2023-10-21T15:16:59.792781Z,1697901419792
0.20319128036499023,0.09952664375305176,0.14035320281982422,2023-10-21T15:16:59.815848Z,1697901419815
0.24175310134887695,0.1248023509979248,0.16939973831176758,2023-10-21T15:16:59.833374Z,1697901419833
0.2897782325744629,0.15633773803710938,0.2042984962463379,2023-10-21T15:16:59.853660Z,1697901419853
0.34772443771362305,0.1946849822998047,0.2446608543395996,2023-10-21T15:16:59.873828Z,1697901419873
0.41562366485595703,0.23992490768432617,0.28978776931762695,2023-10-21T15:16:59.899170Z,1697901419899
0.4888920783996582,0.28943538665771484,0.3362302780151367,2023-10-21T15:16:59.915750Z,1697901419915
0.5608077049255371,0.3393411636352539,0.3798036575317383,2023-10-21T15:16:59.934714Z,1697901419934
0.6249513626098633,0.38642024993896484,0.4169168472290039,2023-10-21T15:16:59.954944Z,1697901419954
0.6766114234924316,0.4281797409057617,0.44527196884155273,2023-10-21T15:16:59.975149Z,1697901419975
0.7119441032409668,0.46188974380493164,0.46320343017578125,2023-10-21T15:16:59.999024Z,1697901419998
0.7282724380493164,0.4841117858886719,0.4686908721923828,2023-10-21T15:17:00.015937Z,1697901420015
0.7232732772827148,0.49187374114990234,0.46003055572509766,2023-10-21T15:17:00.036024Z,1697901420035
0.6880841255187988,0.47875499725341797,0.43340063095092773,2023-10-21T15:17:00.056258Z,1697901420056
0.6298413276672363,0.4477720260620117,0.39341163635253906,2023-10-21T15:17:00.076411Z,1697901420076
0.5622353553771973,0.40734434127807617,0.348935604095459,2023-10-21T15:17:00.098973Z,1697901420098
0.4997725486755371,0.3667926788330078,0.3070979118347168,2023-10-21T15:17:00.117081Z,1697901420117
0.4519195556640625,0.33383750915527344,0.2733464241027832,2023-10-21T15:17:00.137508Z,1697901420137
0.41073083877563477,0.3042259216308594,0.24360418319702148,2023-10-21T15:17:00.157527Z,1697901420157
0.3740377426147461,0.276796817779541,0.21679973602294922,2023-10-21T15:17:00.182257Z,1697901420182
0.34108972549438477,0.2510957717895508,0.19243144989013672,2023-10-21T15:17:00.198705Z,1697901420198
0.3110628128051758,0.22700738906860352,0.1703500747680664,2023-10-21T15:17:00.218457Z,1697901420218
0.2847118377685547,0.2053060531616211,0.15111804008483887,2023-10-21T15:17:00.238716Z,1697901420238
0.2682185173034668,0.19042396545410156,0.13734769821166992,2023-10-21T15:17:00.258884Z,1697901420258
0.25205135345458984,0.17606592178344727,0.12407803535461426,2023-10-21T15:17:00.282076Z,1697901420282
0.2238330841064453,0.15395116806030273,0.10536718368530273,2023-10-21T15:17:00.299441Z,1697901420299
0.17268991470336914,0.1172943115234375,0.07766032218933105,2023-10-21T15:17:00.319745Z,1697901420319
0.09466934204101562,0.06360149383544922,0.040663719177246094,2023-10-21T15:17:00.339908Z,1697901420339
0.0016903877258300781,0.0011200904846191406,6.918907165527344E-4,2023-10-21T15:17:00.360205Z,1697901420360
-0.10115861892700195,-0.06611013412475586,-0.039339542388916016,2023-10-21T15:17:00.381889Z,1697901420381
-0.20698118209838867,-0.13317346572875977,-0.0763096809387207,2023-10-21T15:17:00.400758Z,1697901420400
-0.30634117126464844,-0.19408226013183594,-0.10682177543640137,2023-10-21T15:17:00.421036Z,1697901420420
-0.3919186592102051,-0.24473094940185547,-0.1288297176361084,2023-10-21T15:17:00.441231Z,1697901420441
-0.4571986198425293,-0.28157806396484375,-0.14112472534179688,2023-10-21T15:17:00.465125Z,1697901420465
-0.4951949119567871,-0.30091285705566406,-0.14287209510803223,2023-10-21T15:17:00.481843Z,1697901420481
-0.5015325546264648,-0.30098581314086914,-0.13456964492797852,2023-10-21T15:17:00.502131Z,1697901420502
-0.4761214256286621,-0.28275394439697266,-0.11818540096282959,2023-10-21T15:17:00.522277Z,1697901420522
-0.42161083221435547,-0.2483992576599121,-0.09633588790893555,2023-10-21T15:17:00.542464Z,1697901420542
-0.33957624435424805,-0.19884634017944336,-0.07103240489959717,2023-10-21T15:17:00.565345Z,1697901420565
-0.23422813415527344,-0.13639116287231445,-0.04455673694610596,2023-10-21T15:17:00.583136Z,1697901420583
-0.11320304870605469,-0.06550312042236328,-0.019425630569458008,2023-10-21T15:17:00.603396Z,1697901420603
0.014696121215820312,0.008434772491455078,0.0022548437118530273,2023-10-21T15:17:00.623653Z,1697901420623
0.1415081024169922,0.08033990859985352,0.019247055053710938,2023-10-21T15:17:00.648718Z,1697901420648
0.2609596252441406,0.14611101150512695,0.031225919723510742,2023-10-21T15:17:00.665150Z,1697901420665
0.3681192398071289,0.20263195037841797,0.03855538368225098,2023-10-21T15:17:00.684442Z,1697901420684
0.4607362747192383,0.24860906600952148,0.042107462882995605,2023-10-21T15:17:00.704724Z,1697901420704
0.5385007858276367,0.2840876579284668,0.04289960861206055,2023-10-21T15:17:00.724908Z,1697901420724
0.6016635894775391,0.30968570709228516,0.041756629943847656,2023-10-21T15:17:00.748237Z,1697901420748
0.6502923965454102,0.3262038230895996,0.03939610719680786,2023-10-21T15:17:00.765510Z,1697901420765
0.6867990493774414,0.3357386589050293,0.03655344247817993,2023-10-21T15:17:00.785796Z,1697901420785
0.7158069610595703,0.34142255783081055,0.03380376100540161,2023-10-21T15:17:00.805990Z,1697901420805
0.7418088912963867,0.34611988067626953,0.03143179416656494,2023-10-21T15:17:00.826187Z,1697901420826
0.7666711807250977,0.35128164291381836,0.02943706512451172,2023-10-21T15:17:00.848516Z,1697901420848
0.7898502349853516,0.35692453384399414,0.02766597270965576,2023-10-21T15:17:00.866836Z,1697901420866
0.8092222213745117,0.36208486557006836,0.02575048804283142,2023-10-21T15:17:00.887090Z,1697901420887
0.8228445053100586,0.3657224178314209,0.023269832134246826,2023-10-21T15:17:00.907289Z,1697901420907
0.8307638168334961,0.3675990104675293,0.01995474100112915,2023-10-21T15:17:00.931794Z,1697901420931
0.8352575302124023,0.3683781623840332,0.015834257006645203,2023-10-21T15:17:00.948299Z,1697901420948
0.8376455307006836,0.3683335781097412,0.01095147430896759,2023-10-21T15:17:00.968139Z,1697901420968
0.8360738754272461,0.366518497467041,0.005177944898605347,2023-10-21T15:17:00.988396Z,1697901420988
0.8291664123535156,0.36226701736450195,-0.0017174836248159409,2023-10-21T15:17:01.008607Z,1697901421008
0.8182973861694336,0.35608863830566406,-0.00997171550989151,2023-10-21T15:17:01.031584Z,1697901421031
0.8080539703369141,0.3498196601867676,-0.019795969128608704,2023-10-21T15:17:01.049200Z,1697901421049
0.8014640808105469,0.34476542472839355,-0.031390756368637085,2023-10-21T15:17:01.069490Z,1697901421069
0.7985000610351562,0.3412051200866699,-0.044789254665374756,2023-10-21T15:17:01.089655Z,1697901421089
0.7956447601318359,0.33800363540649414,-0.059676289558410645,2023-10-21T15:17:01.110103Z,1697901421110
0.7885942459106445,0.333590030670166,-0.07543522119522095,2023-10-21T15:17:01.131458Z,1697901421131
0.77386474609375,0.3264594078063965,-0.09123051166534424,2023-10-21T15:17:01.150528Z,1697901421150
0.7516002655029297,0.31643247604370117,-0.1063995361328125,2023-10-21T15:17:01.170759Z,1697901421170
0.7254848480224609,0.3047342300415039,-0.12074387073516846,2023-10-21T15:17:01.190985Z,1697901421190
0.697667121887207,0.2919960021972656,-0.13395237922668457,2023-10-21T15:17:01.214575Z,1697901421214
0.6674394607543945,0.27782344818115234,-0.14528727531433105,2023-10-21T15:17:01.231635Z,1697901421231
0.6322469711303711,0.2611672878265381,-0.15366816520690918,2023-10-21T15:17:01.251843Z,1697901421251
0.5919084548950195,0.24203062057495117,-0.1585700511932373,2023-10-21T15:17:01.272042Z,1697901421272
0.5504341125488281,0.22208189964294434,-0.1608107089996338,2023-10-21T15:17:01.292277Z,1697901421292
0.5147361755371094,0.20407867431640625,-0.16253423690795898,2023-10-21T15:17:01.314696Z,1697901421314
0.4911956787109375,0.19043970108032227,-0.16629910469055176,2023-10-21T15:17:01.332956Z,1697901421332
0.4842958450317383,0.1827094554901123,-0.17453670501708984,2023-10-21T15:17:01.353189Z,1697901421353
0.49465274810791016,0.1808328628540039,-0.18849658966064453,2023-10-21T15:17:01.373393Z,1697901421373
0.520594596862793,0.18382906913757324,-0.20835232734680176,2023-10-21T15:17:01.398038Z,1697901421397
0.5588588714599609,0.19009137153625488,-0.23325800895690918,2023-10-21T15:17:01.414510Z,1697901421414
0.6053094863891602,0.19772624969482422,-0.2615811824798584,2023-10-21T15:17:01.434222Z,1697901421434
0.6554107666015625,0.20478534698486328,-0.29112744331359863,2023-10-21T15:17:01.454443Z,1697901421454
0.7059192657470703,0.20974969863891602,-0.32001757621765137,2023-10-21T15:17:01.474669Z,1697901421474
0.753911018371582,0.21121621131896973,-0.34631919860839844,2023-10-21T15:17:01.497935Z,1697901421497
0.7951021194458008,0.20760583877563477,-0.36743736267089844,2023-10-21T15:17:01.515277Z,1697901421515
0.8249797821044922,0.19781494140625,-0.3808112144470215,2023-10-21T15:17:01.535530Z,1697901421535
0.8414497375488281,0.18194913864135742,-0.3852667808532715,2023-10-21T15:17:01.555663Z,1697901421555
0.8482856750488281,0.16160619258880615,-0.382551908493042,2023-10-21T15:17:01.575919Z,1697901421575
0.8541421890258789,0.13886535167694092,-0.3768432140350342,2023-10-21T15:17:01.597843Z,1697901421597
0.8703546524047852,0.11547446250915527,-0.37342357635498047,2023-10-21T15:17:01.616572Z,1697901421616
0.9083576202392578,0.09218019247055054,-0.3771779537200928,2023-10-21T15:17:01.636822Z,1697901421636
0.9771022796630859,0.06851017475128174,-0.3912389278411865,2023-10-21T15:17:01.657012Z,1697901421656
1.0803918838500977,0.04291105270385742,-0.41585636138916016,2023-10-21T15:17:01.680967Z,1697901421680
1.2179374694824219,0.01352083683013916,-0.4492313861846924,2023-10-21T15:17:01.697656Z,1697901421697
1.3882789611816406,-0.021160632371902466,-0.4890720844268799,2023-10-21T15:17:01.717930Z,1697901421717
1.5894012451171875,-0.06206697225570679,-0.5331168174743652,2023-10-21T15:17:01.738204Z,1697901421738
1.8161096572875977,-0.10923254489898682,-0.5783443450927734,2023-10-21T15:17:01.758376Z,1697901421758
2.0599966049194336,-0.16182732582092285,-0.6213409900665283,2023-10-21T15:17:01.781100Z,1697901421781
2.308548927307129,-0.2180834412574768,-0.6579303741455078,2023-10-21T15:17:01.798984Z,1697901421798
2.5469493865966797,-0.27572548389434814,-0.6839041709899902,2023-10-21T15:17:01.819233Z,1697901421819
2.7607526779174805,-0.3324991464614868,-0.6956605911254883,2023-10-21T15:17:01.839504Z,1697901421839
2.938516616821289,-0.38671207427978516,-0.6909809112548828,2023-10-21T15:17:01.864331Z,1697901421864
3.0736207962036133,-0.43680310249328613,-0.669734001159668,2023-10-21T15:17:01.881067Z,1697901421881
3.1626243591308594,-0.4805905818939209,-0.6335020065307617,2023-10-21T15:17:01.900236Z,1697901421900
3.203433036804199,-0.5151426792144775,-0.5846433639526367,2023-10-21T15:17:01.920471Z,1697901421920
3.19326114654541,-0.5374486446380615,-0.525564432144165,2023-10-21T15:17:01.940697Z,1697901421940
3.129619598388672,-0.5455868244171143,-0.4589579105377197,2023-10-21T15:17:01.964359Z,1697901421964
3.007664680480957,-0.5379413366317749,-0.3866833448410034,2023-10-21T15:17:01.981344Z,1697901421981
2.8246822357177734,-0.5135729312896729,-0.3109244108200073,2023-10-21T15:17:02.001590Z,1697901422001
2.587047576904297,-0.47356677055358887,-0.23481285572052002,2023-10-21T15:17:02.021776Z,1697901422021
2.307497024536133,-0.4212369918823242,-0.16215366125106812,2023-10-21T15:17:02.041993Z,1697901422041
2.001542091369629,-0.3612964153289795,-0.09697127342224121,2023-10-21T15:17:02.064093Z,1697901422064
1.679417610168457,-0.2978273630142212,-0.04239580035209656,2023-10-21T15:17:02.082684Z,1697901422082
1.345703125,-0.23339426517486572,2.1251675207167864E-4,2023-10-21T15:17:02.102907Z,1697901422102
1.0109729766845703,-0.1711902618408203,0.028966039419174194,2023-10-21T15:17:02.123069Z,1697901422123
0.6833906173706055,-0.11313211917877197,0.04137367010116577,2023-10-21T15:17:02.147418Z,1697901422147
0.36449241638183594,-0.059262633323669434,0.03489041328430176,2023-10-21T15:17:02.164105Z,1697901422164
0.0548248291015625,-0.00881040096282959,0.007265329360961914,2023-10-21T15:17:02.183943Z,1697901422183
-0.24441146850585938,0.03908717632293701,-0.04163789749145508,2023-10-21T15:17:02.204192Z,1697901422204
-0.5300693511962891,0.08492910861968994,-0.11070024967193604,2023-10-21T15:17:02.224365Z,1697901422224
-0.8033962249755859,0.12967753410339355,-0.1992664337158203,2023-10-21T15:17:02.247357Z,1697901422247
-1.0715179443359375,0.1747986078262329,-0.309110164642334,2023-10-21T15:17:02.264998Z,1697901422264
-1.334296703338623,0.2198038101196289,-0.4414026737213135,2023-10-21T15:17:02.285286Z,1697901422285
-1.587371826171875,0.26314055919647217,-0.5940160751342773,2023-10-21T15:17:02.305470Z,1697901422305
-1.832655429840088,0.30398106575012207,-0.7661523818969727,2023-10-21T15:17:02.330625Z,1697901422330
-2.065582752227783,0.34038007259368896,-0.9545390605926514,2023-10-21T15:17:02.347313Z,1697901422347
-2.273982524871826,0.3684149980545044,-1.1499571800231934,2023-10-21T15:17:02.366341Z,1697901422366
-2.4403305053710938,0.3843296766281128,-1.3409380912780762,2023-10-21T15:17:02.386561Z,1697901422386
-2.5592041015625,0.3884299397468567,-1.5154058933258057,2023-10-21T15:17:02.406755Z,1697901422406
-2.635427474975586,0.3839429020881653,-1.6667156219482422,2023-10-21T15:17:02.430702Z,1697901422430
-2.675611972808838,0.37410086393356323,-1.7883415222167969,2023-10-21T15:17:02.447353Z,1697901422447
-2.6830430030822754,0.36048924922943115,-1.870922327041626,2023-10-21T15:17:02.467697Z,1697901422467
-2.662883758544922,0.34473538398742676,-1.9083728790283203,2023-10-21T15:17:02.487883Z,1697901422487
-2.620543956756592,0.3279564380645752,-1.9007840156555176,2023-10-21T15:17:02.508067Z,1697901422508
-2.5601582527160645,0.3096998333930969,-1.852980136871338,2023-10-21T15:17:02.530518Z,1697901422530
-2.48287296295166,0.2880468964576721,-1.7728228569030762,2023-10-21T15:17:02.548703Z,1697901422548
-2.3881635665893555,0.26153773069381714,-1.6701176166534424,2023-10-21T15:17:02.568972Z,1697901422568
-2.2754011154174805,0.2293667197227478,-1.5530569553375244,2023-10-21T15:17:02.589180Z,1697901422589
-2.150043487548828,0.19242018461227417,-1.4277021884918213,2023-10-21T15:17:02.613832Z,1697901422613
-2.021805763244629,0.1520683765411377,-1.3033530712127686,2023-10-21T15:17:02.630788Z,1697901422630
-1.894240379333496,0.10974079370498657,-1.1852788925170898,2023-10-21T15:17:02.650043Z,1697901422650
-1.7632980346679688,0.06699150800704956,-1.0717992782592773,2023-10-21T15:17:02.670261Z,1697901422670
-1.6187114715576172,0.02579309046268463,-0.9597702026367188,2023-10-21T15:17:02.690444Z,1697901422690
-1.4607157707214355,-0.011587176471948624,-0.8481550216674805,2023-10-21T15:17:02.713972Z,1697901422713
-1.294804573059082,-0.04333697259426117,-0.7385258674621582,2023-10-21T15:17:02.731105Z,1697901422731
-1.1250324249267578,-0.06763345003128052,-0.6309986114501953,2023-10-21T15:17:02.751380Z,1697901422751
-0.9477667808532715,-0.08220988512039185,-0.5214767456054688,2023-10-21T15:17:02.771565Z,1697901422771
-0.762913703918457,-0.0854979157447815,-0.40997838973999023,2023-10-21T15:17:02.791816Z,1697901422791
-0.5701875686645508,-0.07724440097808838,-0.29842424392700195,2023-10-21T15:17:02.813658Z,1697901422813
-0.3658313751220703,-0.05724930763244629,-0.18607330322265625,2023-10-21T15:17:02.832421Z,1697901422832
-0.1519489288330078,-0.026617050170898438,-0.07491493225097656,2023-10-21T15:17:02.852660Z,1697901422852
0.06209754943847656,0.011919975280761719,0.02959918975830078,2023-10-21T15:17:02.872849Z,1697901422872
0.26376819610595703,0.05469870567321777,0.12094402313232422,2023-10-21T15:17:02.897125Z,1697901422897
0.4490547180175781,0.09953665733337402,0.1971290111541748,2023-10-21T15:17:02.913639Z,1697901422913
0.6197624206542969,0.14534425735473633,0.25923728942871094,2023-10-21T15:17:02.933788Z,1697901422933
0.7761478424072266,0.19076919555664062,0.30796313285827637,2023-10-21T15:17:02.953978Z,1697901422953
0.9128322601318359,0.2335810661315918,0.3422544002532959,2023-10-21T15:17:02.974148Z,1697901422974
1.030538558959961,0.2733268737792969,0.363675594329834,2023-10-21T15:17:02.997002Z,1697901422996
1.1352405548095703,0.31096720695495605,0.3753490447998047,2023-10-21T15:17:03.014786Z,1697901423014
1.231123924255371,0.3468778133392334,0.37958455085754395,2023-10-21T15:17:03.035057Z,1697901423035
1.3182096481323242,0.38024353981018066,0.3771169185638428,2023-10-21T15:17:03.055193Z,1697901423055
1.393305778503418,0.4096815586090088,0.3676927089691162,2023-10-21T15:17:03.080175Z,1697901423080
1.4528799057006836,0.43408942222595215,0.3510746955871582,2023-10-21T15:17:03.096845Z,1697901423096
1.4961776733398438,0.45334815979003906,0.32819199562072754,2023-10-21T15:17:03.116107Z,1697901423116
1.5266485214233398,0.46847057342529297,0.30114293098449707,2023-10-21T15:17:03.136332Z,1697901423136
1.5487260818481445,0.4806056022644043,0.27193140983581543,2023-10-21T15:17:03.156513Z,1697901423156
1.5634269714355469,0.4899265766143799,0.241796612739563,2023-10-21T15:17:03.180046Z,1697901423180
1.5681591033935547,0.4956777095794678,0.21134567260742188,2023-10-21T15:17:03.197133Z,1697901423197
1.5594663619995117,0.49686145782470703,0.18102681636810303,2023-10-21T15:17:03.217439Z,1697901423217
1.5368719100952148,0.4934964179992676,0.1515887975692749,2023-10-21T15:17:03.237598Z,1697901423237
1.5027790069580078,0.48655223846435547,0.12388116121292114,2023-10-21T15:17:03.257848Z,1697901423257
1.4594097137451172,0.4768092632293701,0.09855467081069946,2023-10-21T15:17:03.280138Z,1697901423280
1.409083366394043,0.4648935794830322,0.0761573314666748,2023-10-21T15:17:03.298466Z,1697901423298
1.3538427352905273,0.4512295722961426,0.056783050298690796,2023-10-21T15:17:03.318734Z,1697901423318
1.2960014343261719,0.43637752532958984,0.04030773043632507,2023-10-21T15:17:03.338914Z,1697901423338
1.2365312576293945,0.4207303524017334,0.026339471340179443,2023-10-21T15:17:03.363356Z,1697901423363
1.1753120422363281,0.4043388366699219,0.01426011323928833,2023-10-21T15:17:03.379899Z,1697901423379
1.1126060485839844,0.38733482360839844,0.0033671893179416656,2023-10-21T15:17:03.399793Z,1697901423399
1.0507116317749023,0.370516300201416,-0.006967216730117798,2023-10-21T15:17:03.420046Z,1697901423420
0.9946537017822266,0.35564398765563965,-0.01722721755504608,2023-10-21T15:17:03.440320Z,1697901423440
0.9496355056762695,0.34458374977111816,-0.027773886919021606,2023-10-21T15:17:03.463520Z,1697901423463
0.9181041717529297,0.33832240104675293,-0.038911253213882446,2023-10-21T15:17:03.480858Z,1697901423480
0.8974761962890625,0.33608531951904297,-0.05083727836608887,2023-10-21T15:17:03.501126Z,1697901423501
0.8814373016357422,0.33577942848205566,-0.06346184015274048,2023-10-21T15:17:03.521295Z,1697901423521
0.8640584945678711,0.33535289764404297,-0.0765572190284729,2023-10-21T15:17:03.546542Z,1697901423546
0.8427753448486328,0.333728551864624,-0.08975374698638916,2023-10-21T15:17:03.563164Z,1697901423563
0.819148063659668,0.3311161994934082,-0.1027991771697998,2023-10-21T15:17:03.582190Z,1697901423582
0.7953624725341797,0.32796144485473633,-0.11541593074798584,2023-10-21T15:17:03.602429Z,1697901423602
0.7710237503051758,0.32378625869750977,-0.12706232070922852,2023-10-21T15:17:03.622642Z,1697901423622
0.74273681640625,0.3170013427734375,-0.13683760166168213,2023-10-21T15:17:03.646419Z,1697901423646
0.7063684463500977,0.3056755065917969,-0.1435765027999878,2023-10-21T15:17:03.663204Z,1697901423663
0.6612215042114258,0.28928422927856445,-0.14673709869384766,2023-10-21T15:17:03.683483Z,1697901423683
0.6109714508056641,0.269223690032959,-0.14678144454956055,2023-10-21T15:17:03.703783Z,1697901423703
0.5615863800048828,0.24804425239562988,-0.14499950408935547,2023-10-21T15:17:03.723903Z,1697901423723
0.5170402526855469,0.22765684127807617,-0.14254403114318848,2023-10-21T15:17:03.746218Z,1697901423746
0.47881317138671875,0.20905375480651855,-0.14014148712158203,2023-10-21T15:17:03.764540Z,1697901423764
0.44641685485839844,0.19241976737976074,-0.1380157470703125,2023-10-21T15:17:03.784822Z,1697901423784
0.41983699798583984,0.17805886268615723,-0.13652420043945312,2023-10-21T15:17:03.805070Z,1697901423805
0.4000673294067383,0.16652488708496094,-0.13630247116088867,2023-10-21T15:17:03.829591Z,1697901423829
0.38844966888427734,0.15832042694091797,-0.13809752464294434,2023-10-21T15:17:03.846338Z,1697901423846
0.3860149383544922,0.15369105339050293,-0.14258742332458496,2023-10-21T15:17:03.865917Z,1697901423865
0.39226722717285156,0.15220236778259277,-0.14980173110961914,2023-10-21T15:17:03.886108Z,1697901423886
0.4040689468383789,0.152451753616333,-0.15863704681396484,2023-10-21T15:17:03.906291Z,1697901423906
0.416259765625,0.1523733139038086,-0.16697311401367188,2023-10-21T15:17:03.929629Z,1697901423929
0.42307281494140625,0.14984536170959473,-0.17230439186096191,2023-10-21T15:17:03.946913Z,1697901423946
0.4202146530151367,0.14344120025634766,-0.17270326614379883,2023-10-21T15:17:03.967170Z,1697901423967
0.4065694808959961,0.13303208351135254,-0.16766810417175293,2023-10-21T15:17:03.987376Z,1697901423987
0.3842506408691406,0.11970400810241699,-0.15819478034973145,2023-10-21T15:17:04.007570Z,1697901424007
0.3587226867675781,0.10556602478027344,-0.14677810668945312,2023-10-21T15:17:04.029579Z,1697901424029
0.3362760543823242,0.09274458885192871,-0.13626408576965332,2023-10-21T15:17:04.048226Z,1697901424048
0.3218708038330078,0.0826270580291748,-0.12882041931152344,2023-10-21T15:17:04.068422Z,1697901424068
0.3166236877441406,0.07531285285949707,-0.12490725517272949,2023-10-21T15:17:04.088686Z,1697901424088
0.31905651092529297,0.07018494606018066,-0.12386345863342285,2023-10-21T15:17:04.112716Z,1697901424112
0.3286857604980469,0.06690466403961182,-0.12540602684020996,2023-10-21T15:17:04.129368Z,1697901424129
0.3478984832763672,0.0657355785369873,-0.13031435012817383,2023-10-21T15:17:04.149508Z,1697901424149
0.38089466094970703,0.06728816032409668,-0.1400003433227539,2023-10-21T15:17:04.169798Z,1697901424169
0.4292917251586914,0.07175588607788086,-0.15476512908935547,2023-10-21T15:17:04.190005Z,1697901424189
0.49010276794433594,0.07879531383514404,-0.17317843437194824,2023-10-21T15:17:04.212583Z,1697901424212
0.5556583404541016,0.08757483959197998,-0.19218683242797852,2023-10-21T15:17:04.230637Z,1697901424230
0.6167402267456055,0.09707629680633545,-0.2083289623260498,2023-10-21T15:17:04.250871Z,1697901424250
0.6667413711547852,0.10637032985687256,-0.21926069259643555,2023-10-21T15:17:04.271043Z,1697901424271
0.7044382095336914,0.11493730545043945,-0.22469282150268555,2023-10-21T15:17:04.296123Z,1697901424296
0.7321281433105469,0.12256252765655518,-0.22562766075134277,2023-10-21T15:17:04.312637Z,1697901424312
0.75140380859375,0.12900161743164062,-0.22287797927856445,2023-10-21T15:17:04.331919Z,1697901424331
0.7607126235961914,0.13364386558532715,-0.21629858016967773,2023-10-21T15:17:04.352183Z,1697901424352
0.7569618225097656,0.13558244705200195,-0.205244779586792,2023-10-21T15:17:04.372346Z,1697901424372
0.7385892868041992,0.13420343399047852,-0.18977856636047363,2023-10-21T15:17:04.395912Z,1697901424395
0.7071027755737305,0.1295105218887329,-0.17097139358520508,2023-10-21T15:17:04.412899Z,1697901424412
0.6654090881347656,0.12203013896942139,-0.15030527114868164,2023-10-21T15:17:04.433195Z,1697901424433
0.6163625717163086,0.11252057552337646,-0.1290757656097412,2023-10-21T15:17:04.453426Z,1697901424453
0.5615558624267578,0.10169672966003418,-0.10812211036682129,2023-10-21T15:17:04.473624Z,1697901424473
0.5022382736206055,0.0901644229888916,-0.08801078796386719,2023-10-21T15:17:04.495847Z,1697901424495
0.4393129348754883,0.07832932472229004,-0.06912553310394287,2023-10-21T15:17:04.514248Z,1697901424514
0.3725624084472656,0.06616699695587158,-0.05164051055908203,2023-10-21T15:17:04.534512Z,1697901424534
0.30033302307128906,0.053270697593688965,-0.03565037250518799,2023-10-21T15:17:04.554724Z,1697901424554
0.22086429595947266,0.0392000675201416,-0.02153170108795166,2023-10-21T15:17:04.579086Z,1697901424579
0.13500118255615234,0.02400791645050049,-0.010130226612091064,2023-10-21T15:17:04.595600Z,1697901424595
0.04550647735595703,0.008119940757751465,-0.0023487210273742676,2023-10-21T15:17:04.615640Z,1697901424615
-0.045493125915527344,-0.008165121078491211,0.0012532174587249756,2023-10-21T15:17:04.635871Z,1697901424635
-0.13843631744384766,-0.02509009838104248,4.252716898918152E-4,2023-10-21T15:17:04.656038Z,1697901424655
-0.23502254486083984,-0.04323172569274902,-0.005113527178764343,2023-10-21T15:17:04.679351Z,1697901424679
-0.3365793228149414,-0.06321954727172852,-0.015799790620803833,2023-10-21T15:17:04.696769Z,1697901424696
-0.4423971176147461,-0.08538269996643066,-0.032018184661865234,2023-10-21T15:17:04.716939Z,1697901424716
-0.5489273071289062,-0.10964405536651611,-0.05365324020385742,2023-10-21T15:17:04.737103Z,1697901424737
-0.6496171951293945,-0.13532507419586182,-0.07968664169311523,2023-10-21T15:17:04.762268Z,1697901424762
-0.7374944686889648,-0.16155540943145752,-0.10836184024810791,2023-10-21T15:17:04.778940Z,1697901424778
-0.809565544128418,-0.18809592723846436,-0.1381669044494629,2023-10-21T15:17:04.797993Z,1697901424797
-0.8644609451293945,-0.21455836296081543,-0.16784214973449707,2023-10-21T15:17:04.818253Z,1697901424818
-0.9001445770263672,-0.23960208892822266,-0.1957848072052002,2023-10-21T15:17:04.838433Z,1697901424838
-0.9150905609130859,-0.2615950107574463,-0.22010791301727295,2023-10-21T15:17:04.862136Z,1697901424862
-0.9084405899047852,-0.279249906539917,-0.23883581161499023,2023-10-21T15:17:04.879006Z,1697901424878
-0.8813762664794922,-0.2920951843261719,-0.25089335441589355,2023-10-21T15:17:04.899313Z,1697901424899
-0.8348398208618164,-0.2994654178619385,-0.2557239532470703,2023-10-21T15:17:04.919484Z,1697901424919
-0.7671098709106445,-0.29808688163757324,-0.25167179107666016,2023-10-21T15:17:04.939688Z,1697901424939
-0.6798925399780273,-0.2863132953643799,-0.2383713722229004,2023-10-21T15:17:04.962186Z,1697901424962
-0.5880031585693359,-0.2686631679534912,-0.22049617767333984,2023-10-21T15:17:04.980369Z,1697901424980
-0.49690914154052734,-0.24683594703674316,-0.19927477836608887,2023-10-21T15:17:05.000614Z,1697901425000
-0.4074578285217285,-0.2208414077758789,-0.1749587059020996,2023-10-21T15:17:05.020792Z,1697901425020
-0.31560325622558594,-0.1872105598449707,-0.14505624771118164,2023-10-21T15:17:05.045352Z,1697901425045
-0.21663522720336914,-0.14086055755615234,-0.10654759407043457,2023-10-21T15:17:05.062017Z,1697901425061
-0.11814403533935547,-0.08423805236816406,-0.06224346160888672,2023-10-21T15:17:05.081682Z,1697901425081
-0.01978015899658203,-0.015423774719238281,-0.011149168014526367,2023-10-21T15:17:05.101943Z,1697901425101
0.07811880111694336,0.06624269485473633,0.046894073486328125,2023-10-21T15:17:05.122127Z,1697901425122
0.17143011093139648,0.15728998184204102,0.10913753509521484,2023-10-21T15:17:05.145537Z,1697901425145
0.25563478469848633,0.25252676010131836,0.17185354232788086,2023-10-21T15:17:05.162719Z,1697901425162
0.33437204360961914,0.3530421257019043,0.23586034774780273,2023-10-21T15:17:05.182987Z,1697901425182
0.4078841209411621,0.4559612274169922,0.2999258041381836,2023-10-21T15:17:05.203187Z,1697901425203
0.47339534759521484,0.5542640686035156,0.3602466583251953,2023-10-21T15:17:05.223407Z,1697901425223
0.5263829231262207,0.6397833824157715,0.41298675537109375,2023-10-21T15:17:05.245384Z,1697901425245
0.5628023147583008,0.705359935760498,0.45448827743530273,2023-10-21T15:17:05.264041Z,1697901425264
0.5864644050598145,0.7527275085449219,0.4860959053039551,2023-10-21T15:17:05.284275Z,1697901425284
0.5961709022521973,0.7793159484863281,0.5061502456665039,2023-10-21T15:17:05.304529Z,1697901425304
0.5900301933288574,0.7834644317626953,0.5130729675292969,2023-10-21T15:17:05.328551Z,1697901425328
0.5688538551330566,0.7670631408691406,0.5072522163391113,2023-10-21T15:17:05.345172Z,1697901425345
0.5353741645812988,0.7335691452026367,0.4901547431945801,2023-10-21T15:17:05.365376Z,1697901425365
0.4917163848876953,0.6850061416625977,0.4624180793762207,2023-10-21T15:17:05.385570Z,1697901425385
0.4382004737854004,0.6208124160766602,0.4231696128845215,2023-10-21T15:17:05.405831Z,1697901425405
0.3749370574951172,0.5398621559143066,0.3711733818054199,2023-10-21T15:17:05.428616Z,1697901425428
0.30391359329223633,0.44496965408325195,0.3078298568725586,2023-10-21T15:17:05.446455Z,1697901425446
0.22674798965454102,0.3375248908996582,0.23421382904052734,2023-10-21T15:17:05.466708Z,1697901425466
0.1498394012451172,0.22593927383422852,0.1567525863647461,2023-10-21T15:17:05.486938Z,1697901425486
0.07503223419189453,0.11398839950561523,0.07898616790771484,2023-10-21T15:17:05.511810Z,1697901425511
0.0010170936584472656,0.001544952392578125,0.0010685920715332031,2023-10-21T15:17:05.528625Z,1697901425528
-0.07352352142333984,-0.11076879501342773,-0.07664680480957031,2023-10-21T15:17:05.547746Z,1697901425547
-0.15033483505249023,-0.22314834594726562,-0.15441370010375977,2023-10-21T15:17:05.567977Z,1697901425567
-0.2248826026916504,-0.32663488388061523,-0.22571516036987305,2023-10-21T15:17:05.588166Z,1697901425588
-0.29485416412353516,-0.4178743362426758,-0.28778076171875,2023-10-21T15:17:05.611640Z,1697901425611
-0.35765933990478516,-0.49555349349975586,-0.3392629623413086,2023-10-21T15:17:05.628770Z,1697901425628
-0.41169023513793945,-0.5584712028503418,-0.3790931701660156,2023-10-21T15:17:05.649065Z,1697901425649
-0.4535083770751953,-0.6031465530395508,-0.4047427177429199,2023-10-21T15:17:05.669235Z,1697901425669
-0.48463010787963867,-0.6345887184143066,-0.4196019172668457,2023-10-21T15:17:05.689445Z,1697901425689
-0.5061297416687012,-0.6566314697265625,-0.4255657196044922,2023-10-21T15:17:05.711595Z,1697901425711
-0.5178365707397461,-0.6706137657165527,-0.42366504669189453,2023-10-21T15:17:05.730127Z,1697901425730
-0.5207686424255371,-0.6763806343078613,-0.4138040542602539,2023-10-21T15:17:05.750347Z,1697901425750
-0.5147075653076172,-0.6716547012329102,-0.3955552577972412,2023-10-21T15:17:05.770572Z,1697901425770
-0.503758430480957,-0.6614842414855957,-0.37317585945129395,2023-10-21T15:17:05.794871Z,1697901425794
-0.4877505302429199,-0.6441307067871094,-0.3463118076324463,2023-10-21T15:17:05.811523Z,1697901425811
-0.46527576446533203,-0.616023063659668,-0.31396985054016113,2023-10-21T15:17:05.831417Z,1697901425831
-0.43622541427612305,-0.5766992568969727,-0.27715086936950684,2023-10-21T15:17:05.851654Z,1697901425851
-0.40148496627807617,-0.5278997421264648,-0.23794937133789062,2023-10-21T15:17:05.871879Z,1697901425871
-0.3614816665649414,-0.47084712982177734,-0.1981182098388672,2023-10-21T15:17:05.895050Z,1697901425895
-0.3146018981933594,-0.40397167205810547,-0.15804839134216309,2023-10-21T15:17:05.912486Z,1697901425912
-0.2586655616760254,-0.32572507858276367,-0.11817288398742676,2023-10-21T15:17:05.932773Z,1697901425932
-0.19210004806518555,-0.23602724075317383,-0.07933616638183594,2023-10-21T15:17:05.952960Z,1697901425952
-0.11399650573730469,-0.13600492477416992,-0.0423736572265625,2023-10-21T15:17:05.978198Z,1697901425978
-0.025163650512695312,-0.029036998748779297,-0.008389711380004883,2023-10-21T15:17:05.994771Z,1697901425994
0.07256317138671875,0.08073282241821289,0.021639108657836914,2023-10-21T15:17:06.013846Z,1697901426013
0.1747121810913086,0.18699073791503906,0.04650437831878662,2023-10-21T15:17:06.034084Z,1697901426034
0.27519845962524414,0.28287220001220703,0.06532788276672363,2023-10-21T15:17:06.054293Z,1697901426054
0.3681678771972656,0.3629288673400879,0.07791352272033691,2023-10-21T15:17:06.078025Z,1697901426077
0.44889020919799805,0.42378902435302734,0.08449459075927734,2023-10-21T15:17:06.094826Z,1697901426094
0.5141892433166504,0.46434497833251953,0.08554065227508545,2023-10-21T15:17:06.115151Z,1697901426115
0.5631923675537109,0.4859752655029297,0.08181452751159668,2023-10-21T15:17:06.135320Z,1697901426135
0.5952291488647461,0.4904484748840332,0.0740576982498169,2023-10-21T15:17:06.155534Z,1697901426155
0.6088924407958984,0.4789586067199707,0.06308495998382568,2023-10-21T15:17:06.177955Z,1697901426177
0.6047258377075195,0.4540576934814453,0.050066351890563965,2023-10-21T15:17:06.196191Z,1697901426196
0.5862717628479004,0.42011213302612305,0.03636687994003296,2023-10-21T15:17:06.216447Z,1697901426216
0.5611019134521484,0.3836483955383301,0.023295819759368896,2023-10-21T15:17:06.236598Z,1697901426236
0.5372810363769531,0.3505864143371582,0.011576265096664429,2023-10-21T15:17:06.261222Z,1697901426261
0.5201301574707031,0.32426977157592773,0.0013089943677186966,2023-10-21T15:17:06.277856Z,1697901426277
0.5105514526367188,0.30484437942504883,-0.007715702056884766,2023-10-21T15:17:06.297507Z,1697901426297
0.5081110000610352,0.2915630340576172,-0.015713930130004883,2023-10-21T15:17:06.317743Z,1697901426317
0.5119028091430664,0.28345155715942383,-0.022944122552871704,2023-10-21T15:17:06.337888Z,1697901426337
0.521183967590332,0.27976083755493164,-0.029642045497894287,2023-10-21T15:17:06.361074Z,1697901426361
0.5337533950805664,0.27918148040771484,-0.03589606285095215,2023-10-21T15:17:06.378556Z,1697901426378
0.5455636978149414,0.2796201705932617,-0.041595280170440674,2023-10-21T15:17:06.398807Z,1697901426398
0.5518951416015625,0.27881622314453125,-0.0465390682220459,2023-10-21T15:17:06.419017Z,1697901426418
0.549555778503418,0.2753586769104004,-0.05066555738449097,2023-10-21T15:17:06.439247Z,1697901426439
0.5370121002197266,0.2685966491699219,-0.054095327854156494,2023-10-21T15:17:06.461049Z,1697901426461
0.5135936737060547,0.2581191062927246,-0.056862592697143555,2023-10-21T15:17:06.479861Z,1697901426479
0.4813995361328125,0.24460697174072266,-0.059088826179504395,2023-10-21T15:17:06.500124Z,1697901426500
0.442779541015625,0.22875022888183594,-0.06074655055999756,2023-10-21T15:17:06.520289Z,1697901426520
0.4009580612182617,0.21172428131103516,-0.061788320541381836,2023-10-21T15:17:06.543284Z,1697901426543
0.35923099517822266,0.19480323791503906,-0.062253475189208984,2023-10-21T15:17:06.561110Z,1697901426561
0.3224821090698242,0.18030118942260742,-0.06272470951080322,2023-10-21T15:17:06.581192Z,1697901426581
0.2956819534301758,0.1709427833557129,-0.06425690650939941,2023-10-21T15:17:06.601434Z,1697901426601
0.28214359283447266,0.16893815994262695,-0.06802701950073242,2023-10-21T15:17:06.621601Z,1697901426621
0.28145790100097656,0.1745924949645996,-0.0746309757232666,2023-10-21T15:17:06.644052Z,1697901426644
0.29122447967529297,0.18694782257080078,-0.08405756950378418,2023-10-21T15:17:06.662251Z,1697901426662
0.30980491638183594,0.20532846450805664,-0.0963132381439209,2023-10-21T15:17:06.682551Z,1697901426682
0.33560991287231445,0.22894954681396484,-0.11124467849731445,2023-10-21T15:17:06.702725Z,1697901426702
0.3667440414428711,0.25666189193725586,-0.12842893600463867,2023-10-21T15:17:06.727529Z,1697901426727
0.40012550354003906,0.28631162643432617,-0.14687371253967285,2023-10-21T15:17:06.744171Z,1697901426744
0.43244266510009766,0.3153376579284668,-0.16533398628234863,2023-10-21T15:17:06.763555Z,1697901426763
0.4609560966491699,0.3413844108581543,-0.18268728256225586,2023-10-21T15:17:06.783832Z,1697901426783
0.48465824127197266,0.36332130432128906,-0.19847679138183594,2023-10-21T15:17:06.803975Z,1697901426803
0.5032844543457031,0.3806881904602051,-0.21253442764282227,2023-10-21T15:17:06.827551Z,1697901426827
0.5164456367492676,0.3930535316467285,-0.2245042324066162,2023-10-21T15:17:06.844580Z,1697901426844
0.5226492881774902,0.3992481231689453,-0.23341727256774902,2023-10-21T15:17:06.864862Z,1697901426864
0.5210118293762207,0.39855384826660156,-0.23848199844360352,2023-10-21T15:17:06.885096Z,1697901426885
0.5120253562927246,0.3913559913635254,-0.23958516120910645,2023-10-21T15:17:06.905293Z,1697901426905
0.49741172790527344,0.37903690338134766,-0.23732256889343262,2023-10-21T15:17:06.927347Z,1697901426927
0.47809934616088867,0.362457275390625,-0.23198914527893066,2023-10-21T15:17:06.945975Z,1697901426945
0.45341968536376953,0.34136247634887695,-0.223114013671875,2023-10-21T15:17:06.966259Z,1697901426966
0.42255210876464844,0.31541919708251953,-0.21013951301574707,2023-10-21T15:17:06.986423Z,1697901426986
0.3856525421142578,0.28502559661865234,-0.1930696964263916,2023-10-21T15:17:07.010703Z,1697901427010
0.34572744369506836,0.25258588790893555,-0.17351293563842773,2023-10-21T15:17:07.027442Z,1697901427027
0.3074641227722168,0.2216205596923828,-0.15411138534545898,2023-10-21T15:17:07.047247Z,1697901427047
0.27532434463500977,0.19540643692016602,-0.13741374015808105,2023-10-21T15:17:07.067508Z,1697901427067
0.25014495849609375,0.1745586395263672,-0.1240544319152832,2023-10-21T15:17:07.087678Z,1697901427087
0.2305736541748047,0.15806150436401367,-0.11344146728515625,2023-10-21T15:17:07.110637Z,1697901427110
0.21492433547973633,0.14462804794311523,-0.10475015640258789,2023-10-21T15:17:07.128301Z,1697901427128
0.20274734497070312,0.13379526138305664,-0.0977632999420166,2023-10-21T15:17:07.148567Z,1697901427148
0.19519567489624023,0.12618160247802734,-0.0930631160736084,2023-10-21T15:17:07.168747Z,1697901427168
0.1929306983947754,0.12205648422241211,-0.09095430374145508,2023-10-21T15:17:07.193943Z,1697901427193
0.19542503356933594,0.12093114852905273,-0.09116649627685547,2023-10-21T15:17:07.210594Z,1697901427210
0.20071077346801758,0.12147331237792969,-0.09275960922241211,2023-10-21T15:17:07.229614Z,1697901427229
0.20633888244628906,0.12218427658081055,-0.09459686279296875,2023-10-21T15:17:07.249831Z,1697901427249
0.21066617965698242,0.12216615676879883,-0.09592318534851074,2023-10-21T15:17:07.270101Z,1697901427270
0.21432876586914062,0.12184476852416992,-0.09701085090637207,2023-10-21T15:17:07.293875Z,1697901427293
0.21819210052490234,0.12171220779418945,-0.09822487831115723,2023-10-21T15:17:07.310664Z,1697901427310
0.2226696014404297,0.12197256088256836,-0.09973788261413574,2023-10-21T15:17:07.330971Z,1697901427330
0.22832107543945312,0.12289571762084961,-0.10178613662719727,2023-10-21T15:17:07.351176Z,1697901427351
0.23522567749023438,0.12446212768554688,-0.10436439514160156,2023-10-21T15:17:07.371399Z,1697901427371
0.2431182861328125,0.12645864486694336,-0.10729646682739258,2023-10-21T15:17:07.393672Z,1697901427393
0.25040721893310547,0.1280221939086914,-0.10979342460632324,2023-10-21T15:17:07.412006Z,1697901427411
0.25397682189941406,0.12761926651000977,-0.110443115234375,2023-10-21T15:17:07.432261Z,1697901427432
0.2511920928955078,0.12404775619506836,-0.10811924934387207,2023-10-21T15:17:07.452448Z,1697901427452
0.24136734008789062,0.11707639694213867,-0.10263943672180176,2023-10-21T15:17:07.476995Z,1697901427476
0.2252483367919922,0.10718989372253418,-0.09449601173400879,2023-10-21T15:17:07.493698Z,1697901427493
0.20470905303955078,0.09544539451599121,-0.08461332321166992,2023-10-21T15:17:07.513328Z,1697901427513
0.18025875091552734,0.08227729797363281,-0.0733041763305664,2023-10-21T15:17:07.533565Z,1697901427533
0.1507740020751953,0.0673985481262207,-0.06021475791931152,2023-10-21T15:17:07.553815Z,1697901427553
0.1158456802368164,0.050794363021850586,-0.04532766342163086,2023-10-21T15:17:07.576890Z,1697901427576
0.0786590576171875,0.03390860557556152,-0.030085325241088867,2023-10-21T15:17:07.594374Z,1697901427594
0.045215606689453125,0.019222736358642578,-0.0168764591217041,2023-10-21T15:17:07.614625Z,1697901427614
0.02116107940673828,0.008904457092285156,-0.007699251174926758,2023-10-21T15:17:07.634837Z,1697901427634
0.009000778198242188,0.0037641525268554688,-0.0031898021697998047,2023-10-21T15:17:07.655079Z,1697901427655
0.008021354675292969,0.0033469200134277344,-0.0027616024017333984,2023-10-21T15:17:07.677031Z,1697901427676
0.01654529571533203,0.006907939910888672,-0.0055196285247802734,2023-10-21T15:17:07.695689Z,1697901427695
0.03093719482421875,0.012951374053955078,-0.009958505630493164,2023-10-21T15:17:07.715979Z,1697901427715
0.04817390441894531,0.020251989364624023,-0.014901876449584961,2023-10-21T15:17:07.736103Z,1697901427736
0.06645774841308594,0.028059720993041992,-0.019682645797729492,2023-10-21T15:17:07.760227Z,1697901427760
0.08583450317382812,0.03635883331298828,-0.0242617130279541,2023-10-21T15:17:07.776846Z,1697901427776
0.10533809661865234,0.0446925163269043,-0.028348922729492188,2023-10-21T15:17:07.797011Z,1697901427796
0.12222957611083984,0.051854848861694336,-0.031260013580322266,2023-10-21T15:17:07.817192Z,1697901427817
0.1336345672607422,0.05661964416503906,-0.03241086006164551,2023-10-21T15:17:07.837445Z,1697901427837
0.13817596435546875,0.05841374397277832,-0.03172731399536133,2023-10-21T15:17:07.860032Z,1697901427859
0.1370525360107422,0.0577852725982666,-0.029779434204101562,2023-10-21T15:17:07.878155Z,1697901427878
0.13143539428710938,0.05531907081604004,-0.027070045471191406,2023-10-21T15:17:07.898339Z,1697901427898
0.12449836730957031,0.052385568618774414,-0.0244065523147583,2023-10-21T15:17:07.918515Z,1697901427918
0.11931228637695312,0.05027627944946289,-0.022403955459594727,2023-10-21T15:17:07.943298Z,1697901427943
0.11818218231201172,0.04996967315673828,-0.021418333053588867,2023-10-21T15:17:07.960073Z,1697901427960
0.12149429321289062,0.05164670944213867,-0.021407485008239746,2023-10-21T15:17:07.979385Z,1697901427979
0.1286020278930664,0.05504870414733887,-0.022151708602905273,2023-10-21T15:17:07.999573Z,1697901427999
0.1390705108642578,0.05994701385498047,-0.02350616455078125,2023-10-21T15:17:08.019793Z,1697901428019
0.15347671508789062,0.06649184226989746,-0.0254976749420166,2023-10-21T15:17:08.043397Z,1697901428043
0.1724405288696289,0.0747983455657959,-0.02820301055908203,2023-10-21T15:17:08.060408Z,1697901428060
0.1955728530883789,0.08450770378112793,-0.03152799606323242,2023-10-21T15:17:08.080692Z,1697901428080
0.22103500366210938,0.09458446502685547,-0.03512680530548096,2023-10-21T15:17:08.100882Z,1697901428100
0.2452707290649414,0.10323905944824219,-0.03834831714630127,2023-10-21T15:17:08.121095Z,1697901428121
0.26566123962402344,0.10916423797607422,-0.04069256782531738,2023-10-21T15:17:08.143190Z,1697901428143
0.2812976837158203,0.11194705963134766,-0.042037367820739746,2023-10-21T15:17:08.161772Z,1697901428161
0.29340553283691406,0.1122293472290039,-0.04264354705810547,2023-10-21T15:17:08.181987Z,1697901428181
0.3038320541381836,0.11095595359802246,-0.042917728424072266,2023-10-21T15:17:08.202231Z,1697901428202
0.31615638732910156,0.10957765579223633,-0.04346895217895508,2023-10-21T15:17:08.227153Z,1697901428227
0.33412933349609375,0.10931110382080078,-0.044867515563964844,2023-10-21T15:17:08.243204Z,1697901428243
0.36025524139404297,0.11074280738830566,-0.04743516445159912,2023-10-21T15:17:08.263091Z,1697901428263
0.3940000534057617,0.11338686943054199,-0.05101633071899414,2023-10-21T15:17:08.283340Z,1697901428283
0.4328632354736328,0.11622476577758789,-0.05515766143798828,2023-10-21T15:17:08.303585Z,1697901428303
0.47470569610595703,0.11847305297851562,-0.059475064277648926,2023-10-21T15:17:08.326690Z,1697901428326
0.5184087753295898,0.11966323852539062,-0.06379401683807373,2023-10-21T15:17:08.344096Z,1697901428344
0.563262939453125,0.11951184272766113,-0.06798803806304932,2023-10-21T15:17:08.364436Z,1697901428364
0.6099128723144531,0.1180572509765625,-0.07215237617492676,2023-10-21T15:17:08.384651Z,1697901428384
0.6593189239501953,0.11524569988250732,-0.07629096508026123,2023-10-21T15:17:08.409867Z,1697901428409
0.7091026306152344,0.1105351448059082,-0.07996344566345215,2023-10-21T15:17:08.426573Z,1697901428426
0.7555685043334961,0.10345125198364258,-0.08251285552978516,2023-10-21T15:17:08.445454Z,1697901428445
0.7953472137451172,0.09385073184967041,-0.083396315574646,2023-10-21T15:17:08.465747Z,1697901428465
0.828303337097168,0.08221608400344849,-0.08263468742370605,2023-10-21T15:17:08.485998Z,1697901428485
0.8568792343139648,0.06933468580245972,-0.08068382740020752,2023-10-21T15:17:08.509717Z,1697901428509
0.8831281661987305,0.05597662925720215,-0.07802379131317139,2023-10-21T15:17:08.526455Z,1697901428526
0.9072809219360352,0.0428105890750885,-0.07487839460372925,2023-10-21T15:17:08.546779Z,1697901428546
0.9287919998168945,0.03029799461364746,-0.07116168737411499,2023-10-21T15:17:08.567044Z,1697901428567
0.9448823928833008,0.01854504644870758,-0.06642860174179077,2023-10-21T15:17:08.587274Z,1697901428587
0.9520025253295898,0.0075711533427238464,-0.06025207042694092,2023-10-21T15:17:08.609705Z,1697901428609
0.9475345611572266,-0.002590782940387726,-0.05247199535369873,2023-10-21T15:17:08.627798Z,1697901428627
0.9287109375,-0.01177883893251419,-0.04318615794181824,2023-10-21T15:17:08.648074Z,1697901428648
0.8953084945678711,-0.0198422372341156,-0.03279387950897217,2023-10-21T15:17:08.668337Z,1697901428668
0.8476533889770508,-0.02668258547782898,-0.02182677388191223,2023-10-21T15:17:08.693137Z,1697901428693
0.7862100601196289,-0.03219074010848999,-0.010797962546348572,2023-10-21T15:17:08.709846Z,1697901428709
0.7110671997070312,-0.03611510992050171,-2.502249553799629E-4,2023-10-21T15:17:08.740774Z,1697901428740
0.6219234466552734,-0.03803962469100952,0.009129166603088379,2023-10-21T15:17:08.749382Z,1697901428749
0.5200157165527344,-0.03751015663146973,0.01635056734085083,2023-10-21T15:17:08.769660Z,1697901428769
0.4081134796142578,-0.03413188457489014,0.020311594009399414,2023-10-21T15:17:08.795413Z,1697901428795
0.2891836166381836,-0.027588248252868652,0.020037710666656494,2023-10-21T15:17:08.826360Z,1697901428826
0.1657238006591797,-0.01772129535675049,0.014852821826934814,2023-10-21T15:17:08.830395Z,1697901428830
0.040894508361816406,-0.004816532135009766,0.004522800445556641,2023-10-21T15:17:08.860411Z,1697901428860
-0.0841522216796875,0.010733962059020996,-0.011135101318359375,2023-10-21T15:17:08.870793Z,1697901428870
-0.20958995819091797,0.028515100479125977,-0.03252851963043213,2023-10-21T15:17:08.894605Z,1697901428894
-0.3346586227416992,0.047872185707092285,-0.06007945537567139,2023-10-21T15:17:08.927840Z,1697901428927
-0.45780467987060547,0.06789910793304443,-0.09395837783813477,2023-10-21T15:17:08.931709Z,1697901428931
-0.5774984359741211,0.08760738372802734,-0.1340181827545166,2023-10-21T15:17:08.960646Z,1697901428960
-0.6942405700683594,0.10633349418640137,-0.1802980899810791,2023-10-21T15:17:08.993272Z,1697901428993
-0.8077859878540039,0.12328708171844482,-0.2326643466949463,2023-10-21T15:17:08.995336Z,1697901428995
-0.9126749038696289,0.1370251178741455,-0.28946781158447266,2023-10-21T15:17:09.026191Z,1697901429026
-1.0017642974853516,0.14637398719787598,-0.347977876663208,2023-10-21T15:17:09.033025Z,1697901429033
-1.0713558197021484,0.15117096900939941,-0.4057753086090088,2023-10-21T15:17:09.061938Z,1697901429061
-1.1179723739624023,0.15135955810546875,-0.45885658264160156,2023-10-21T15:17:09.093182Z,1697901429093
-1.1462092399597168,0.14718323945999146,-0.5067806243896484,2023-10-21T15:17:09.095265Z,1697901429095
-1.166491985321045,0.13912582397460938,-0.5520331859588623,2023-10-21T15:17:09.114191Z,1697901429114
-1.1861572265625,0.1264476776123047,-0.5971214771270752,2023-10-21T15:17:09.134396Z,1697901429134
-1.2080378532409668,0.10867911577224731,-0.6416001319885254,2023-10-21T15:17:09.159512Z,1697901429159
-1.2224516868591309,0.0838589072227478,-0.678828239440918,2023-10-21T15:17:09.176320Z,1697901429176
-1.2237701416015625,0.05191466212272644,-0.7046723365783691,2023-10-21T15:17:09.195201Z,1697901429195
-1.2157187461853027,0.013654790818691254,-0.7207174301147461,2023-10-21T15:17:09.224748Z,1697901429224
-1.2031245231628418,-0.030513495206832886,-0.7294764518737793,2023-10-21T15:17:09.235615Z,1697901429235
-1.1850872039794922,-0.07974711060523987,-0.7300968170166016,2023-10-21T15:17:09.276441Z,1697901429276
-1.1608080863952637,-0.13268989324569702,-0.7228755950927734,2023-10-21T15:17:09.278500Z,1697901429278
-1.125563621520996,-0.18593788146972656,-0.7040510177612305,2023-10-21T15:17:09.309797Z,1697901429309
-1.0722594261169434,-0.23402273654937744,-0.6692700386047363,2023-10-21T15:17:09.316710Z,1697901429316
-0.9975600242614746,-0.27048230171203613,-0.6171584129333496,2023-10-21T15:17:09.345181Z,1697901429345
-0.8986620903015137,-0.2900412082672119,-0.5486555099487305,2023-10-21T15:17:09.376298Z,1697901429376
-0.7858338356018066,-0.29262471199035645,-0.47207212448120117,2023-10-21T15:17:09.378403Z,1697901429378
-0.667731761932373,-0.2803516387939453,-0.39350032806396484,2023-10-21T15:17:09.410569Z,1697901429410
-0.5490078926086426,-0.2552223205566406,-0.3162803649902344,2023-10-21T15:17:09.418064Z,1697901429418
-0.43137598037719727,-0.21871399879455566,-0.2420368194580078,2023-10-21T15:17:09.444099Z,1697901429444
-0.3153862953186035,-0.17226028442382812,-0.17160606384277344,2023-10-21T15:17:09.477408Z,1697901429477
-0.19941043853759766,-0.11609411239624023,-0.10471963882446289,2023-10-21T15:17:09.479481Z,1697901429479
-0.08419561386108398,-0.05178546905517578,-0.04248499870300293,2023-10-21T15:17:09.499159Z,1697901429499
0.026905536651611328,0.017364978790283203,0.01299428939819336,2023-10-21T15:17:09.519439Z,1697901429519
0.12984943389892578,0.08756351470947266,0.05981707572937012,2023-10-21T15:17:09.542667Z,1697901429542
0.22202730178833008,0.15602731704711914,0.09717535972595215,2023-10-21T15:17:09.560018Z,1697901429559
0.30133962631225586,0.2203845977783203,0.12490677833557129,2023-10-21T15:17:09.580235Z,1697901429580
0.37032508850097656,0.2810664176940918,0.14462971687316895,2023-10-21T15:17:09.600476Z,1697901429600
0.434816837310791,0.3408026695251465,0.15907692909240723,2023-10-21T15:17:09.620678Z,1697901429620
0.49573850631713867,0.3987154960632324,0.16889190673828125,2023-10-21T15:17:09.642440Z,1697901429642
0.5524983406066895,0.4536771774291992,0.17492032051086426,2023-10-21T15:17:09.661281Z,1697901429661
0.595055103302002,0.49742555618286133,0.1750192642211914,2023-10-21T15:17:09.681543Z,1697901429681
0.62005615234375,0.5266890525817871,0.16919994354248047,2023-10-21T15:17:09.701815Z,1697901429701
0.6315708160400391,0.5435690879821777,0.15941190719604492,2023-10-21T15:17:09.725790Z,1697901429725
0.6356596946716309,0.551915168762207,0.1477830410003662,2023-10-21T15:17:09.742362Z,1697901429742
0.6381616592407227,0.5563468933105469,0.1359264850616455,2023-10-21T15:17:09.762612Z,1697901429762
0.6467266082763672,0.5631275177001953,0.12519752979278564,2023-10-21T15:17:09.782864Z,1697901429782
0.6623382568359375,0.5738372802734375,0.11601507663726807,2023-10-21T15:17:09.803042Z,1697901429803
0.6812319755554199,0.5859947204589844,0.10772597789764404,2023-10-21T15:17:09.825555Z,1697901429825
0.6991662979125977,0.5968313217163086,0.09986209869384766,2023-10-21T15:17:09.843676Z,1697901429843
0.7124147415161133,0.6030406951904297,0.09140372276306152,2023-10-21T15:17:09.863931Z,1697901429863
0.7279577255249023,0.6096057891845703,0.08333581686019897,2023-10-21T15:17:09.884172Z,1697901429884
0.7514715194702148,0.6204319000244141,0.07647991180419922,2023-10-21T15:17:09.909067Z,1697901429909
0.7857131958007812,0.6372675895690918,0.0712319016456604,2023-10-21T15:17:09.925815Z,1697901429925
0.8300857543945312,0.6593585014343262,0.067562997341156,2023-10-21T15:17:09.944978Z,1697901429944
0.8804607391357422,0.683232307434082,0.06530678272247314,2023-10-21T15:17:09.965199Z,1697901429965
0.9312386512756348,0.7048826217651367,0.0641167163848877,2023-10-21T15:17:09.985463Z,1697901429985
0.9800233840942383,0.7231154441833496,0.06364262104034424,2023-10-21T15:17:10.008977Z,1697901430008
1.026993751525879,0.7388772964477539,0.06352704763412476,2023-10-21T15:17:10.026074Z,1697901430026
1.0751638412475586,0.7548103332519531,0.06363904476165771,2023-10-21T15:17:10.046301Z,1697901430046
1.1265125274658203,0.7726035118103027,0.0639752745628357,2023-10-21T15:17:10.066504Z,1697901430066
1.179513931274414,0.7917957305908203,0.06429356336593628,2023-10-21T15:17:10.086688Z,1697901430086
1.2297658920288086,0.8101649284362793,0.0640728771686554,2023-10-21T15:17:10.108800Z,1697901430108
1.2730560302734375,0.8255810737609863,0.06265929341316223,2023-10-21T15:17:10.127337Z,1697901430127
1.3081960678100586,0.8372020721435547,0.05971589684486389,2023-10-21T15:17:10.147621Z,1697901430147
1.3366775512695312,0.8452801704406738,0.055252671241760254,2023-10-21T15:17:10.167851Z,1697901430167
1.3599815368652344,0.8499455451965332,0.049621373414993286,2023-10-21T15:17:10.192072Z,1697901430192
1.379155158996582,0.8512201309204102,0.0432208776473999,2023-10-21T15:17:10.209130Z,1697901430209
1.3940725326538086,0.8486828804016113,0.03639209270477295,2023-10-21T15:17:10.228657Z,1697901430228
1.403834342956543,0.8416600227355957,0.029257073998451233,2023-10-21T15:17:10.248892Z,1697901430248
1.4056625366210938,0.8286080360412598,0.02181236445903778,2023-10-21T15:17:10.269223Z,1697901430269
1.3961334228515625,0.8079118728637695,0.01411842554807663,2023-10-21T15:17:10.292196Z,1697901430292
1.3725290298461914,0.7787261009216309,0.0063139908015728,2023-10-21T15:17:10.309703Z,1697901430309
1.334360122680664,0.7417311668395996,-0.0014789486303925514,2023-10-21T15:17:10.330042Z,1697901430329
1.2836170196533203,0.6990542411804199,-0.009264640510082245,2023-10-21T15:17:10.350199Z,1697901430350
1.2220802307128906,0.6524510383605957,-0.017159029841423035,2023-10-21T15:17:10.375138Z,1697901430375
1.1517858505249023,0.6034884452819824,-0.025488629937171936,2023-10-21T15:17:10.391569Z,1697901430391
1.0738677978515625,0.5529255867004395,-0.03450268507003784,2023-10-21T15:17:10.411024Z,1697901430410
0.9901247024536133,0.5018453598022461,-0.04431232810020447,2023-10-21T15:17:10.431283Z,1697901430431
0.9028091430664062,0.4516420364379883,-0.05458807945251465,2023-10-21T15:17:10.451496Z,1697901430451
0.8167686462402344,0.40466976165771484,-0.0648500919342041,2023-10-21T15:17:10.475080Z,1697901430475
0.737518310546875,0.3631901741027832,-0.074765145778656,2023-10-21T15:17:10.492081Z,1697901430492
0.6698036193847656,0.3287835121154785,-0.08442354202270508,2023-10-21T15:17:10.512356Z,1697901430512
0.6156330108642578,0.30170202255249023,-0.09417378902435303,2023-10-21T15:17:10.532539Z,1697901430532
0.5737705230712891,0.2808828353881836,-0.10427260398864746,2023-10-21T15:17:10.552777Z,1697901430552
0.5422563552856445,0.2650942802429199,-0.11479973793029785,2023-10-21T15:17:10.574808Z,1697901430574
0.5185670852661133,0.2529606819152832,-0.12551379203796387,2023-10-21T15:17:10.593379Z,1697901430593
0.5002555847167969,0.24323225021362305,-0.13596367835998535,2023-10-21T15:17:10.613652Z,1697901430613
0.48534297943115234,0.23488903045654297,-0.14565801620483398,2023-10-21T15:17:10.633924Z,1697901430633
0.47304248809814453,0.227447509765625,-0.15446114540100098,2023-10-21T15:17:10.658191Z,1697901430658
0.46279048919677734,0.22054147720336914,-0.16236114501953125,2023-10-21T15:17:10.674860Z,1697901430674
0.45502185821533203,0.21435117721557617,-0.1697678565979004,2023-10-21T15:17:10.694724Z,1697901430694
0.44979190826416016,0.20894980430603027,-0.1769721508026123,2023-10-21T15:17:10.714977Z,1697901430714
0.4465970993041992,0.20421409606933594,-0.1840214729309082,2023-10-21T15:17:10.735204Z,1697901430735
0.4435434341430664,0.19934678077697754,-0.1902446746826172,2023-10-21T15:17:10.758132Z,1697901430758
0.4389791488647461,0.19362759590148926,-0.19495034217834473,2023-10-21T15:17:10.775801Z,1697901430775
0.43262577056884766,0.1869494915008545,-0.19804120063781738,2023-10-21T15:17:10.796052Z,1697901430796
0.4280433654785156,0.18082165718078613,-0.2012310028076172,2023-10-21T15:17:10.816265Z,1697901430816
0.43013477325439453,0.17721939086914062,-0.20699477195739746,2023-10-21T15:17:10.841365Z,1697901430841
0.44176769256591797,0.17713594436645508,-0.21685075759887695,2023-10-21T15:17:10.858078Z,1697901430858
0.4609203338623047,0.17957448959350586,-0.22977542877197266,2023-10-21T15:17:10.877074Z,1697901430877
0.4818887710571289,0.18220281600952148,-0.24265670776367188,2023-10-21T15:17:10.897430Z,1697901430897
0.49872875213623047,0.18276715278625488,-0.2520923614501953,2023-10-21T15:17:10.917548Z,1697901430917
0.5086879730224609,0.1802201271057129,-0.256380558013916,2023-10-21T15:17:10.941560Z,1697901430941
0.5132570266723633,0.17496967315673828,-0.2561655044555664,2023-10-21T15:17:10.958139Z,1697901430958
0.5151262283325195,0.16786623001098633,-0.25289249420166016,2023-10-21T15:17:10.978425Z,1697901430978
0.5168170928955078,0.15969014167785645,-0.24795150756835938,2023-10-21T15:17:10.998666Z,1697901430998
0.5167760848999023,0.15001988410949707,-0.2407827377319336,2023-10-21T15:17:11.018881Z,1697901431018
0.5107145309448242,0.1378633975982666,-0.22973966598510742,2023-10-21T15:17:11.041147Z,1697901431041
0.49632835388183594,0.12304878234863281,-0.21442246437072754,2023-10-21T15:17:11.059434Z,1697901431059
0.47702693939208984,0.10695838928222656,-0.1970961093902588,2023-10-21T15:17:11.079735Z,1697901431079
0.46102428436279297,0.0916895866394043,-0.18169236183166504,2023-10-21T15:17:11.099931Z,1697901431099
0.4562501907348633,0.07857048511505127,-0.17132925987243652,2023-10-21T15:17:11.124460Z,1697901431124
0.4664449691772461,0.06753301620483398,-0.16688776016235352,2023-10-21T15:17:11.141256Z,1697901431141
0.49090003967285156,0.057613253593444824,-0.1674187183380127,2023-10-21T15:17:11.160779Z,1697901431160
0.5271921157836914,0.04783225059509277,-0.17147064208984375,2023-10-21T15:17:11.181027Z,1697901431180
0.5726318359375,0.037495434284210205,-0.17770719528198242,2023-10-21T15:17:11.201245Z,1697901431201
0.6252708435058594,0.026316285133361816,-0.18522214889526367,2023-10-21T15:17:11.224551Z,1697901431224
0.6840581893920898,0.014240741729736328,-0.19348978996276855,2023-10-21T15:17:11.241855Z,1697901431241
0.7475881576538086,0.0013934150338172913,-0.2019343376159668,2023-10-21T15:17:11.262162Z,1697901431262
0.8124923706054688,-0.011952713131904602,-0.2094717025756836,2023-10-21T15:17:11.282356Z,1697901431282
0.8743104934692383,-0.025308430194854736,-0.21478581428527832,2023-10-21T15:17:11.302478Z,1697901431302
0.9281711578369141,-0.03807994723320007,-0.21653079986572266,2023-10-21T15:17:11.324606Z,1697901431324
0.9695301055908203,-0.04966837167739868,-0.21366596221923828,2023-10-21T15:17:11.343153Z,1697901431343
0.9965305328369141,-0.05963701009750366,-0.20609545707702637,2023-10-21T15:17:11.363389Z,1697901431363
1.0098209381103516,-0.06781148910522461,-0.19464325904846191,2023-10-21T15:17:11.383639Z,1697901431383
1.009333610534668,-0.07400345802307129,-0.18010997772216797,2023-10-21T15:17:11.407777Z,1697901431407
0.9929962158203125,-0.07791125774383545,-0.16289031505584717,2023-10-21T15:17:11.424382Z,1697901431424
0.9568157196044922,-0.07909691333770752,-0.1429215669631958,2023-10-21T15:17:11.444477Z,1697901431444
0.8984909057617188,-0.07731956243515015,-0.12055206298828125,2023-10-21T15:17:11.464694Z,1697901431464
0.8189992904663086,-0.07263416051864624,-0.09683084487915039,2023-10-21T15:17:11.489567Z,1697901431489
0.719757080078125,-0.0650707483291626,-0.07305598258972168,2023-10-21T15:17:11.507852Z,1697901431507
0.6029186248779297,-0.05472242832183838,-0.05061829090118408,2023-10-21T15:17:11.541225Z,1697901431541
0.47240638732910156,-0.04210609197616577,-0.030985772609710693,2023-10-21T15:17:11.545718Z,1697901431545
0.3316679000854492,-0.028176307678222656,-0.015330404043197632,2023-10-21T15:17:11.575387Z,1697901431575
0.18256092071533203,-0.014205634593963623,-0.004655778408050537,2023-10-21T15:17:11.609221Z,1697901431609
0.027617454528808594,-0.0018614530563354492,-8.172914385795593E-5,2023-10-21T15:17:11.611358Z,1697901431611
-0.12677288055419922,0.006786763668060303,-0.002738386392593384,2023-10-21T15:17:11.689871Z,1697901431689
-0.2705116271972656,0.009834110736846924,-0.013028949499130249,2023-10-21T15:17:11.692133Z,1697901431692
-0.3964529037475586,0.006477430462837219,-0.030315101146697998,2023-10-21T15:17:11.693848Z,1697901431693
-0.4996347427368164,-0.0028413906693458557,-0.052986860275268555,2023-10-21T15:17:11.695428Z,1697901431695
-0.5750255584716797,-0.01647365093231201,-0.07842695713043213,2023-10-21T15:17:11.708022Z,1697901431707
-0.6186714172363281,-0.03183639049530029,-0.1032407283782959,2023-10-21T15:17:11.728159Z,1697901431728
