ACC_X,ACC_Y,ACC_Z,DATE,UNIX_TIMESTAMP,norm
0.0083446502685546,0.0125055313110351,-0.0007630288600921631,2023-10-21T16:00:09.137494Z,1697904009137,0.015053362232973112
0.0207557678222656,0.0315418243408203,-0.002004325389862,2023-10-21T16:00:09.157587Z,1697904009157,0.037811451980946265
0.0379805564880371,0.0583734512329101,-0.0038875341415405,2023-10-21T16:00:09.177789Z,1697904009177,0.06975023585396363
0.0592508316040039,0.0918655395507812,-0.0063909292221069,2023-10-21T16:00:09.198798Z,1697904009198,0.1095024309275559
0.082733154296875,0.1291437149047851,-0.0092564821243286,2023-10-21T16:00:09.218461Z,1697904009218,0.15365076108056527
0.105811595916748,0.1660737991333007,-0.0120027661323547,2023-10-21T16:00:09.238666Z,1697904009238,0.1972832151599448
0.126871109008789,0.2000112533569336,-0.0142223238945007,2023-10-21T16:00:09.258861Z,1697904009258,0.23728264636819016
0.1469550132751464,0.2323865890502929,-0.0158517360687255,2023-10-21T16:00:09.279235Z,1697904009279,0.2754098404805477
0.1683797836303711,0.2666072845458984,-0.0169808864593505,2023-10-21T16:00:09.299389Z,1697904009299,0.3157840182993648
0.1930451393127441,0.3054561614990234,-0.0176043510437011,2023-10-21T16:00:09.319723Z,1697904009319,0.36177314105066466
0.2223591804504394,0.3509836196899414,-0.0175575315952301,2023-10-21T16:00:09.339968Z,1697904009339,0.4158622047469113
0.2578954696655273,0.4055061340332031,-0.016631007194519,2023-10-21T16:00:09.360238Z,1697904009360,0.48085537161693553
0.3013348579406738,0.4714126586914062,-0.0145458579063415,2023-10-21T16:00:09.382325Z,1697904009382,0.5596822074774735
0.3538594245910644,0.5502872467041016,-0.0109605342149734,2023-10-21T16:00:09.400735Z,1697904009400,0.6543337677113856
0.415191650390625,0.6415929794311523,-0.0054355934262275,2023-10-21T16:00:09.421023Z,1697904009420,0.7642350446592522
0.4844598770141601,0.7437810897827148,0.0024264436215162,2023-10-21T16:00:09.441255Z,1697904009441,0.8876472100917044
0.5616903305053711,0.8563671112060547,0.0129721611738204,2023-10-21T16:00:09.461463Z,1697904009461,1.024221135060274
0.6466083526611328,0.9780912399291992,0.0265433937311172,2023-10-21T16:00:09.482174Z,1697904009482,1.1728040702129863
0.7374296188354492,1.1055574417114258,0.0434620380401611,2023-10-21T16:00:09.502155Z,1697904009502,1.3296423009252951
0.8304276466369629,1.233229637145996,0.0638905465602874,2023-10-21T16:00:09.522343Z,1697904009522,1.4881355503360647
0.9198918342590332,1.3536977767944336,0.0875385403633117,2023-10-21T16:00:09.542590Z,1697904009542,1.639012401930986
1.0009355545043943,1.4606437683105469,0.1136471033096313,2023-10-21T16:00:09.565392Z,1697904009565,1.7743358944309626
1.0712590217590332,1.550699234008789,0.1412622928619384,2023-10-21T16:00:09.583102Z,1697904009583,1.8900314921821217
1.129417896270752,1.6209344863891602,0.1696332693099975,2023-10-21T16:00:09.603401Z,1697904009603,1.98287388394702
1.173581600189209,1.667870044708252,0.1979289054870605,2023-10-21T16:00:09.623645Z,1697904009623,2.048965619517584
1.2012248039245603,1.6880688667297363,0.2251585721969604,2023-10-21T16:00:09.643865Z,1697904009643,2.0840378861766378
1.209855556488037,1.6786646842956543,0.2497104406356811,2023-10-21T16:00:09.665299Z,1697904009665,2.0842314876301224
1.1984586715698242,1.6388473510742188,0.2697592973709106,2023-10-21T16:00:09.684449Z,1697904009684,2.048144014980865
1.1669392585754397,1.5690627098083496,0.2834962606430053,2023-10-21T16:00:09.704722Z,1697904009704,1.9758732627155733
1.1153364181518557,1.4702749252319336,0.2893102169036865,2023-10-21T16:00:09.724924Z,1697904009724,1.8679893155546787
1.044482707977295,1.34503173828125,0.2862898111343384,2023-10-21T16:00:09.745132Z,1697904009745,1.7268515744576312
0.9548254013061525,1.1961336135864258,0.2740490436553955,2023-10-21T16:00:09.765461Z,1697904009765,1.554840842935126
0.8454184532165527,1.0254745483398438,0.2521648406982422,2023-10-21T16:00:09.785809Z,1697904009785,1.3527444389892147
0.7150421142578125,0.8356666564941406,0.2201323509216308,2023-10-21T16:00:09.806017Z,1697904009805,1.1216426515876894
0.5631828308105469,0.6309089660644531,0.1777362823486328,2023-10-21T16:00:09.826247Z,1697904009826,0.8641823941989395
0.3896751403808594,0.4161200523376465,0.1251840591430664,2023-10-21T16:00:09.848853Z,1697904009848,0.5836725637306099
0.1931648254394531,0.1954345703125,0.0627906322479248,2023-10-21T16:00:09.866802Z,1697904009866,0.28186873639760057
-0.0288772583007812,-0.0274953842163085,-0.009455919265747,2023-10-21T16:00:09.887106Z,1697904009887,0.04097934369084977
-0.2788705825805664,-0.2480087280273437,-0.0916905403137207,2023-10-21T16:00:09.907344Z,1697904009907,0.38429713268457716
-0.5567994117736816,-0.4583992958068847,-0.1832804679870605,2023-10-21T16:00:09.927655Z,1697904009927,0.7441419416303059
-0.8606710433959961,-0.6487340927124023,-0.2826454639434814,2023-10-21T16:00:09.948443Z,1697904009948,1.1142257519352001
-1.188309669494629,-0.8089828491210938,-0.3877274990081787,2023-10-21T16:00:09.968117Z,1697904009968,1.4889142803646065
-1.536801815032959,-0.9292261600494384,-0.4959909915924072,2023-10-21T16:00:09.988406Z,1697904009988,1.8631232216226712
-1.9019975662231443,-0.9993257522583008,-0.6044893264770508,2023-10-21T16:00:10.008585Z,1697904010008,2.2319619277375815
-2.276863574981689,-1.0080101490020752,-0.7093532085418701,2023-10-21T16:00:10.031719Z,1697904010031,2.5890875176475263
-2.649425983428955,-0.9435133934020996,-0.8047584295272827,2023-10-21T16:00:10.049145Z,1697904010049,2.9252883097385203
-3.003941059112549,-0.7972195148468018,-0.8832677602767944,2023-10-21T16:00:10.069462Z,1697904010069,3.2310033701342955
-3.322465419769287,-0.5659571886062622,-0.9368518590927124,2023-10-21T16:00:10.089737Z,1697904010089,3.498110262810948
-3.5841565132141118,-0.2537669241428375,-0.9573864936828612,2023-10-21T16:00:10.109890Z,1697904010109,3.7184895402959546
-3.767975330352783,0.1256296038627624,-0.9376654624938964,2023-10-21T16:00:10.131946Z,1697904010131,3.884924375977964
-3.857819557189941,0.5485681295394897,-0.8735191822052002,2023-10-21T16:00:10.150476Z,1697904010150,3.9933362606051706
-3.843395709991455,0.9847568273544312,-0.765394926071167,2023-10-21T16:00:10.170766Z,1697904010170,4.040701174976612
-3.722266674041748,1.4021522998809814,-0.618563711643219,2023-10-21T16:00:10.191013Z,1697904010190,4.025409461173506
-3.498927593231201,1.7686223983764648,-0.442213237285614,2023-10-21T16:00:10.211225Z,1697904010211,3.9453861709526263
-3.184954166412353,2.054370403289795,-0.248840183019638,2023-10-21T16:00:10.231523Z,1697904010231,3.7981959181624276
-2.7983078956604004,2.236781358718872,-0.0535934045910835,2023-10-21T16:00:10.251812Z,1697904010251,3.5828187476682722
-2.359499931335449,2.298318862915039,0.1264784783124923,2023-10-21T16:00:10.272048Z,1697904010272,3.2962867483092717
-1.8921351432800293,2.226600170135498,0.2729347348213196,2023-10-21T16:00:10.292273Z,1697904010292,2.9346919919396566
-1.4216394424438477,2.014730930328369,0.3679045438766479,2023-10-21T16:00:10.314883Z,1697904010314,2.4931011169503243
-0.9719877243041992,1.661966323852539,0.3959364891052246,2023-10-21T16:00:10.332863Z,1697904010332,1.9656189613510933
-0.5634012222290039,1.1709542274475098,0.3415920734405517,2023-10-21T16:00:10.353160Z,1697904010353,1.3435921571011589
-0.2125437259674072,0.5445222854614258,0.1877942085266113,2023-10-21T16:00:10.373365Z,1697904010373,0.6139592979737167
0.0657453536987304,-0.2123403549194336,-0.0846490859985351,2023-10-21T16:00:10.393662Z,1697904010393,0.2378578264860536
0.2588155269622803,-1.0885210037231443,-0.4931333065032959,2023-10-21T16:00:10.414741Z,1697904010414,1.2227198822813334
0.3591243028640747,-2.062541961669922,-1.04780912399292,2023-10-21T16:00:10.434197Z,1697904010434,2.341143645503118
0.3693293333053589,-3.098945617675781,-1.7466192245483398,2023-10-21T16:00:10.454493Z,1697904010454,3.576387396985057
0.3108130693435669,-4.139102935791016,-2.5717921257019043,2023-10-21T16:00:10.474692Z,1697904010474,4.882918452623481
0.2248607277870178,-5.0626630783081055,-3.4053053855896,2023-10-21T16:00:10.498039Z,1697904010498,6.105507723399467
0.1649048030376434,-5.87641716003418,-4.295131206512451,2023-10-21T16:00:10.515212Z,1697904010515,7.280633510482873
0.171550452709198,-6.533217430114746,-5.204070568084717,2023-10-21T16:00:10.535528Z,1697904010535,8.354322834592008
0.2668517231941223,-7.049237251281738,-6.091850280761719,2023-10-21T16:00:10.555848Z,1697904010555,9.320600598150659
0.4409781694412231,-7.443687915802002,-6.914864540100098,2023-10-21T16:00:10.576124Z,1697904010576,10.1694790005051
0.6527963876724243,-7.728389739990234,-7.616133213043213,2023-10-21T16:00:10.597984Z,1697904010597,10.870125860162082
0.8763419389724731,-7.912778854370117,-8.189401626586914,2023-10-21T16:00:10.616549Z,1697904010616,11.421310931487387
1.1030209064483645,-7.9291791915893555,-8.605131149291992,2023-10-21T16:00:10.636841Z,1697904010636,11.753162122123182
1.357097864151001,-7.7646403312683105,-8.865272521972656,2023-10-21T16:00:10.657048Z,1697904010657,11.862732019888382
1.6283413171768188,-7.443789482116699,-8.947762489318848,2023-10-21T16:00:10.677356Z,1697904010677,11.75261463949864
1.8759316205978396,-7.073659896850586,-8.956310272216797,2023-10-21T16:00:10.698239Z,1697904010698,11.565953375043804
2.064565658569336,-6.655405044555664,-8.791284561157227,2023-10-21T16:00:10.717847Z,1697904010717,11.218000352151993
2.190879821777344,-6.199850082397461,-8.498810768127441,2023-10-21T16:00:10.738146Z,1697904010738,10.745598164370092
2.268857002258301,-5.66508674621582,-8.115976333618164,2023-10-21T16:00:10.758342Z,1697904010758,10.15430902556628
2.328575611114502,-5.023477554321289,-7.66257905960083,2023-10-21T16:00:10.781207Z,1697904010781,9.453714029950357
2.414669990539551,-4.279079437255859,-7.174555778503418,2023-10-21T16:00:10.798872Z,1697904010798,8.695711736966388
2.5387179851531982,-3.452145576477051,-6.646677017211914,2023-10-21T16:00:10.819189Z,1697904010819,7.90826867654757
2.701817989349365,-2.6262624263763428,-6.112705230712891,2023-10-21T16:00:10.839469Z,1697904010839,7.180685205281787
2.873141288757324,-1.8362717628479004,-5.581117630004883,2023-10-21T16:00:10.859699Z,1697904010859,6.540314124883143
3.059774875640869,-1.0959874391555786,-5.099987030029297,2023-10-21T16:00:10.881141Z,1697904010881,6.0475845147345355
3.320502281188965,-0.3789833784103393,-4.740478515625,2023-10-21T16:00:10.900287Z,1697904010900,5.800129339729817
3.7052578926086426,0.3668473362922668,-4.515186309814453,2023-10-21T16:00:10.920603Z,1697904010920,5.852385875112749
4.234413623809815,1.1924099922180176,-4.381259918212891,2023-10-21T16:00:10.940740Z,1697904010940,6.208666426696346
4.891430854797363,2.132476329803467,-4.270142078399658,2023-10-21T16:00:10.960976Z,1697904010960,6.834300584123812
5.61536169052124,3.17508602142334,-4.106855392456055,2023-10-21T16:00:10.981287Z,1697904010981,7.647203369425768
6.340764045715332,4.274255275726318,-3.9223861694335938,2023-10-21T16:00:11.001570Z,1697904011001,8.594164305368759
6.945834159851074,5.338500022888184,-3.6071159839630127,2023-10-21T16:00:11.021870Z,1697904011021,9.473936900375296
7.370678424835205,6.287540912628174,-3.1800975799560547,2023-10-21T16:00:11.042093Z,1697904011042,10.196719658220808
7.611607074737549,7.113882064819336,-2.699180841445923,2023-10-21T16:00:11.064208Z,1697904011064,10.762409465690368
7.707817077636719,7.835155963897705,-2.22071385383606,2023-10-21T16:00:11.082612Z,1697904011082,11.21301400612384
7.73039436340332,8.483763694763184,-1.8009371757507324,2023-10-21T16:00:11.102916Z,1697904011102,11.61794380057507
7.709598064422607,9.063526153564451,-1.4442665576934814,2023-10-21T16:00:11.123139Z,1697904011123,11.986296948639618
7.629857540130615,9.493568420410156,-1.152996301651001,2023-10-21T16:00:11.143387Z,1697904011143,12.234049530197181
7.452168464660644,9.731380462646484,-0.923664689064026,2023-10-21T16:00:11.164301Z,1697904011164,12.291775176608303
7.199689865112305,9.807415962219238,-0.7818511724472046,2023-10-21T16:00:11.183945Z,1697904011183,12.191481996281281
6.960129737854004,9.835199356079102,-0.6759194135665894,2023-10-21T16:00:11.204225Z,1697904011204,12.067784361481381
6.783661365509033,9.871814727783203,-0.6789863109588623,2023-10-21T16:00:11.224406Z,1697904011224,11.997158411559246
6.677549839019775,9.925241470336914,-0.7571474313735962,2023-10-21T16:00:11.247627Z,1697904011247,11.986382370420372
6.609171390533447,9.923739433288574,-0.8696808815002441,2023-10-21T16:00:11.264988Z,1697904011264,11.954835659468493
6.5249342918396,9.80046844482422,-0.9903862476348876,2023-10-21T16:00:11.285283Z,1697904011285,11.81544811551064
6.353001594543457,9.501816749572754,-1.0906133651733398,2023-10-21T16:00:11.305524Z,1697904011305,11.481924416883599
6.059822082519531,9.01201629638672,-1.1781742572784424,2023-10-21T16:00:11.325791Z,1697904011325,10.923642981105012
5.665924072265625,8.414817810058594,-1.257001876831055,2023-10-21T16:00:11.347460Z,1697904011347,10.222128354091197
5.232954978942871,7.7703094482421875,-1.336751937866211,2023-10-21T16:00:11.366302Z,1697904011366,9.463003353929125
4.787413120269775,7.101503372192383,-1.399702787399292,2023-10-21T16:00:11.386592Z,1697904011386,8.678124360853808
4.303038120269775,6.370351791381836,-1.41452956199646,2023-10-21T16:00:11.406827Z,1697904011406,7.816547376701462
3.777498245239258,5.571770191192627,-1.3822879791259766,2023-10-21T16:00:11.427035Z,1697904011427,6.872032895256292
3.241750240325928,4.756103515625,-1.3200750350952148,2023-10-21T16:00:11.447350Z,1697904011447,5.9052572653759405
2.72854232788086,3.97479248046875,-1.2388620376586914,2023-10-21T16:00:11.467678Z,1697904011467,4.977820571915009
2.2572097778320312,3.259693145751953,-1.1420300006866455,2023-10-21T16:00:11.487927Z,1697904011487,4.126115353219191
1.8323049545288088,2.6193490028381348,-1.0291423797607422,2023-10-21T16:00:11.508133Z,1697904011508,3.358193663694748
1.458635330200195,2.060899257659912,-0.9043290615081788,2023-10-21T16:00:11.530696Z,1697904011530,2.681927260053798
1.1400084495544434,1.59051513671875,-0.775465726852417,2023-10-21T16:00:11.548700Z,1697904011548,2.1049239318107764
0.8751497268676758,1.2067842483520508,-0.6493220329284668,2023-10-21T16:00:11.568962Z,1697904011568,1.6259871982748046
0.6600284576416016,0.9014906883239746,-0.5307869911193848,2023-10-21T16:00:11.589209Z,1697904011589,1.2369550743552309
0.4912576675415039,0.6661696434020996,-0.4250354766845703,2023-10-21T16:00:11.609422Z,1697904011609,0.9304682940053783
0.3656044006347656,0.4932794570922851,-0.3375225067138672,2023-10-21T16:00:11.630540Z,1697904011630,0.7006515846632891
0.2772340774536133,0.3730654716491699,-0.2708683013916015,2023-10-21T16:00:11.649981Z,1697904011649,0.5379648841115423
0.218973159790039,0.2947835922241211,-0.2247190475463867,2023-10-21T16:00:11.670286Z,1697904011670,0.43051743435445916
0.1841135025024414,0.2489027976989746,-0.197155475616455,2023-10-21T16:00:11.690525Z,1697904011690,0.36704313925156506
0.1675601005554199,0.2284512519836425,-0.1861181259155273,2023-10-21T16:00:11.710777Z,1697904011710,0.3389783453634527
0.1640467643737793,0.2265596389770507,-0.1879591941833496,2023-10-21T16:00:11.731031Z,1697904011731,0.33700039998933523
0.1683311462402343,0.2364258766174316,-0.1978707313537597,2023-10-21T16:00:11.751339Z,1697904011751,0.3512625745156234
0.1760706901550293,0.2523741722106933,-0.2112874984741211,2023-10-21T16:00:11.771642Z,1697904011771,0.3732774005242652
0.1845340728759765,0.2707905769348144,-0.2251248359680175,2023-10-21T16:00:11.791788Z,1697904011791,0.3975695566545716
0.191627025604248,0.2887473106384277,-0.2368950843811035,2023-10-21T16:00:11.813856Z,1697904011813,0.41977995110150973
0.1959996223449707,0.3039369583129883,-0.2448101043701172,2023-10-21T16:00:11.832377Z,1697904011832,0.43672132280165804
0.1971464157104492,0.3148708343505859,-0.2479462623596191,2023-10-21T16:00:11.852671Z,1697904011852,0.4466404600685169
0.1942143440246582,0.3192596435546875,-0.2449102401733398,2023-10-21T16:00:11.872951Z,1697904011872,0.4467963262711069
0.1859579086303711,0.3138909339904785,-0.2338833808898925,2023-10-21T16:00:11.893100Z,1697904011893,0.4333697013867985
0.1720051765441894,0.2969136238098144,-0.2144384384155273,2023-10-21T16:00:11.913717Z,1697904011913,0.4046323326576407
0.152904987335205,0.2684102058410644,-0.1877417564392089,2023-10-21T16:00:11.933695Z,1697904011933,0.36148435770099513
0.1298279762268066,0.2302184104919433,-0.1560220718383789,2023-10-21T16:00:11.953976Z,1697904011953,0.306918078387907
0.1038947105407714,0.1847367286682129,-0.1214761734008789,2023-10-21T16:00:11.974214Z,1697904011974,0.24429128208248446
0.0759491920471191,0.134406566619873,-0.0859045982360839,2023-10-21T16:00:11.997042Z,1697904011997,0.17667202642539517
0.0471820831298828,0.0824942588806152,-0.0513482093811035,2023-10-21T16:00:12.014707Z,1697904012014,0.10801893502244307
0.0181655883789062,0.0311865806579589,-0.0189371109008789,2023-10-21T16:00:12.035128Z,1697904012035,0.040757889832024115
-0.0110015869140625,-0.0184550285339355,0.0109491348266601,2023-10-21T16:00:12.055328Z,1697904012055,0.024114446837288757
-0.0392289161682128,-0.0640296936035156,0.037177562713623,2023-10-21T16:00:12.075509Z,1697904012075,0.08379069576043706
-0.0643539428710937,-0.1018347740173339,0.0579938888549804,2023-10-21T16:00:12.096919Z,1697904012096,0.1336975777893574
-0.0847964286804199,-0.1297578811645507,0.0726599693298339,2023-10-21T16:00:12.116097Z,1697904012116,0.17119291219054486
-0.0996718406677246,-0.1473159790039062,0.0812807083129882,2023-10-21T16:00:12.136350Z,1697904012136,0.19555824461227064
-0.1085071563720703,-0.1549515724182129,0.0843563079833984,2023-10-21T16:00:12.156569Z,1697904012156,0.20712261942004198
-0.1117081642150878,-0.1544175148010254,0.0830087661743164,2023-10-21T16:00:12.176799Z,1697904012176,0.20787962404096333
-0.1103963851928711,-0.1480989456176757,0.0786523818969726,2023-10-21T16:00:12.197113Z,1697904012197,0.20076567618691013
-0.106414794921875,-0.1388478279113769,0.0728821754455566,2023-10-21T16:00:12.217401Z,1697904012217,0.18951158115442165
-0.1004872322082519,-0.1276478767395019,0.0662648677825927,2023-10-21T16:00:12.237650Z,1697904012237,0.1754499842554074
-0.0923480987548828,-0.1142048835754394,0.0586898326873779,2023-10-21T16:00:12.258596Z,1697904012258,0.15816264804622382
-0.0824732780456543,-0.0993013381958007,0.0505673885345459,2023-10-21T16:00:12.280534Z,1697904012280,0.13863498166868388
-0.0723171234130859,-0.0848164558410644,0.0428254604339599,2023-10-21T16:00:12.298509Z,1697904012298,0.1194052661383215
-0.0628218650817871,-0.0718235969543457,0.0359642505645751,2023-10-21T16:00:12.318752Z,1697904012318,0.10197373745472949
-0.0548067092895507,-0.061129093170166,0.0303525924682617,2023-10-21T16:00:12.339413Z,1697904012339,0.08753183012196498
-0.0485262870788574,-0.0528326034545898,0.0259971618652343,2023-10-21T16:00:12.359213Z,1697904012359,0.07630161826918751
-0.042696475982666,-0.045379638671875,0.0221073627471923,2023-10-21T16:00:12.379942Z,1697904012379,0.06611381213456273
-0.035287857055664,-0.0366144180297851,0.0176284313201904,2023-10-21T16:00:12.399864Z,1697904012399,0.05382016400989036
-0.024233341217041,-0.0245633125305175,0.0116627216339111,2023-10-21T16:00:12.420262Z,1697904012420,0.03642293542431079
-0.0084185600280761,-0.0083527565002441,0.0039005279541015,2023-10-21T16:00:12.440265Z,1697904012440,0.01248418248903059
0.0126190185546875,0.0122885704040527,-0.0056219100952148,2023-10-21T16:00:12.463327Z,1697904012463,0.018489306773851348
0.0388264656066894,0.0372557640075683,-0.016632080078125,2023-10-21T16:00:12.480822Z,1697904012480,0.05632150984322259
0.0699353218078613,0.0663623809814453,-0.0287842750549316,2023-10-21T16:00:12.501123Z,1697904012501,0.10061535338273961
0.1043004989624023,0.098236083984375,-0.0412220954895019,2023-10-21T16:00:12.521374Z,1697904012521,0.14909119168125554
0.1401782035827636,0.1314830780029297,-0.0531814098358154,2023-10-21T16:00:12.541577Z,1697904012541,0.19941411914139923
0.1756963729858398,0.164586067199707,-0.0639853477478027,2023-10-21T16:00:12.563320Z,1697904012563,0.24910221541177238
0.2094264030456543,0.1964039802551269,-0.0732450485229492,2023-10-21T16:00:12.582153Z,1697904012582,0.296308587263053
0.2401704788208007,0.2259478569030761,-0.0807123184204101,2023-10-21T16:00:12.602465Z,1697904012602,0.33948309424904105
0.2665643692016601,0.2520370483398437,-0.0861556529998779,2023-10-21T16:00:12.622659Z,1697904012622,0.37683157140501783
0.2864189147949219,0.272550106048584,-0.0891101360321044,2023-10-21T16:00:12.642881Z,1697904012642,0.40528998433597546
0.2981691360473633,0.2857375144958496,-0.0893142223358154,2023-10-21T16:00:12.663222Z,1697904012663,0.42252549176700377
0.3031320571899414,0.2924423217773437,-0.0873885154724121,2023-10-21T16:00:12.683552Z,1697904012683,0.4301724169437196
0.3032164573669433,0.2943234443664551,-0.0840396881103515,2023-10-21T16:00:12.703740Z,1697904012703,0.4308470483821124
0.2999215126037597,0.2929468154907226,-0.079821228981018,2023-10-21T16:00:12.723963Z,1697904012723,0.4267811840097016
0.2936954498291015,0.2889723777770996,-0.0749355554580688,2023-10-21T16:00:12.746486Z,1697904012746,0.4187808374797949
0.2852687835693359,0.2831931114196777,-0.0695948600769043,2023-10-21T16:00:12.764527Z,1697904012764,0.40794615059320083
0.276334285736084,0.2771663665771484,-0.0641982555389404,2023-10-21T16:00:12.784814Z,1697904012784,0.3966147352899196
0.2680678367614746,0.2719206809997558,-0.0590053796768188,2023-10-21T16:00:12.805029Z,1697904012804,0.3863713973525384
0.2606897354125976,0.2676029205322265,-0.0540305376052856,2023-10-21T16:00:12.825277Z,1697904012825,0.37747815860097583
0.2544221878051758,0.2644772529602051,-0.049318790435791,2023-10-21T16:00:12.846478Z,1697904012846,0.37028530901319584
0.2487769126892089,0.2621889114379883,-0.04487144947052,2023-10-21T16:00:12.865945Z,1697904012865,0.36420656850995553
0.2414684295654297,0.2585334777832031,-0.0403836965560913,2023-10-21T16:00:12.886129Z,1697904012886,0.35605814772169914
0.2302784919738769,0.2510342597961426,-0.0356535911560058,2023-10-21T16:00:12.906316Z,1697904012906,0.34251651349895484
0.2143983840942382,0.2383999824523925,-0.0306889414787292,2023-10-21T16:00:12.929887Z,1697904012929,0.3220916482378989
0.1941442489624023,0.2203865051269531,-0.0256441235542297,2023-10-21T16:00:12.946965Z,1697904012946,0.2948216785111169
0.1695060729980468,0.1965317726135254,-0.0206289291381835,2023-10-21T16:00:12.967166Z,1697904012967,0.26035091539539823
0.1399083137512207,0.1658301353454589,-0.0156824588775634,2023-10-21T16:00:12.987425Z,1697904012987,0.21753139902517452
0.1057524681091308,0.1283226013183593,-0.0109252333641052,2023-10-21T16:00:13.007686Z,1697904013007,0.16664223727597835
0.0700569152832031,0.0871577262878418,-0.0066791176795959,2023-10-21T16:00:13.029688Z,1697904013029,0.11202254792514825
0.0368247032165527,0.0470056533813476,-0.0032449960708618,2023-10-21T16:00:13.048213Z,1697904013048,0.05980067070104223
0.0087699890136718,0.0114855766296386,-0.0007153749465942383,2023-10-21T16:00:13.068561Z,1697904013068,0.014468688231123069
-0.0132026672363281,-0.0177302360534667,0.0009959042072296145,2023-10-21T16:00:13.088728Z,1697904013088,0.022128341959009028
-0.0297737121582031,-0.040999412536621,0.0020868480205535,2023-10-21T16:00:13.108911Z,1697904013108,0.05071272718646133
-0.0418143272399902,-0.0590319633483886,0.002751737833023,2023-10-21T16:00:13.129525Z,1697904013129,0.07239325051688295
-0.0489487648010253,-0.0708141326904296,0.0031063258647918,2023-10-21T16:00:13.149524Z,1697904013149,0.08614100199453299
-0.0497355461120605,-0.073617935180664,0.0031680762767791,2023-10-21T16:00:13.169827Z,1697904013169,0.08890029040798929
