ACC_X,ACC_Y,ACC_Z,DATE,UNIX_TIMESTAMP,norm,Line_Number
0.0940465927124023,0.1385679244995117,-0.0205392837524414,2023-10-21T15:27:17.876050Z,1697902037876,0.1687237193697974,0
0.0932645797729492,0.1389484405517578,-0.0211155414581298,2023-10-21T15:27:17.893846Z,1697902037893,0.1686736999744186,1
0.0917773246765136,0.1383256912231445,-0.0215427875518798,2023-10-21T15:27:17.914419Z,1697902037914,0.1673952385005151,2
0.0900588035583496,0.1373138427734375,-0.0219050645828247,2023-10-21T15:27:17.934229Z,1697902037934,0.1656668686549831,3
0.0885696411132812,0.1365346908569336,-0.02227783203125,2023-10-21T15:27:17.954498Z,1697902037954,0.164263827224214,4
0.0876832008361816,0.1364631652832031,-0.0227314233779907,2023-10-21T15:27:17.976691Z,1697902037976,0.1637902829742303,5
0.0877695083618164,0.1375980377197265,-0.0233415365219116,2023-10-21T15:27:17.994981Z,1697902037994,0.1648682319599442,6
0.0894217491149902,0.1408138275146484,-0.0242700576782226,2023-10-21T15:27:18.015273Z,1697902038015,0.1685639906202201,7
0.0931835174560546,0.1469488143920898,-0.0256730318069458,2023-10-21T15:27:18.035594Z,1697902038035,0.1758869709184967,8
0.0990023612976074,0.1559076309204101,-0.0275614261627197,2023-10-21T15:27:18.060005Z,1697902038059,0.1867305254473404,9
0.1067085266113281,0.1673650741577148,-0.0298885107040405,2023-10-21T15:27:18.078588Z,1697902038078,0.200726432667657,10
0.1158766746520996,0.1805562973022461,-0.0325304269790649,2023-10-21T15:27:18.096279Z,1697902038096,0.2169935688064646,11
0.1257467269897461,0.1941976547241211,-0.0352649688720703,2023-10-21T15:27:18.116596Z,1697902038116,0.2340268926395656,12
0.1353206634521484,0.2067165374755859,-0.0377925634384155,2023-10-21T15:27:18.136795Z,1697902038136,0.2499433669339348,13
0.1435856819152832,0.216705322265625,-0.0398411750793457,2023-10-21T15:27:18.160128Z,1697902038160,0.2629930873255576,14
0.1496162414550781,0.2230300903320312,-0.0412086248397827,2023-10-21T15:27:18.177300Z,1697902038177,0.2717086521659628,15
0.1532859802246093,0.2257442474365234,-0.0419244766235351,2023-10-21T15:27:18.197617Z,1697902038197,0.2760701337056563,16
0.1552658081054687,0.2259383201599121,-0.0422220230102539,2023-10-21T15:27:18.217795Z,1697902038217,0.2773775313726863,17
0.1564435958862304,0.2249317169189453,-0.0423730611801147,2023-10-21T15:27:18.243077Z,1697902038243,0.2772442105503602,18
0.1526412963867187,0.1553835868835449,-0.0933489799499511,2023-10-21T15:28:14.997110Z,1697902094997,0.2369756453585697,19
0.1654887199401855,0.1663122177124023,-0.0962975025177002,2023-10-21T15:28:15.020463Z,1697902095020,0.2536128529452029,20
0.1816277503967285,0.1802568435668945,-0.1004059314727783,2023-10-21T15:28:15.037510Z,1697902095037,0.2748863773303298,21
0.1994752883911132,0.195530891418457,-0.1045920848846435,2023-10-21T15:28:15.057813Z,1697902095057,0.2982653590314012,22
0.2169976234436035,0.2101044654846191,-0.1077489852905273,2023-10-21T15:28:15.078017Z,1697902095077,0.320689411780133,23
0.2328352928161621,0.2226753234863281,-0.1093101501464843,2023-10-21T15:28:15.103368Z,1697902095103,0.3402135832026343,24
0.2467889785766601,0.2330951690673828,-0.1094064712524414,2023-10-21T15:28:15.120230Z,1697902095120,0.3566622123822122,25
0.2591071128845215,0.2415919303894043,-0.1083996295928955,2023-10-21T15:28:15.138824Z,1697902095138,0.370477578906616,26
0.2705230712890625,0.2487893104553222,-0.1068179607391357,2023-10-21T15:28:15.159090Z,1697902095159,0.3827387226724903,27
0.282231330871582,0.255711555480957,-0.1052944660186767,2023-10-21T15:28:15.179428Z,1697902095179,0.3951326970856667,28
0.2953934669494629,0.2633471488952636,-0.104339599609375,2023-10-21T15:28:15.203489Z,1697902095203,0.4092624746960467,29
0.3103384971618652,0.2719836235046386,-0.1040971279144287,2023-10-21T15:28:15.220127Z,1697902095220,0.4255834657448888,30
0.3268117904663086,0.2814044952392578,-0.1045114994049072,2023-10-21T15:28:15.240232Z,1697902095240,0.44375341107029,31
0.3436408042907715,0.2906179428100586,-0.1052684783935546,2023-10-21T15:28:15.260482Z,1697902095260,0.4622004366073804,32
0.3595013618469238,0.2984962463378906,-0.1060273647308349,2023-10-21T15:28:15.280535Z,1697902095280,0.4791482446168085,33
0.3728561401367187,0.3037929534912109,-0.1063861846923828,2023-10-21T15:28:15.302924Z,1697902095302,0.4925747457208573,34
0.3823132514953613,0.3053922653198242,-0.1059505939483642,2023-10-21T15:28:15.321242Z,1697902095321,0.5006529599873952,35
0.8640537261962891,0.3881652355194092,-0.3057351112365722,2023-10-21T15:28:19.394123Z,1697902099394,0.9953567451232594,36
0.8967437744140625,0.3877921104431152,-0.3088006973266601,2023-10-21T15:28:19.416837Z,1697902099416,1.02464139509476,37
0.9210853576660156,0.3831601142883301,-0.3082499504089355,2023-10-21T15:28:19.434765Z,1697902099434,1.04413980922829,38
0.9346981048583984,0.3736579418182373,-0.3033993244171142,2023-10-21T15:28:19.455026Z,1697902099454,1.0513476850055286,39
0.9323148727416992,0.3580143451690674,-0.2927932739257812,2023-10-21T15:28:19.475221Z,1697902099475,1.0407272431037753,40
0.9099082946777344,0.3358659744262695,-0.2757325172424316,2023-10-21T15:28:19.500005Z,1697902099499,1.0083488873229831,41
0.867030143737793,0.308319091796875,-0.2531158924102783,2023-10-21T15:28:19.516716Z,1697902099516,0.9543948802812592,42
0.8074331283569336,0.2775969505310058,-0.2269947528839111,2023-10-21T15:28:19.536094Z,1697902099536,0.8834788857404607,43
0.7369832992553711,0.2461249828338623,-0.1996829509735107,2023-10-21T15:28:19.556272Z,1697902099556,0.8022438354177552,44
0.6597366333007812,0.2152752876281738,-0.1725144386291504,2023-10-21T15:28:19.576476Z,1697902099576,0.715092376073171,45
0.5787525177001953,0.1858220100402832,-0.1463100910186767,2023-10-21T15:28:19.599937Z,1697902099599,0.6252127149167869,46
0.4966936111450195,0.1582088470458984,-0.1216731071472168,2023-10-21T15:28:19.617121Z,1697902099617,0.5352933099140418,47
0.4174108505249023,0.1330738067626953,-0.0994219779968261,2023-10-21T15:28:19.637401Z,1697902099637,0.4492495808468149,48
0.3457403182983398,0.1112780570983886,-0.0804576873779296,2023-10-21T15:28:19.657689Z,1697902099657,0.3720115766301288,49
0.2877359390258789,0.094182014465332,-0.0658211708068847,2023-10-21T15:28:19.677754Z,1697902099677,0.3098300324084826,50
0.2465190887451172,0.082491397857666,-0.0557837486267089,2023-10-21T15:28:19.699785Z,1697902099699,0.2658727485980512,51
0.2210378646850586,0.0758099555969238,-0.0496752262115478,2023-10-21T15:28:19.730935Z,1697902099730,0.2388985456031624,52
0.2061195373535156,0.0724711418151855,-0.0460739135742187,2023-10-21T15:28:19.738602Z,1697902099738,0.2232938323977368,53
0.1962652206420898,0.0706424713134765,-0.0436224937438964,2023-10-21T15:28:19.758840Z,1697902099758,0.2131040064086075,54
0.1886730194091797,0.0693945884704589,-0.0417163372039794,2023-10-21T15:28:19.784542Z,1697902099784,0.2053128587100115,55
0.1801662445068359,0.0676326751708984,-0.0397188663482666,2023-10-21T15:28:19.818618Z,1697902099818,0.1964984548398808,56
0.1673727035522461,0.0640783309936523,-0.0368900299072265,2023-10-21T15:28:19.821086Z,1697902099821,0.1829768529182753,57
0.1470756530761718,0.0573899745941162,-0.0324664115905761,2023-10-21T15:28:19.851033Z,1697902099850,0.1611797902755318,58
0.1180458068847656,0.0469176769256591,-0.0261164903640747,2023-10-21T15:28:19.860108Z,1697902099860,0.1296848179245076,59
0.0814876556396484,0.0329744815826416,-0.0180773735046386,2023-10-21T15:28:19.900235Z,1697902099900,0.0897460076555837,60
0.0395412445068359,0.0162956714630126,-0.008798599243164,2023-10-21T15:28:19.901997Z,1697902099901,0.0436631912968077,61
-0.0047035217285156,-0.0019762516021728,0.0010517835617065,2023-10-21T15:28:19.921180Z,1697902099921,0.0052091204350048,62
-0.0471115112304687,-0.0202124118804931,0.0105961561203002,2023-10-21T15:28:19.951085Z,1697902099951,0.0523480143746737,63
-0.0840425491333007,-0.0368905067443847,0.0190832614898681,2023-10-21T15:28:19.983105Z,1697902099983,0.09374556214441,64
-0.1121702194213867,-0.0504298210144043,0.025775671005249,2023-10-21T15:28:19.985324Z,1697902099985,0.1256571135605053,65
-0.1289482116699218,-0.0593626499176025,0.0300124883651733,2023-10-21T15:28:20.002142Z,1697902100002,0.1450941589312969,66
-0.132965087890625,-0.0625829696655273,0.0313148498535156,2023-10-21T15:28:20.022354Z,1697902100022,0.1502563226997991,67
-0.1245183944702148,-0.0597953796386718,0.0296742916107177,2023-10-21T15:28:20.042615Z,1697902100042,0.1412829840078797,68
-0.1047821044921875,-0.051215648651123,0.0253272056579589,2023-10-21T15:28:20.066253Z,1697902100066,0.1193473897285044,69
-0.0733537673950195,-0.0363802909851074,0.0181114673614501,2023-10-21T15:28:20.083163Z,1697902100083,0.083858965013817,70
-0.0291109085083007,-0.0145864486694335,0.0074410438537597,2023-10-21T15:28:20.103467Z,1697902100103,0.033400278630548,71
0.0258693695068359,0.0130248069763183,-0.0069587230682373,2023-10-21T15:28:20.123675Z,1697902100123,0.0297874755928054,72
0.0888929367065429,0.0446772575378418,-0.0255327224731445,2023-10-21T15:28:20.143885Z,1697902100143,0.1027128592451144,73
0.1645689010620117,0.0820188522338867,-0.0512924194335937,2023-10-21T15:28:20.166211Z,1697902100166,0.1908950696321778,74
0.2643709182739258,0.1299972534179687,-0.0913412570953369,2023-10-21T15:28:20.184489Z,1697902100184,0.3084388003688426,75
0.4062471389770508,0.1971020698547363,-0.1592850685119629,2023-10-21T15:28:20.204739Z,1697902100204,0.4788086224358551,76
0.6032733917236328,0.2903175354003906,-0.2725427150726318,2023-10-21T15:28:20.224931Z,1697902100224,0.7228434049376494,77
0.8563690185546875,0.4114942550659179,-0.4455642700195312,2023-10-21T15:28:20.250119Z,1697902100250,1.0493916983713047,78
1.1630825996398926,0.5595498085021973,-0.6879258155822754,2023-10-21T15:28:20.266135Z,1697902100266,1.46256591288204,79
1.5172805786132812,0.7244076728820801,-1.0028901100158691,2023-10-21T15:28:20.285846Z,1697902100285,1.957727101394657,80
1.91040563583374,0.8908171653747559,-1.392209529876709,2023-10-21T15:28:20.306011Z,1697902100305,2.5261536553881987,81
2.3336400985717773,1.0476598739624023,-1.859455108642578,2023-10-21T15:28:20.326353Z,1697902100326,3.1624421927096145,82
2.769314765930176,1.1891846656799316,-2.4061508178710938,2023-10-21T15:28:20.349477Z,1697902100349,3.8565303318175688,83
3.1906280517578125,1.314374923706055,-3.0131778717041016,2023-10-21T15:28:20.366839Z,1697902100366,4.581149385389916,84
3.578791618347168,1.4128499031066897,-3.6471524238586426,2023-10-21T15:28:20.387146Z,1697902100387,5.301472917889753,85
3.926156997680664,1.4682049751281738,-4.280555725097656,2023-10-21T15:28:20.407426Z,1697902100407,5.991117753399134,86
4.236828804016113,1.469360589981079,-4.90998125076294,2023-10-21T15:28:20.427637Z,1697902100427,6.649635684815655,87
4.514477729797363,1.4173479080200195,-5.55724573135376,2023-10-21T15:28:20.450494Z,1697902100450,7.298791981133225,88
4.746184825897217,1.32081937789917,-6.242423534393311,2023-10-21T15:28:20.468200Z,1697902100468,7.952275511660699,89
4.908722877502441,1.198946237564087,-6.95783281326294,2023-10-21T15:28:20.488478Z,1697902100488,8.599097035503403,90
4.990054130554199,1.068994641304016,-7.675014495849609,2023-10-21T15:28:20.508705Z,1697902100508,9.21679105114678,91
4.998547554016113,0.9387398958206176,-8.367609977722168,2023-10-21T15:28:20.533045Z,1697902100532,9.792017513313656,92
4.960371017456055,0.8079661130905151,-9.019721031188965,2023-10-21T15:28:20.549591Z,1697902100549,10.325379283648283,93
4.904638290405273,0.6707471013069153,-9.642145156860352,2023-10-21T15:28:20.569517Z,1697902100569,10.83865036153426,94
4.843874931335449,0.5372563600540161,-10.234234809875488,2023-10-21T15:28:20.589809Z,1697902100589,11.335401664277525,95
4.784463882446289,0.4186562895774841,-10.765960693359377,2023-10-21T15:28:20.609963Z,1697902100609,11.788650363048136,96
4.736103057861328,0.3218837082386017,-11.197500228881836,2023-10-21T15:28:20.632540Z,1697902100632,12.16216644648977,97
4.713769912719727,0.2448222339153289,-11.498746871948242,2023-10-21T15:28:20.650590Z,1697902100650,12.429832836423042,98
4.732211112976074,0.1837331354618072,-11.650630950927734,2023-10-21T15:28:20.670888Z,1697902100670,12.576358035518716,99
4.794580459594727,0.1363024115562439,-11.633392333984377,2023-10-21T15:28:20.690993Z,1697902100690,12.583417553563502,100
4.893587112426758,0.0929006785154342,-11.43026638031006,2023-10-21T15:28:20.715899Z,1697902100715,12.434098877193486,101
5.012500762939453,0.0387079827487468,-11.055851936340332,2023-10-21T15:28:20.732494Z,1697902100732,12.139131939503637,102
5.134073257446289,-0.0353176333010196,-10.559032440185549,2023-10-21T15:28:20.751909Z,1697902100751,11.741086901174777,103
5.234511375427246,-0.1286457628011703,-9.988588333129885,2023-10-21T15:28:20.772073Z,1697902100772,11.277790384667664,104
5.28614616394043,-0.2188596129417419,-9.367968559265137,2023-10-21T15:28:20.792290Z,1697902100792,10.75872091487177,105
5.27468204498291,-0.2838166952133178,-8.702871322631836,2023-10-21T15:28:20.815831Z,1697902100815,10.180510392432913,106
5.200056076049805,-0.3206889629364013,-8.001982688903809,2023-10-21T15:28:20.832957Z,1697902100832,9.548568037068591,107
5.079920768737793,-0.339704155921936,-7.282406806945801,2023-10-21T15:28:20.853212Z,1697902100853,8.885631256813145,108
4.938003540039063,-0.3590971827507019,-6.584765911102295,2023-10-21T15:28:20.873401Z,1697902100873,8.238444747166339,109
4.789714813232422,-0.3747910261154175,-5.952771186828613,2023-10-21T15:28:20.893628Z,1697902100893,7.649661502843879,110
4.645204067230225,-0.3706840276718139,-5.407343864440918,2023-10-21T15:28:20.915720Z,1697902100915,7.13825574933331,111
4.508219242095947,-0.3324463367462158,-4.935056686401367,2023-10-21T15:28:20.934322Z,1697902100934,6.692484277128709,112
4.3823442459106445,-0.258225679397583,-4.503203392028809,2023-10-21T15:28:20.954524Z,1697902100954,6.288915835113891,113
4.286854267120361,-0.1577185094356537,-4.091668605804443,2023-10-21T15:28:20.974731Z,1697902100974,5.928216141089353,114
4.252955913543701,-0.0513152703642845,-3.714989185333252,2023-10-21T15:28:20.999420Z,1697902100999,5.647248171159287,115
4.295713901519775,0.0489486455917358,-3.3938379287719727,2023-10-21T15:28:21.015615Z,1697902101015,5.474823264762685,116
4.403773307800293,0.1441341340541839,-3.1308326721191406,2023-10-21T15:28:21.035584Z,1697902101035,5.405192615985351,117
4.544376373291016,0.2415782809257507,-2.913498878479004,2023-10-21T15:28:21.055787Z,1697902101055,5.403535176422844,118
4.67827033996582,0.3488081097602844,-2.713794231414795,2023-10-21T15:28:21.075947Z,1697902101075,5.419645708134312,119
4.789541244506836,0.4585156440734863,-2.5204153060913086,2023-10-21T15:28:21.099059Z,1697902101099,5.431614423343355,120
4.864307403564453,0.562562108039856,-2.3351101875305176,2023-10-21T15:28:21.116633Z,1697902101116,5.425007117938465,121
4.889016151428223,0.6556413173675537,-2.166721820831299,2023-10-21T15:28:21.136935Z,1697902101136,5.387673701592552,122
4.847562789916992,0.7366375923156738,-2.022786855697632,2023-10-21T15:28:21.157111Z,1697902101157,5.304070758218027,123
4.717615127563477,0.8028106689453125,-1.901602029800415,2023-10-21T15:28:21.182163Z,1697902101182,5.149416252521176,124
4.490560531616211,0.8491008281707764,-1.7982430458068848,2023-10-21T15:28:21.198997Z,1697902101198,4.911189688487138,125
4.176230430603027,0.8719315528869629,-1.7082006931304932,2023-10-21T15:28:21.217958Z,1697902101217,4.595553813244505,126
3.8013620376586914,0.8739070892333984,-1.6264939308166504,2023-10-21T15:28:21.238147Z,1697902101238,4.226056015831833,127
3.393152236938477,0.8597314357757568,-1.5466105937957764,2023-10-21T15:28:21.258405Z,1697902101258,3.826829572053472,128
2.981387138366699,0.8355753421783447,-1.4670982360839844,2023-10-21T15:28:21.282138Z,1697902101282,3.426256361627888,129
2.5883569717407227,0.8052449226379395,-1.3861613273620603,2023-10-21T15:28:21.298983Z,1697902101298,3.044577872886016,130
2.2318124771118164,0.7699322700500488,-1.3032045364379885,2023-10-21T15:28:21.319396Z,1697902101319,2.6966877270549805,131
1.920224666595459,0.731818675994873,-1.2174253463745115,2023-10-21T15:28:21.339444Z,1697902101339,2.388502840427792,132
1.652785301208496,0.6927390098571777,-1.1273980140686035,2023-10-21T15:28:21.359671Z,1697902101359,2.117218191352652,133
1.429248332977295,0.6564128398895264,-1.037060260772705,2023-10-21T15:28:21.382077Z,1697902101382,1.883911515481595,134
1.24261474609375,0.6235373020172119,-0.947166919708252,2023-10-21T15:28:21.400350Z,1697902101400,1.6822649458412182,135
1.0824718475341797,0.5911746025085449,-0.8554830551147461,2023-10-21T15:28:21.420597Z,1697902101420,1.5010276376348493,136
0.9379549026489258,0.5540647506713867,-0.7595272064208984,2023-10-21T15:28:21.440740Z,1697902101440,1.32801683898708,137
0.8019442558288574,0.5081419944763184,-0.6586885452270508,2023-10-21T15:28:21.465303Z,1697902101465,1.1555057228852652,138
0.6710548400878906,0.4523439407348633,-0.5550718307495117,2023-10-21T15:28:21.481952Z,1697902101481,0.9813431491667656,139
0.5462765693664551,0.3891382217407226,-0.4527196884155273,2023-10-21T15:28:21.501650Z,1697902101501,0.8091982217833695,140
0.4328527450561523,0.3237857818603515,-0.3576827049255371,2023-10-21T15:28:21.521862Z,1697902101521,0.6481787167443979,141
0.3355236053466797,0.2614393234252929,-0.2747893333435058,2023-10-21T15:28:21.542074Z,1697902101542,0.5063948926453324,142
0.2539734840393066,0.204014778137207,-0.2045555114746093,2023-10-21T15:28:21.565270Z,1697902101565,0.3846654618861391,143
0.1870317459106445,0.1531529426574707,-0.146942138671875,2023-10-21T15:28:21.582709Z,1697902101582,0.2828934250570185,144
0.1309375762939453,0.1082682609558105,-0.0996160507202148,2023-10-21T15:28:21.603007Z,1697902101602,0.1969518285703909,145
0.0845685005187988,0.0700616836547851,-0.0619421005249023,2023-10-21T15:28:21.623240Z,1697902101623,0.1260844741194504,146
0.0463805198669433,0.0383062362670898,-0.0325965881347656,2023-10-21T15:28:21.643549Z,1697902101643,0.0684182571986861,147
0.014869213104248,0.0122199058532714,-0.0100197792053222,2023-10-21T15:28:21.665503Z,1697902101665,0.0216982850180783,148
-0.0110812187194824,-0.0090641975402832,0.0071616172790527,2023-10-21T15:28:21.684041Z,1697902101683,0.0160075559474239,149
-0.033390998840332,-0.0272154808044433,0.0207033157348632,2023-10-21T15:28:21.704282Z,1697902101704,0.0477940213979688,150
-0.0536160469055175,-0.0436372756958007,0.0319194793701171,2023-10-21T15:28:21.724557Z,1697902101724,0.0761429279656706,151
-0.0731720924377441,-0.0596294403076171,0.0419142246246337,2023-10-21T15:28:21.748743Z,1697902101748,0.1032793662306352,152
-0.0913119316101074,-0.0747199058532714,0.0505163669586181,2023-10-21T15:28:21.765144Z,1697902101765,0.1283465485152929,153
-0.1085715293884277,-0.0894527435302734,0.0582351684570312,2023-10-21T15:28:21.785316Z,1697902101785,0.152252767344485,154
-0.1221518516540527,-0.1014714241027832,0.0637083053588867,2023-10-21T15:28:21.805565Z,1697902101805,0.171103106177713,155
-0.1308183670043945,-0.1097264289855957,0.0664877891540527,2023-10-21T15:28:21.825879Z,1697902101825,0.1832319853907095,156
-0.1343488693237304,-0.1138873100280761,0.066652774810791,2023-10-21T15:28:21.849063Z,1697902101849,0.1883149767383729,157
-0.1334033012390136,-0.1143245697021484,0.0647323131561279,2023-10-21T15:28:21.866400Z,1697902101866,0.1872346666234418,158
-0.1274342536926269,-0.110384464263916,0.0606722831726074,2023-10-21T15:28:21.886658Z,1697902101886,0.1791796442412072,159
-0.1133866310119628,-0.0991759300231933,0.0532150268554687,2023-10-21T15:28:21.906873Z,1697902101906,0.1597630503947536,160
-0.0880093574523925,-0.0776124000549316,0.0409634113311767,2023-10-21T15:28:21.927403Z,1697902101927,0.1242872990669477,161
-0.0492210388183593,-0.0437102317810058,0.0228674411773681,2023-10-21T15:28:21.948211Z,1697902101948,0.06968654741561,162
0.0006327629089355,0.0005664825439453,-0.0002954006195068,2023-10-21T15:28:21.967914Z,1697902101967,0.0008991956947874,163
0.0551886558532714,0.0496864318847656,-0.0259969234466552,2023-10-21T15:28:21.987902Z,1697902101987,0.0786788998208638,164
0.1070775985717773,0.0970702171325683,-0.0511236190795898,2023-10-21T15:28:22.008108Z,1697902102008,0.1533031754330537,165
0.1516108512878418,0.1381278038024902,-0.0735926628112793,2023-10-21T15:28:22.031423Z,1697902102031,0.2179014007095364,166
0.187967300415039,0.1714897155761718,-0.0930368900299072,2023-10-21T15:28:22.048784Z,1697902102048,0.2709174993981578,167
0.2169971466064453,0.197364330291748,-0.1098487377166748,2023-10-21T15:28:22.069072Z,1697902102069,0.3132206661202228,168
0.2386646270751953,0.2154617309570312,-0.1238713264465332,2023-10-21T15:28:22.089243Z,1697902102089,0.3445702645899174,169
0.2520666122436523,0.2250237464904785,-0.1342239379882812,2023-10-21T15:28:22.109424Z,1697902102109,0.363578504619958,170
0.256601333618164,0.2257170677185058,-0.1399228572845459,2023-10-21T15:28:22.131410Z,1697902102131,0.3692842334364307,171
0.2532973289489746,0.2186083793640136,-0.140881061553955,2023-10-21T15:28:22.150132Z,1697902102150,0.3630380612076574,172
0.245607852935791,0.2068581581115722,-0.1386611461639404,2023-10-21T15:28:22.170320Z,1697902102170,0.3497719663674306,173
0.2385916709899902,0.1949529647827148,-0.1361274719238281,2023-10-21T15:28:22.190546Z,1697902102190,0.3368431868922671,174
0.2377610206604004,0.1874313354492187,-0.1365442276000976,2023-10-21T15:28:22.214775Z,1697902102214,0.3321221681018299,175
0.2476277351379394,0.1875019073486328,-0.1425414085388183,2023-10-21T15:28:22.231456Z,1697902102231,0.3417521230616586,176
0.2720236778259277,0.1972403526306152,-0.1560916900634765,2023-10-21T15:28:22.251424Z,1697902102251,0.370493257307965,177
0.3125243186950683,0.2165784835815429,-0.1776037216186523,2023-10-21T15:28:22.271661Z,1697902102271,0.4196674531806023,178
0.3668889999389648,0.2426199913024902,-0.2050442695617675,2023-10-21T15:28:22.298142Z,1697902102298,0.4852990324902296,179
0.4308919906616211,0.2714028358459472,-0.2353200912475586,2023-10-21T15:28:22.314867Z,1697902102314,0.5609839144452504,180
0.500730037689209,0.2997694015502929,-0.265845775604248,2023-10-21T15:28:22.332475Z,1697902102332,0.6413004297181483,181
0.5748772621154785,0.3266587257385254,-0.2956900596618652,2023-10-21T15:28:22.352776Z,1697902102352,0.7243082223620986,182
0.6523828506469727,0.3517518043518066,-0.3243603706359863,2023-10-21T15:28:22.372948Z,1697902102372,0.8090379260097368,183
0.7308769226074219,0.3740758895874023,-0.3505563735961914,2023-10-21T15:28:22.398427Z,1697902102398,0.8927505912849424,184
0.8055229187011719,0.3917868137359619,-0.3718647956848144,2023-10-21T15:28:22.415099Z,1697902102415,0.9698698398444716,185
0.869633674621582,0.4026453495025635,-0.3853702545166015,2023-10-21T15:28:22.433763Z,1697902102433,1.0329066940329448,186
0.9171371459960938,0.4049501419067383,-0.3892216682434082,2023-10-21T15:28:22.454057Z,1697902102453,1.0754620723327857,187
0.9472322463989258,0.3993937969207763,-0.3843474388122558,2023-10-21T15:28:22.474287Z,1697902102474,1.0974913609492742,188
0.9659156799316406,0.3895249366760254,-0.3746187686920166,2023-10-21T15:28:22.498075Z,1697902102497,1.10682518894656,189
0.9803543090820312,0.379288911819458,-0.3638010025024414,2023-10-21T15:28:22.514797Z,1697902102514,1.1123424919451188,190
0.9929847717285156,0.3707211017608642,-0.3533401489257812,2023-10-21T15:28:22.535057Z,1697902102535,1.117274430486268,191
0.999887466430664,0.3630316257476806,-0.3418865203857422,2023-10-21T15:28:22.555385Z,1697902102555,1.1173420692158722,192
0.9973974227905272,0.3550534248352051,-0.3281559944152832,2023-10-21T15:28:22.575581Z,1697902102575,1.1084001579515756,193
0.9857063293457032,0.3466253280639648,-0.3123810291290283,2023-10-21T15:28:22.599127Z,1697902102599,1.0905723236573273,194
0.968719482421875,0.3384487628936767,-0.2960855960845947,2023-10-21T15:28:22.616152Z,1697902102616,1.068003595938111,195
0.9509925842285156,0.3314352035522461,-0.2809462547302246,2023-10-21T15:28:22.646114Z,1697902102646,1.045546262705907,196
0.9340591430664062,0.325735330581665,-0.267287015914917,2023-10-21T15:28:22.656676Z,1697902102656,1.024701096521223,197
0.916818618774414,0.3207356929779053,-0.2542636394500732,2023-10-21T15:28:22.698822Z,1697902102698,1.0040307579092576,198
0.8975105285644531,0.3154466152191162,-0.2406837940216064,2023-10-21T15:28:22.701316Z,1697902102701,0.981305459396755,199
0.1837038993835449,0.1826953887939453,-0.0650115013122558,2023-10-21T15:37:35.523605Z,1697902655523,0.2671164971284325,200
0.1778230667114257,0.1734895706176757,-0.060544729232788,2023-10-21T15:37:35.543937Z,1697902655543,0.2557055697587231,201
0.1758904457092285,0.1688871383666992,-0.0577352046966552,2023-10-21T15:37:35.564092Z,1697902655564,0.2505866482054627,202
0.1773481369018554,0.1681013107299804,-0.0561637878417968,2023-10-21T15:37:35.587085Z,1697902655587,0.250728505352772,203
0.1793556213378906,0.1682939529418945,-0.0547597408294677,2023-10-21T15:37:35.604624Z,1697902655604,0.2519720673368774,204
0.1776022911071777,0.1653966903686523,-0.0521786212921142,2023-10-21T15:37:35.624978Z,1697902655624,0.2482362735608323,205
0.1682448387145996,0.1558837890625,-0.0474636554718017,2023-10-21T15:37:35.645219Z,1697902655645,0.2342197259782564,206
0.1503987312316894,0.1389408111572265,-0.0406852960586547,2023-10-21T15:37:35.665435Z,1697902655665,0.2087573248451666,207
0.1255459785461425,0.1158704757690429,-0.0325657129287719,2023-10-21T15:37:35.686685Z,1697902655686,0.1739203425209714,208
0.0958528518676757,0.0885295867919921,-0.0238800048828125,2023-10-21T15:37:35.705971Z,1697902655705,0.1326480741734707,209
0.0629630088806152,0.0582804679870605,-0.0151129961013793,2023-10-21T15:37:35.726319Z,1697902655726,0.0871169104551551,210
0.0280146598815917,0.0260248184204101,-0.0065131187438964,2023-10-21T15:37:35.746521Z,1697902655746,0.0387883108406214,211
-0.0072503089904785,-0.0067710876464843,0.0016430616378784,2023-10-21T15:37:35.766817Z,1697902655766,0.01005555865776,212
-0.0392313003540039,-0.0368847846984863,0.00877046585083,2023-10-21T15:37:35.787038Z,1697902655786,0.0545573399366238,213
-0.0627737045288086,-0.0595226287841796,0.0140111446380615,2023-10-21T15:37:35.807315Z,1697902655807,0.0876344309716112,214
-0.0729780197143554,-0.0698909759521484,0.0164978504180908,2023-10-21T15:37:35.827555Z,1697902655827,0.1023851500433062,215
-0.0677871704101562,-0.0656328201293945,0.0157181024551391,2023-10-21T15:37:35.847828Z,1697902655847,0.0956547243744043,216
-0.0495309829711914,-0.0485119819641113,0.0118876695632934,2023-10-21T15:37:35.869878Z,1697902655869,0.0703423581906717,217
-0.0229430198669433,-0.0227303504943847,0.0057291984558105,2023-10-21T15:37:35.888337Z,1697902655888,0.0328005290987598,218
0.0077075958251953,0.007720947265625,-0.0020099878311157,2023-10-21T15:37:35.908633Z,1697902655908,0.0110932461959682,219
0.0399928092956543,0.0404562950134277,-0.0109028816223144,2023-10-21T15:37:35.928853Z,1697902655928,0.0579224432257675,220
0.0730261802673339,0.0744924545288086,-0.0208563804626464,2023-10-21T15:37:35.949103Z,1697902655949,0.1063810950882083,221
0.105933666229248,0.1087546348571777,-0.0317325592041015,2023-10-21T15:37:35.969783Z,1697902655969,0.1551014750327332,222
0.1375288963317871,0.1417970657348632,-0.0432357788085937,2023-10-21T15:37:35.989723Z,1697902655989,0.2022126053104558,223
0.3078317642211914,0.2470283508300781,-0.1719636917114257,2023-10-21T15:38:12.484939Z,1697902692484,0.4305286430011151,224
0.2983217239379883,0.2386660575866699,-0.1634228229522705,2023-10-21T15:38:12.505148Z,1697902692505,0.4155290087093632,225
0.2940511703491211,0.2344212532043457,-0.1577310562133789,2023-10-21T15:38:12.527535Z,1697902692527,0.4077971319562852,226
0.2944140434265136,0.2338862419128418,-0.1544744968414306,2023-10-21T15:38:12.545672Z,1697902692545,0.4065031036748361,227
0.2983088493347168,0.2362370491027832,-0.1529755592346191,2023-10-21T15:38:12.565996Z,1697902692565,0.4101190494031435,228
0.3043513298034668,0.2403607368469238,-0.1524169445037841,2023-10-21T15:38:12.586212Z,1697902692586,0.4166940613238979,229
0.3112344741821289,0.2451667785644531,-0.1520893573760986,2023-10-21T15:38:12.606427Z,1697902692606,0.4243875821206041,230
0.3181352615356445,0.2500019073486328,-0.151630163192749,2023-10-21T15:38:12.627401Z,1697902692627,0.4320910838008197,231
0.325507640838623,0.255220890045166,-0.1513116359710693,2023-10-21T15:38:12.646993Z,1697902692646,0.4404408452221638,232
0.3338966369628906,0.2612709999084472,-0.1514017581939697,2023-10-21T15:38:12.667310Z,1697902692667,0.4501910616088612,233
0.3428220748901367,0.2677688598632812,-0.1515932083129882,2023-10-21T15:38:12.687525Z,1697902692687,0.4606600027689457,234
0.3513760566711426,0.2738819122314453,-0.1512870788574218,2023-10-21T15:38:12.710677Z,1697902692710,0.4704935868622726,235
0.3592147827148437,0.2791290283203125,-0.1500627994537353,2023-10-21T15:38:12.728062Z,1697902692728,0.4790272626394098,236
0.3673887252807617,0.2841377258300781,-0.14817476272583,2023-10-21T15:38:12.748370Z,1697902692748,0.4875084440419137,237
0.3779020309448242,0.2903475761413574,-0.146289587020874,2023-10-21T15:38:12.768662Z,1697902692768,0.4985100833825953,238
0.3920936584472656,0.2987914085388183,-0.1447465419769287,2023-10-21T15:38:12.788827Z,1697902692788,0.5137755387573943,239
0.4104671478271484,0.3098502159118652,-0.1434376239776611,2023-10-21T15:38:12.810598Z,1697902692810,0.5339145884112368,240
0.4320898056030273,0.3227119445800781,-0.1415925025939941,2023-10-21T15:38:12.829410Z,1697902692829,0.5575778296090579,241
0.4545936584472656,0.3354005813598633,-0.1380822658538818,2023-10-21T15:38:12.849685Z,1697902692849,0.5815631147350608,242
0.4762377738952636,0.3463892936706543,-0.1323680877685547,2023-10-21T15:38:12.869885Z,1697902692869,0.6035803763492272,243
0.4963560104370117,0.3550071716308594,-0.1245045661926269,2023-10-21T15:38:12.890148Z,1697902692890,0.6228168013221091,244
0.5144562721252441,0.3608627319335937,-0.1148591041564941,2023-10-21T15:38:12.910548Z,1697902692910,0.6388112248819775,245
0.5297927856445312,0.3635497093200683,-0.1038261651992797,2023-10-21T15:38:12.930691Z,1697902692930,0.6508676205248549,246
0.540191650390625,0.3619074821472168,-0.0916067361831665,2023-10-21T15:38:12.951005Z,1697902692950,0.6566398091039086,247
0.5424661636352539,0.3541889190673828,-0.0783089399337768,2023-10-21T15:38:12.971237Z,1697902692971,0.6525730757185918,248
0.5339069366455078,0.3390250205993652,-0.0642439126968383,2023-10-21T15:38:12.993845Z,1697902692993,0.6357057982346781,249
0.5123071670532227,0.3155608177185058,-0.0498714447021484,2023-10-21T15:38:13.011739Z,1697902693011,0.6037585809658941,250
0.4770402908325195,0.2841968536376953,-0.0359045267105102,2023-10-21T15:38:13.032048Z,1697902693032,0.5564390584183017,251
0.428436279296875,0.2461719512939453,-0.0231533348560333,2023-10-21T15:38:13.052304Z,1697902693052,0.4946658993063642,252
0.3664684295654297,0.2024836540222168,-0.0122774839401245,2023-10-21T15:38:13.072481Z,1697902693072,0.4188668960734915,253
0.2912378311157226,0.1542119979858398,-0.0039469599723815,2023-10-21T15:38:13.094081Z,1697902693093,0.3295700124234582,254
0.2043714523315429,0.1032547950744628,0.00123767927289,2023-10-21T15:38:13.113136Z,1697902693113,0.228977673767457,255
0.1089611053466796,0.0522246360778808,0.0027838945388793,2023-10-21T15:38:13.133434Z,1697902693133,0.1208622569731382,256
0.0079975128173828,0.0036091804504394,0.0003609061241149,2023-10-21T15:38:13.153682Z,1697902693153,0.0087816085097469,257
-0.0958900451660156,-0.0403518676757812,-0.0062390565872192,2023-10-21T15:38:13.173785Z,1697902693173,0.1042213980618317,258
-0.2006521224975586,-0.0778536796569824,-0.0170164108276367,2023-10-21T15:38:13.194180Z,1697902693194,0.215898188821403,259
-0.3038291931152344,-0.1072754859924316,-0.0315070152282714,2023-10-21T15:38:13.214459Z,1697902693214,0.3237482053889431,260
-0.4034805297851562,-0.1276416778564453,-0.0487473011016845,2023-10-21T15:38:13.234767Z,1697902693234,0.4259873650783755,261
-0.4984798431396484,-0.1385669708251953,-0.0675187110900878,2023-10-21T15:38:13.254953Z,1697902693254,0.5217678945349797,262
-0.5881175994873047,-0.1400187015533447,-0.0865898132324218,2023-10-21T15:38:13.277005Z,1697902693276,0.6107252601350464,263
-0.6710147857666016,-0.1319966316223144,-0.1047043800354003,2023-10-21T15:38:13.295472Z,1697902693295,0.6918431619056683,264
-0.7469844818115234,-0.1150308847427368,-0.120776891708374,2023-10-21T15:38:13.315774Z,1697902693315,0.765378976770765,265
-0.816925048828125,-0.0900052785873413,-0.1337847709655761,2023-10-21T15:38:13.336010Z,1697902693335,0.8326859254957604,266
-0.8813295364379883,-0.0578945875167846,-0.1425750255584716,2023-10-21T15:38:13.356270Z,1697902693356,0.8946626028703428,267
-0.9410762786865234,-0.0197982043027877,-0.1463801860809326,2023-10-21T15:38:13.376891Z,1697902693376,0.952598388659764,268
-0.996530532836914,0.0233862698078155,-0.1448849439620971,2023-10-21T15:38:13.396836Z,1697902693396,1.0072793393486474,269
-1.046709060668945,0.0709579586982727,-0.1382373571395874,2023-10-21T15:38:13.417146Z,1697902693417,1.05817978458201,270
-1.0897178649902344,0.1221004724502563,-0.1269332766532898,2023-10-21T15:38:13.437353Z,1697902693437,1.103859414678061,271
-1.1221551895141602,0.1753783226013183,-0.1114950180053711,2023-10-21T15:38:13.460303Z,1697902693460,1.1412365944150369,272
-1.142181396484375,0.228905439376831,-0.0925184488296508,2023-10-21T15:38:13.477809Z,1697902693477,1.1685613830797,273
-1.1503582000732422,0.2809240818023681,-0.0706541538238525,2023-10-21T15:38:13.498157Z,1697902693498,1.1862690831614966,274
-1.1462669372558594,0.3295252323150635,-0.046388179063797,2023-10-21T15:38:13.518426Z,1697902693518,1.1935939985334545,275
-1.1283035278320312,0.3726003170013428,-0.0204938948154449,2023-10-21T15:38:13.538670Z,1697902693538,1.1884106389932796,276
-1.0951642990112305,0.4082748889923095,0.0058813579380512,2023-10-21T15:38:13.560193Z,1697902693560,1.1688061503866405,277
-1.0469388961791992,0.4351186752319336,0.0315797924995422,2023-10-21T15:38:13.579158Z,1697902693579,1.1341986585968205,278
-0.9845514297485352,0.4519686698913574,0.0555900335311889,2023-10-21T15:38:13.599486Z,1697902693599,1.084761470652072,279
-0.9098734855651855,0.4580228328704834,0.0772255659103393,2023-10-21T15:38:13.619716Z,1697902693619,1.02157645978919,280
-0.8250799179077148,0.4527845382690429,0.0959865450859069,2023-10-21T15:38:13.639890Z,1697902693639,0.9460360066443776,281
-0.7324576377868652,0.4362239837646484,0.1114046573638916,2023-10-21T15:38:13.660196Z,1697902693660,0.8597654057044753,282
-0.6329598426818848,0.4078927040100097,0.1225056648254394,2023-10-21T15:38:13.680572Z,1697902693680,0.7629038329611385,283
-0.5250787734985352,0.3657989501953125,0.1270102262496948,2023-10-21T15:38:13.700787Z,1697902693700,0.6524171885494108,284
-0.4071722030639648,0.3071565628051758,0.1215167045593261,2023-10-21T15:38:13.721050Z,1697902693721,0.5243097047635215,285
-0.2780556678771972,0.2280421257019043,0.1014597415924072,2023-10-21T15:38:13.743356Z,1697902693743,0.373647219576535,286
-0.1364617347717285,0.1223282814025878,0.0604922771453857,2023-10-21T15:38:13.761525Z,1697902693761,0.1929904896155622,287
0.0179181098937988,-0.0176558494567871,-0.0095984935760498,2023-10-21T15:38:13.781840Z,1697902693781,0.026924315425586,288
0.1820287704467773,-0.1980872154235839,-0.117199420928955,2023-10-21T15:38:13.802152Z,1697902693802,0.2934428776622756,289
0.3491783142089844,-0.4210405349731445,-0.2685561180114746,2023-10-21T15:38:13.822375Z,1697902693822,0.6093627948321861,290
0.5111923217773438,-0.6838655471801758,-0.466707706451416,2023-10-21T15:38:13.843328Z,1697902693843,0.9730394440747476,291
0.6607389450073242,-0.9795584678649902,-0.7113132476806641,2023-10-21T15:38:13.862877Z,1697902693862,1.3791581786515326,292
0.7918968200683594,-1.295464038848877,-0.9971694946289062,2023-10-21T15:38:13.883172Z,1697902693883,1.816500660777059,293
0.9003391265869141,-1.6123061180114746,-1.3125510215759275,2023-10-21T15:38:13.903419Z,1697902693903,2.2655974367218303,294
0.9841680526733398,-1.9056034088134768,-1.6381654739379885,2023-10-21T15:38:13.926587Z,1697902693926,2.698795514222382,295
1.0453143119812012,-2.150893211364746,-1.949148654937744,2023-10-21T15:38:13.943872Z,1697902693943,3.085158682559667,296
1.0890929698944092,-2.329484939575196,-2.2202157974243164,2023-10-21T15:38:13.964196Z,1697902693964,3.3973492266638665,297
1.1227951049804688,-2.435375690460205,-2.434734344482422,2023-10-21T15:38:13.984481Z,1697902693984,3.622106421635741,298
1.1510224342346191,-2.47293758392334,-2.5861740112304688,2023-10-21T15:38:14.004735Z,1697902694004,3.758798871242765,299
1.1737005710601809,-2.4510622024536133,-2.6749634742736816,2023-10-21T15:38:14.026554Z,1697902694026,3.81322809958991,300
1.1867871284484863,-2.374201774597168,-2.697560310363769,2023-10-21T15:38:14.045241Z,1697902694045,3.784458928671471,301
1.1893296241760254,-2.2485485076904297,-2.658576011657715,2023-10-21T15:38:14.065519Z,1697902694065,3.679470309180574,302
1.1758320331573486,-2.0770182609558105,-2.5559096336364746,2023-10-21T15:38:14.085788Z,1697902694085,3.4970358708281197,303
1.1354484558105469,-1.86396598815918,-2.384565830230713,2023-10-21T15:38:14.105971Z,1697902694105,3.232609874315284,304
1.0587196350097656,-1.6185364723205566,-2.1440882682800293,2023-10-21T15:38:14.126419Z,1697902694126,2.88750100951725,305
0.9421954154968262,-1.3519434928894043,-1.841334342956543,2023-10-21T15:38:14.146554Z,1697902694146,2.471031276916673,306
0.7955303192138672,-1.079695701599121,-1.5005760192871094,2023-10-21T15:38:14.166868Z,1697902694166,2.0125455737696187,307
0.6258411407470703,-0.8069233894348145,-1.1398553848266602,2023-10-21T15:38:14.187134Z,1697902694187,1.530383216121667,308
0.4336256980895996,-0.5306825637817383,-0.7625942230224609,2023-10-21T15:38:14.209671Z,1697902694209,1.0252829748576158,309
0.2147984504699707,-0.2474408149719238,-0.3639993667602539,2023-10-21T15:38:14.227569Z,1697902694227,0.4897559292547014,310
-0.0347771644592285,0.0370674133300781,0.0564384460449218,2023-10-21T15:38:14.247904Z,1697902694247,0.0759522382209545,311
-0.3283205032348633,0.3160009384155273,0.5044455528259277,2023-10-21T15:38:14.268156Z,1697902694268,0.6797913368745909,312
-0.6777973175048828,0.5696535110473633,0.9695982933044434,2023-10-21T15:38:14.288394Z,1697902694288,1.3130252003081635,313
-1.0917625427246094,0.7613263130187988,1.4193673133850098,2023-10-21T15:38:14.309599Z,1697902694309,1.9458074865970385,314
-1.570368766784668,0.8400027751922607,1.8009309768676758,2023-10-21T15:38:14.329068Z,1697902694329,2.532788011157874,315
-2.090373039245605,0.754906177520752,2.052706718444824,2023-10-21T15:38:14.349204Z,1697902694349,3.025416938541268,316
-2.602978229522705,0.4863628149032593,2.131441593170166,2023-10-21T15:38:14.369452Z,1697902694369,3.399277528561849,317
-3.0263547897338867,0.0616434067487716,2.00715708732605,2023-10-21T15:38:14.392974Z,1697902694392,3.6319833144088127,318
-3.2603564262390137,-0.4341940879821777,1.6869049072265625,2023-10-21T15:38:14.410009Z,1697902694409,3.6964978964124633,319
-3.2429895401000977,-0.874758243560791,1.2425260543823242,2023-10-21T15:38:14.430250Z,1697902694430,3.581348089434356,320
-3.0025463104248047,-1.162851333618164,0.7934110164642334,2023-10-21T15:38:14.450595Z,1697902694450,3.316173790890634,321
-2.6321897506713867,-1.2794721126556396,0.4307650923728943,2023-10-21T15:38:14.470806Z,1697902694470,2.95821404489432,322
-2.2216997146606445,-1.2639586925506592,0.1828911304473877,2023-10-21T15:38:14.492677Z,1697902694492,2.562613970966732,323
-1.830898761749268,-1.1713581085205078,0.0356908738613128,2023-10-21T15:38:14.511292Z,1697902694511,2.173831624723665,324
-1.4834232330322266,-1.040966510772705,-0.0398894548416137,2023-10-21T15:38:14.531605Z,1697902694531,1.81266293983676,325
-1.189650058746338,-0.8989710807800293,-0.0695548951625824,2023-10-21T15:38:14.551850Z,1697902694551,1.492733783966537,326
-0.9450664520263672,-0.7557621002197266,-0.0734826326370239,2023-10-21T15:38:14.572113Z,1697902694572,1.2123228316638706,327
-0.7333106994628906,-0.609675407409668,-0.062121033668518,2023-10-21T15:38:14.592694Z,1697902694592,0.9556713384689024,328
-0.5274958610534668,-0.4483203887939453,-0.0412266254425048,2023-10-21T15:38:14.612597Z,1697902694612,0.6935003165696965,329
-0.3059725761413574,-0.2624273300170898,-0.0179332196712493,2023-10-21T15:38:14.632922Z,1697902694632,0.4034958751440398,330
-0.0522351264953613,-0.0448627471923828,-0.0014957785606384,2023-10-21T15:38:14.653210Z,1697902694653,0.0688724319240762,331
0.2301263809204101,0.1977334022521972,-0.0013779923319816,2023-10-21T15:38:14.676071Z,1697902694675,0.3034115166314916,332
0.5249085426330566,0.4516487121582031,-0.0208438634872436,2023-10-21T15:38:14.693596Z,1697902694693,0.6927842405600735,333
0.8218832015991211,0.7076311111450195,-0.0577266216278076,2023-10-21T15:38:14.713969Z,1697902694713,1.086078334824757,334
1.1143321990966797,0.9575042724609376,-0.1082519888877868,2023-10-21T15:38:14.734264Z,1697902694734,1.4731833473206086,335
1.4010090827941897,1.1983585357666016,-0.1694867610931396,2023-10-21T15:38:14.754470Z,1697902694754,1.8513820223018085,336
1.6736469268798828,1.4248552322387695,-0.2406588792800903,2023-10-21T15:38:14.775838Z,1697902694775,2.211158783278357,337
1.914752960205078,1.6269874572753906,-0.3186014890670776,2023-10-21T15:38:14.794978Z,1697902694794,2.53276015318887,338
2.096728801727295,1.7866802215576172,-0.3960062265396118,2023-10-21T15:38:14.815292Z,1697902694815,2.7830412885108435,339
2.205821990966797,1.8933405876159668,-0.4654924869537353,2023-10-21T15:38:14.835543Z,1697902694835,2.943989213967516,340
2.24380111694336,1.9433937072753904,-0.520857572555542,2023-10-21T15:38:14.855736Z,1697902694855,3.0137543305256824,341
2.2340478897094727,1.9463238716125488,-0.5639312267303467,2023-10-21T15:38:14.876036Z,1697902694876,3.0161506950425743,342
2.196827888488769,1.914466381072998,-0.599632740020752,2023-10-21T15:38:14.896276Z,1697902694896,2.9750283559666384,343
2.1379337310791016,1.853510856628418,-0.6291508674621582,2023-10-21T15:38:14.916618Z,1697902694916,2.8986365671041976,344
2.055774211883545,1.7668118476867676,-0.6521801948547363,2023-10-21T15:38:14.936850Z,1697902694936,2.7880406600213887,345
1.9559497833251955,1.66290283203125,-0.6693449020385742,2023-10-21T15:38:14.959171Z,1697902694959,2.653112885188352,346
1.8460626602172847,1.551553726196289,-0.6816136837005615,2023-10-21T15:38:14.977335Z,1697902694977,2.5059655872597206,347
1.7296819686889648,1.437733173370361,-0.6877617835998535,2023-10-21T15:38:14.997669Z,1697902694997,2.3519975896241463,348
1.613637924194336,1.326639175415039,-0.6871812343597412,2023-10-21T15:38:15.017962Z,1697902695017,2.199094563905854,349
1.5016183853149414,1.2207436561584473,-0.679668664932251,2023-10-21T15:38:15.038198Z,1697902695038,2.051102713970642,350
1.3986587524414062,1.124715805053711,-0.6683797836303711,2023-10-21T15:38:15.058936Z,1697902695058,1.915192805720706,351
1.2959117889404297,1.0343379974365234,-0.651735782623291,2023-10-21T15:38:15.078638Z,1697902695078,1.781572897191517,352
1.182809352874756,0.9425287246704102,-0.6258316040039062,2023-10-21T15:38:15.098961Z,1697902695098,1.6367845180862786,353
1.0550689697265625,0.8444399833679199,-0.5875744819641113,2023-10-21T15:38:15.119256Z,1697902695119,1.4735987202239549,354
0.9224305152893066,0.744652271270752,-0.5402722358703613,2023-10-21T15:38:15.142500Z,1697902695142,1.3027966646787,355
0.7951507568359375,0.6488795280456543,-0.4886503219604492,2023-10-21T15:38:15.159670Z,1697902695159,1.13670071046233,356
0.6836099624633789,0.5637593269348145,-0.4389171600341797,2023-10-21T15:38:15.180031Z,1697902695179,0.988835392195105,357
0.5952873229980469,0.4947719573974609,-0.3971338272094726,2023-10-21T15:38:15.200277Z,1697902695200,0.8699894042246372,358
0.5275802612304688,0.440403938293457,-0.3638086318969726,2023-10-21T15:38:15.220554Z,1697902695220,0.7775945483008119,359
0.473818302154541,0.395761489868164,-0.3361883163452148,2023-10-21T15:38:15.242199Z,1697902695242,0.7029605425387053,360
0.4231452941894531,0.3523941040039062,-0.3075180053710937,2023-10-21T15:38:15.261053Z,1697902695261,0.6307145694835428,361
0.3783826828002929,0.3124194145202636,-0.2798495292663574,2023-10-21T15:38:15.281385Z,1697902695281,0.5648850363064446,362
0.3472285270690918,0.2822809219360351,-0.2592663764953613,2023-10-21T15:38:15.301607Z,1697902695301,0.5171742674192746,363
0.3349003791809082,0.2665653228759765,-0.2506523132324219,2023-10-21T15:38:15.321838Z,1697902695321,0.496026125788001,364
0.334388256072998,0.260101318359375,-0.2497897148132324,2023-10-21T15:38:15.342479Z,1697902695342,0.4917957942462519,365
0.3358049392700195,0.2556338310241699,-0.2499475479125976,2023-10-21T15:38:15.362427Z,1697902695362,0.4904970840991367,366
0.3330492973327636,0.2488927841186523,-0.2468957901000976,2023-10-21T15:38:15.382679Z,1697902695382,0.4835565981447602,367
0.3266959190368652,0.2404899597167968,-0.2410836219787597,2023-10-21T15:38:15.402930Z,1697902695402,0.4718971890426198,368
0.3202714920043945,0.2329654693603515,-0.2349128723144531,2023-10-21T15:38:15.425457Z,1697902695425,0.4604680185246705,369
0.3152899742126465,0.2273106575012207,-0.2293181419372558,2023-10-21T15:38:15.443398Z,1697902695443,0.4512922701245878,370
0.3089752197265625,0.2214360237121582,-0.222330093383789,2023-10-21T15:38:15.463771Z,1697902695463,0.440375146240763,371
0.2972297668457031,0.2122511863708496,-0.2111954689025879,2023-10-21T15:38:15.484001Z,1697902695483,0.4219000195543586,372
0.2800159454345703,0.1994214057922363,-0.1961474418640136,2023-10-21T15:38:15.504254Z,1697902695504,0.3957924275874471,373
0.2610659599304199,0.1853799819946289,-0.1800055503845214,2023-10-21T15:38:15.525498Z,1697902695525,0.3673188959582055,374
0.2450861930847168,0.1733241081237793,-0.1660466194152832,2023-10-21T15:38:15.544733Z,1697902695544,0.3430451403487689,375
0.2336087226867675,0.1643223762512207,-0.1552615165710449,2023-10-21T15:38:15.565040Z,1697902695564,0.3250861688539388,376
0.2239971160888672,0.1566672325134277,-0.1458721160888672,2023-10-21T15:38:15.585304Z,1697902695585,0.3098354466677268,377
0.2118639945983886,0.1475138664245605,-0.1351523399353027,2023-10-21T15:38:15.608677Z,1697902695608,0.2913980919372959,378
0.1950817108154297,0.1355681419372558,-0.121983528137207,2023-10-21T15:38:15.625775Z,1697902695625,0.2670497634146034,379
0.1758551597595214,0.1223726272583007,-0.1079087257385253,2023-10-21T15:38:15.646118Z,1697902695646,0.2398841182876808,380
0.1588888168334961,0.1110825538635253,-0.0957622528076171,2023-10-21T15:38:15.666395Z,1697902695666,0.2162299677435605,381
0.1477923393249511,0.1041703224182128,-0.0875358581542968,2023-10-21T15:38:15.686595Z,1697902695686,0.20088941758755,382
0.1433992385864257,0.1023101806640625,-0.083470344543457,2023-10-21T15:38:15.708755Z,1697902695708,0.1949307905716364,383
0.1449689865112304,0.1051239967346191,-0.0828452110290527,2023-10-21T15:38:15.727143Z,1697902695727,0.1973078577502725,384
0.1518073081970214,0.1122541427612304,-0.0849547386169433,2023-10-21T15:38:15.747383Z,1697902695747,0.2070356466953391,385
0.1644144058227539,0.1242060661315918,-0.0897591114044189,2023-10-21T15:38:15.767693Z,1697902695767,0.2247575177520108,386
0.1832742691040039,0.1414752006530761,-0.0971605777740478,2023-10-21T15:38:15.787901Z,1697902695787,0.2510873712252804,387
0.2079067230224609,0.1637992858886718,-0.1065649986267089,2023-10-21T15:38:15.808660Z,1697902695808,0.2853270237252118,388
0.2365989685058593,0.1898918151855468,-0.1168062686920166,2023-10-21T15:38:15.828426Z,1697902695828,0.3250871848877621,389
0.2669205665588379,0.2177023887634277,-0.12652587890625,2023-10-21T15:38:15.848796Z,1697902695848,0.3669464769668632,390
0.2963943481445312,0.2449831962585449,-0.1345815658569336,2023-10-21T15:38:15.869011Z,1697902695868,0.4074046807899713,391
0.3223552703857422,0.2692875862121582,-0.139967679977417,2023-10-21T15:38:15.891943Z,1697902695891,0.4427410934978772,392
0.3405389785766601,0.2869696617126465,-0.1413600444793701,2023-10-21T15:38:15.909465Z,1697902695909,0.4672269735885496,393
0.3481230735778808,0.2956314086914062,-0.1384532451629638,2023-10-21T15:38:15.929789Z,1697902695929,0.4772388346083454,394
0.3441686630249023,0.2944178581237793,-0.1318495273590088,2023-10-21T15:38:15.950061Z,1697902695949,0.4717183923225133,395
0.3305153846740722,0.2848000526428222,-0.1229288578033447,2023-10-21T15:38:15.970310Z,1697902695970,0.4532802594118115,396
0.3103928565979004,0.2695851325988769,-0.1131446361541748,2023-10-21T15:38:15.991731Z,1697902695991,0.4264054148762881,397
0.2861309051513672,0.2509317398071289,-0.1032204627990722,2023-10-21T15:38:16.010867Z,1697902696010,0.3943248620944766,398
0.2597818374633789,0.2305402755737304,-0.0935513973236084,2023-10-21T15:38:16.031132Z,1697902696031,0.3597044421169422,399
0.4361476898193359,0.309730052947998,-0.3218050003051758,2023-10-21T15:28:41.867798Z,1697902121867,0.6242723534286356,400
0.4367818832397461,0.3097000122070312,-0.324228286743164,2023-10-21T15:28:41.887275Z,1697902121887,0.6259524686522946,401
0.4319586753845215,0.3058629035949707,-0.322115421295166,2023-10-21T15:28:41.907483Z,1697902121907,0.6195956404556596,402
0.4229459762573242,0.2989354133605957,-0.3163051605224609,2023-10-21T15:28:41.927690Z,1697902121927,0.6068728324504822,403
0.4104866981506347,0.2892794609069824,-0.3073110580444336,2023-10-21T15:28:41.951134Z,1697902121951,0.5887461441552155,404
0.395139217376709,0.2772536277770996,-0.2955689430236816,2023-10-21T15:28:41.968306Z,1697902121968,0.5660084586865968,405
0.3765096664428711,0.2627444267272949,-0.2809805870056152,2023-10-21T15:28:41.988593Z,1697902121988,0.5382789731869498,406
0.3543581962585449,0.2457938194274902,-0.2635765075683594,2023-10-21T15:28:42.008758Z,1697902122008,0.5054274510414888,407
0.330573558807373,0.2277870178222656,-0.2448821067810058,2023-10-21T15:28:42.028987Z,1697902122028,0.4702478596362101,408
0.3082776069641113,0.210878849029541,-0.2272400856018066,2023-10-21T15:28:42.051040Z,1697902122050,0.437199071851553,409
0.2904701232910156,0.1971125602722168,-0.2128963470458984,2023-10-21T15:28:42.069615Z,1697902122069,0.4105497637647033,410
0.2774653434753418,0.1867313385009765,-0.2020974159240722,2023-10-21T15:28:42.089839Z,1697902122089,0.3907671622992944,411
0.2669992446899414,0.1782655715942382,-0.1931877136230468,2023-10-21T15:28:42.110105Z,1697902122110,0.3746848053707542,412
0.2565464973449707,0.1701021194458007,-0.1843509674072265,2023-10-21T15:28:42.134309Z,1697902122134,0.3587981542927817,413
0.2448949813842773,0.1615009307861328,-0.1747632026672363,2023-10-21T15:28:42.150894Z,1697902122150,0.341464902381639,414
0.2318868637084961,0.1523604393005371,-0.164344310760498,2023-10-21T15:28:42.170984Z,1697902122170,0.3224814312542017,415
0.2188701629638672,0.14347505569458,-0.1540193557739257,2023-10-21T15:28:42.191165Z,1697902122191,0.3036629740277989,416
0.2072944641113281,0.1357011795043945,-0.1447920799255371,2023-10-21T15:28:42.211339Z,1697902122211,0.2869678577458627,417
0.1970100402832031,0.1288962364196777,-0.1365680694580078,2023-10-21T15:28:42.234139Z,1697902122234,0.2721728004982018,418
0.1870646476745605,0.1224541664123535,-0.1287460327148437,2023-10-21T15:28:42.252024Z,1697902122251,0.2579995081800805,419
0.1762022972106933,0.115570068359375,-0.1204714775085449,2023-10-21T15:28:42.272278Z,1697902122272,0.2427283813978248,420
0.1647396087646484,0.108438491821289,-0.1119709014892578,2023-10-21T15:28:42.292429Z,1697902122292,0.2267940210515309,421
0.1541523933410644,0.1019878387451171,-0.1042513847351074,2023-10-21T15:28:42.317538Z,1697902122317,0.2122094032880391,422
0.6660623550415039,0.3814845085144043,-0.2219030857086181,2023-10-21T15:28:46.385854Z,1697902126385,0.7990059264404222,423
0.7608280181884766,0.4202508926391601,-0.2511610984802246,2023-10-21T15:28:46.405982Z,1697902126405,0.9047386271263148,424
0.8507566452026367,0.4529447555541992,-0.2782621383666992,2023-10-21T15:28:46.426446Z,1697902126426,1.0031827543318848,425
0.9343318939208984,0.4793391227722168,-0.3029341697692871,2023-10-21T15:28:46.447629Z,1697902126447,1.09293695784874,426
1.0103158950805664,0.4995203018188476,-0.3250007629394531,2023-10-21T15:28:46.466837Z,1697902126466,1.172980918724966,427
1.0765514373779297,0.5131816864013672,-0.3435707092285156,2023-10-21T15:28:46.487068Z,1697902126487,1.2411121113009989,428
1.130258560180664,0.5197830200195312,-0.3576185703277588,2023-10-21T15:28:46.507312Z,1697902126507,1.29443031585542,429
1.170598030090332,0.5196573734283447,-0.3669250011444092,2023-10-21T15:28:46.531247Z,1697902126531,1.3322828116712444,430
1.1983537673950195,0.5139181613922119,-0.3720548152923584,2023-10-21T15:28:46.547863Z,1697902126547,1.3559455792991173,431
1.216334342956543,0.5044620037078857,-0.3741047382354736,2023-10-21T15:28:46.570186Z,1697902126570,1.3689066813376038,432
1.2275972366333008,0.4932217597961426,-0.3741884231567383,2023-10-21T15:28:46.588406Z,1697902126588,1.3748744145377956,433
1.2337522506713867,0.4816677570343017,-0.3728871345520019,2023-10-21T15:28:46.608590Z,1697902126608,1.3759335955334364,434
1.233480453491211,0.4699330329895019,-0.369922399520874,2023-10-21T15:28:46.647812Z,1697902126647,1.370822259195873,435
1.2239866256713867,0.4571175575256347,-0.3642983436584472,2023-10-21T15:28:46.649723Z,1697902126649,1.356397067385844,436
1.2022457122802734,0.4418094158172607,-0.3546955585479736,2023-10-21T15:28:46.669466Z,1697902126669,1.3290595366102869,437
1.1648626327514648,0.4223203659057617,-0.33974289894104,2023-10-21T15:28:46.689720Z,1697902126689,1.2847897423393106,438
1.1089401245117188,0.3974404335021972,-0.3184654712677002,2023-10-21T15:28:46.716055Z,1697902126716,1.2202980596248767,439
1.0312576293945312,0.3661031723022461,-0.2903981208801269,2023-10-21T15:28:46.748132Z,1697902126748,1.1321903106655282,440
0.9282236099243164,0.3270566463470459,-0.2552525997161865,2023-10-21T15:28:46.750577Z,1697902126750,1.0167197301137507,441
0.7964286804199219,0.2790875434875488,-0.2130830287933349,2023-10-21T15:28:46.831334Z,1697902126831,0.8703981141323054,442
0.6341276168823242,0.2213706970214843,-0.164297342300415,2023-10-21T15:28:46.833956Z,1697902126833,0.6914596421192009,443
0.4442691802978515,0.1546003818511963,-0.1107580661773681,2023-10-21T15:28:46.835738Z,1697902126835,0.4832636256272665,444
0.2338924407958984,0.0811090469360351,-0.0556583404541015,2023-10-21T15:28:46.837379Z,1697902126837,0.2537364818437417,445
0.0115060806274414,0.0039749145507812,-0.0025920867919921,2023-10-21T15:28:46.851866Z,1697902126851,0.0124462344115967,446
-0.2133502960205078,-0.0735697746276855,0.0452620983123779,2023-10-21T15:28:46.872105Z,1697902126872,0.2301728005096304,447
-0.4304151535034179,-0.1488873958587646,0.0858007669448852,2023-10-21T15:28:46.898815Z,1697902126898,0.4634505719268299,448
-0.6297636032104492,-0.2204065322875976,0.1180579662322998,2023-10-21T15:28:46.914687Z,1697902126914,0.6775831452999393,449
-0.804936408996582,-0.2879624366760254,0.1420211791992187,2023-10-21T15:28:46.932914Z,1697902126932,0.866611217793679,450
-0.9512214660644532,-0.3512258529663086,0.1578459739685058,2023-10-21T15:28:46.962920Z,1697902126962,1.026205256657646,451
-1.063751220703125,-0.4083874225616455,0.1655417680740356,2023-10-21T15:28:46.973270Z,1697902126973,1.151412620840596,452
-1.137303352355957,-0.4562673568725586,0.1655846834182739,2023-10-21T15:28:47.014473Z,1697902127014,1.2365504856698326,453
-1.168832778930664,-0.4918136596679687,0.1592755317687988,2023-10-21T15:28:47.016698Z,1697902127016,1.278052986365985,454
-1.161245346069336,-0.5140120983123779,0.1485767364501953,2023-10-21T15:28:47.047702Z,1697902127047,1.278582902119912,455
-1.122584342956543,-0.523822546005249,0.1352455615997314,2023-10-21T15:28:47.054513Z,1697902127054,1.246144866653561,456
-1.0632662773132324,-0.5232036113739014,0.1203886866569519,2023-10-21T15:28:47.082269Z,1697902127082,1.19112158544005,457
-0.9947338104248048,-0.5150187015533447,0.1049984693527221,2023-10-21T15:28:47.128282Z,1697902127128,1.125061907238157,458
-0.926128387451172,-0.5016560554504395,0.0900319218635559,2023-10-21T15:28:47.130864Z,1697902127130,1.0571084783348623,459
-0.8618984222412109,-0.4847736358642578,0.0762055516242981,2023-10-21T15:28:47.135508Z,1697902127135,0.9918072667556456,460
-0.8022947311401367,-0.465250015258789,0.063914954662323,2023-10-21T15:28:47.155761Z,1697902127155,0.929634085940815,461
-0.7446331977844238,-0.4429779052734375,0.0532721877098083,2023-10-21T15:28:47.182126Z,1697902127182,0.8680702447305105,462
-0.6874122619628906,-0.4183974266052246,0.0442554950714111,2023-10-21T15:28:47.214312Z,1697902127214,0.8059470040460649,463
-0.6306047439575195,-0.3919839859008789,0.0366482436656951,2023-10-21T15:28:47.216737Z,1697902127216,0.7434089601748485,464
-0.5720834732055664,-0.3622293472290039,0.0300725102424621,2023-10-21T15:28:47.236884Z,1697902127236,0.6777860696275613,465
-0.5066657066345215,-0.3255138397216797,0.0243062674999237,2023-10-21T15:28:47.257092Z,1697902127257,0.6027107040443103,466
-0.427680492401123,-0.2774901390075683,0.0192371606826782,2023-10-21T15:28:47.280843Z,1697902127280,0.5101778603369983,467
-0.3297491073608398,-0.2151556015014648,0.0146452784538269,2023-10-21T15:28:47.297624Z,1697902127297,0.3940062066055786,468
-0.2113032341003418,-0.1382684707641601,0.0098832845687866,2023-10-21T15:28:47.317961Z,1697902127317,0.252715068926629,469
-0.0710563659667968,-0.0465407371520996,0.003723919391632,2023-10-21T15:28:47.338180Z,1697902127338,0.0850230259088886,470
0.0939311981201171,0.0614252090454101,-0.0058286786079406,2023-10-21T15:28:47.358360Z,1697902127358,0.1123837167069486,471
0.2832441329956054,0.1841363906860351,-0.0216385126113891,2023-10-21T15:28:47.380735Z,1697902127380,0.3385286907772303,472
0.490386962890625,0.3148713111877441,-0.047321081161499,2023-10-21T15:28:47.399035Z,1697902127398,0.5846901749683105,473
0.7046785354614258,0.4439196586608886,-0.0874007940292358,2023-10-21T15:28:47.419246Z,1697902127419,0.8374218772414539,474
0.919550895690918,0.5667004585266113,-0.1477872133255005,2023-10-21T15:28:47.439565Z,1697902127439,1.090212969966308,475
1.1443729400634766,0.6919450759887695,-0.2369813919067382,2023-10-21T15:28:47.464028Z,1697902127463,1.3581375461434988,476
1.3883552551269531,0.8295998573303223,-0.3650484085083008,2023-10-21T15:28:47.480808Z,1697902127480,1.6580188715076682,477
1.6491727828979492,0.9809856414794922,-0.5392005443572998,2023-10-21T15:28:47.500322Z,1697902127500,1.993198666384138,478
1.918804168701172,1.142857551574707,-0.7662539482116699,2023-10-21T15:28:47.520519Z,1697902127520,2.361160294043228,479
2.1867899894714355,1.3141751289367676,-1.0512797832489014,2023-10-21T15:28:47.540795Z,1697902127540,2.759401368093505,480
2.450911045074463,1.5020813941955566,-1.3971199989318848,2023-10-21T15:28:47.563968Z,1697902127563,3.196116042491557,481
2.711477279663086,1.7131319046020508,-1.803096294403076,2023-10-21T15:28:47.581357Z,1697902127581,3.6794138402175807,482
2.979617118835449,1.9385008811950684,-2.2691125869750977,2023-10-21T15:28:47.601651Z,1697902127601,4.217199992129866,483
3.2589497566223145,2.171347618103028,-2.799737930297852,2023-10-21T15:28:47.621892Z,1697902127621,4.813941885106096,484
3.536290168762207,2.4056410789489746,-3.388564109802246,2023-10-21T15:28:47.647340Z,1697902127647,5.456631184590994,485
3.775902271270752,2.6250758171081543,-4.008326530456543,2023-10-21T15:28:47.663942Z,1697902127663,6.100421508593931,486
3.956504821777344,2.815756320953369,-4.624932765960693,2023-10-21T15:28:47.682714Z,1697902127682,6.706147713359217,487
4.1035261154174805,2.95825743675232,-5.233396053314209,2023-10-21T15:28:47.703010Z,1697902127702,7.2786432728124835,488
4.248504638671875,3.061115503311157,-5.854856014251709,2023-10-21T15:28:47.723150Z,1697902127723,7.854906666348605,489
4.406640529632568,3.136410713195801,-6.507606029510498,2023-10-21T15:28:47.747069Z,1697902127747,8.461943580204915,490
4.5687336921691895,3.183866024017334,-7.198703289031982,2023-10-21T15:28:47.763882Z,1697902127763,9.1011900019928,491
4.714960098266602,3.2002391815185547,-7.926304817199707,2023-10-21T15:28:47.784001Z,1697902127783,9.762104670732436,492
4.813750267028809,3.206130266189575,-8.675430297851562,2023-10-21T15:28:47.804241Z,1697902127804,10.426627152151246,493
4.848836898803711,3.211598873138428,-9.409008026123049,2023-10-21T15:28:47.824459Z,1697902127824,11.061420280813506,494
4.829461574554443,3.2108864784240723,-10.094136238098145,2023-10-21T15:28:47.847376Z,1697902127847,11.64152384658944,495
4.782938957214356,3.1940834522247314,-10.716495513916016,2023-10-21T15:28:47.865037Z,1697902127864,12.162316813337693,496
4.728916168212891,3.160921573638916,-11.28374481201172,2023-10-21T15:28:47.885331Z,1697902127885,12.636335319359116,497
4.655883312225342,3.145427703857422,-11.78299617767334,2023-10-21T15:28:47.905544Z,1697902127905,13.054116736888664,498
4.56437873840332,3.144166946411133,-12.161109924316406,2023-10-21T15:28:47.930306Z,1697902127930,13.364577570795104,499
4.476057529449463,3.124763965606689,-12.367825508117676,2023-10-21T15:28:47.947116Z,1697902127947,13.518962558086384,500
4.410691738128662,3.045604944229126,-12.382243156433104,2023-10-21T15:28:47.966380Z,1697902127966,13.49258524783682,501
4.389466762542725,2.8932790756225586,-12.220422744750977,2023-10-21T15:28:47.986626Z,1697902127986,13.303278330145906,502
4.426992416381836,2.6859612464904785,-11.919635772705078,2023-10-21T15:28:48.006818Z,1697902128006,12.995782647701583,503
4.536721706390381,2.444981813430786,-11.5003662109375,2023-10-21T15:28:48.030195Z,1697902128030,12.602309427042089,504
4.716233253479004,2.177891969680786,-10.978349685668944,2023-10-21T15:28:48.047457Z,1697902128047,12.145379012350688,505
4.947027206420898,1.882194995880127,-10.384577751159668,2023-10-21T15:28:48.067716Z,1697902128067,11.655693512334013,506
5.201946258544922,1.55729341506958,-9.755714416503906,2023-10-21T15:28:48.087892Z,1697902128087,11.165096122908691,507
5.4362640380859375,1.2338054180145264,-9.115568161010742,2023-10-21T15:28:48.108096Z,1697902128108,10.684981300841908,508
5.62705659866333,0.9358522891998292,-8.468610763549805,2023-10-21T15:28:48.130338Z,1697902128130,10.210629448583113,509
5.780372142791748,0.6771554946899414,-7.833813667297363,2023-10-21T15:28:48.148706Z,1697902128148,9.75909208108452,510
5.931825160980225,0.4729263186454773,-7.244490623474121,2023-10-21T15:28:48.169027Z,1697902128168,9.375118849215198,511
6.0911641120910645,0.3224406838417053,-6.720729827880859,2023-10-21T15:28:48.189219Z,1697902128189,9.076037552499985,512
6.206335067749023,0.2340241074562072,-6.23362398147583,2023-10-21T15:28:48.213355Z,1697902128213,8.799513065986806,513
6.229612350463867,0.1925912499427795,-5.749026775360107,2023-10-21T15:28:48.230091Z,1697902128229,8.479178633005317,514
6.156992435455322,0.1823439449071884,-5.2614827156066895,2023-10-21T15:28:48.250099Z,1697902128250,8.100926214398346,515
6.024090766906738,0.1990285515785217,-4.781519889831543,2023-10-21T15:28:48.270330Z,1697902128270,7.693647664738041,516
5.880172729492188,0.2394182384014129,-4.32302188873291,2023-10-21T15:28:48.290483Z,1697902128290,7.302209985477458,517
5.783957481384277,0.2788628935813904,-3.907604217529297,2023-10-21T15:28:48.313319Z,1697902128313,6.985792680915351,518
5.760691642761231,0.3040546774864197,-3.554947853088379,2023-10-21T15:28:48.331155Z,1697902128331,6.776110365693444,519
5.78957462310791,0.3175194561481476,-3.262699604034424,2023-10-21T15:28:48.355083Z,1697902128355,6.653209874018263,520
5.818514823913574,0.3270409107208252,-3.007277488708496,2023-10-21T15:28:48.371588Z,1697902128371,6.557879871382213,521
5.814946174621582,0.3378971219062805,-2.761345863342285,2023-10-21T15:28:48.396619Z,1697902128396,6.4461464810952185,522
5.805058479309082,0.3346362113952636,-2.526615858078003,2023-10-21T15:28:48.413204Z,1697902128413,6.339911122126752,523
5.803069114685059,0.3236285448074341,-2.3187317848205566,2023-10-21T15:28:48.432483Z,1697902128432,6.257544540373878,524
5.791160583496094,0.3230815529823303,-2.1454343795776367,2023-10-21T15:28:48.452660Z,1697902128452,6.184238940305425,525
5.734753608703613,0.3509496450424194,-2.002265214920044,2023-10-21T15:28:48.472920Z,1697902128472,6.084375941439954,526
5.589788436889648,0.4089989066123962,-1.8732476234436035,2023-10-21T15:28:48.496437Z,1697902128496,5.9094899554472935,527
5.326677322387695,0.4855855107307434,-1.746127367019653,2023-10-21T15:28:48.513512Z,1697902128513,5.626566036840408,528
4.925347328186035,0.566081166267395,-1.6149969100952148,2023-10-21T15:28:48.533748Z,1697902128533,5.2141834652886025,529
4.407450675964356,0.6383243799209595,-1.4821176528930664,2023-10-21T15:28:48.553991Z,1697902128553,4.693586284716345,530
3.8196306228637695,0.6930012702941895,-1.3503022193908691,2023-10-21T15:28:48.574182Z,1697902128574,4.110127119620503,531
3.21633529663086,0.7259631156921387,-1.2224645614624023,2023-10-21T15:28:48.596456Z,1697902128596,3.516568610126983,532
2.646160125732422,0.7355666160583496,-1.1005938053131104,2023-10-21T15:28:48.614768Z,1697902128614,2.9588052287991773,533
2.139341354370117,0.7207009792327881,-0.9852800369262696,2023-10-21T15:28:48.635066Z,1697902128635,2.463121613552749,534
1.7075519561767578,0.6822659969329834,-0.8752732276916504,2023-10-21T15:28:48.655306Z,1697902128655,2.036497924557693,535
1.346871852874756,0.6219348907470703,-0.768338680267334,2023-10-21T15:28:48.679909Z,1697902128679,1.6706918099966246,536
1.0653295516967771,0.5541749000549316,-0.6734294891357422,2023-10-21T15:28:48.696558Z,1697902128696,1.3767876199352522,537
0.8716802597045898,0.4991307258605957,-0.6051759719848633,2023-10-21T15:28:48.716173Z,1697902128716,1.1726874748732548,538
0.7627692222595215,0.4704351425170898,-0.5730090141296387,2023-10-21T15:28:48.736381Z,1697902128736,1.0637036429453883,539
0.7115421295166016,0.4640212059020996,-0.5679659843444824,2023-10-21T15:28:48.756590Z,1697902128756,1.0218577400872666,540
0.6868233680725098,0.4669985771179199,-0.5724167823791504,2023-10-21T15:28:48.779835Z,1697902128779,1.0086996494050782,541
0.6652617454528809,0.4674506187438965,-0.570887565612793,2023-10-21T15:28:48.797211Z,1697902128797,0.993476664798105,542
0.6377687454223633,0.4611406326293945,-0.5578131675720215,2023-10-21T15:28:48.817489Z,1697902128817,0.964652883485135,543
0.6064414978027344,0.4505391120910644,-0.5363931655883789,2023-10-21T15:28:48.837709Z,1697902128837,0.926538941367793,544
0.5774378776550293,0.4404511451721191,-0.5132083892822266,2023-10-21T15:28:48.863149Z,1697902128863,0.8892775520971128,545
0.5564994812011719,0.4354009628295898,-0.4946770668029785,2023-10-21T15:28:48.879868Z,1697902128879,0.8625375768225438,546
0.5427155494689941,0.4351401329040527,-0.4818077087402344,2023-10-21T15:28:48.898523Z,1697902128898,0.8461830600412085,547
0.5295891761779785,0.4348363876342773,-0.470402717590332,2023-10-21T15:28:48.918760Z,1697902128918,0.8311594890585483,548
0.5121779441833496,0.4303193092346191,-0.4569687843322754,2023-10-21T15:28:48.939088Z,1697902128939,0.8101366701132345,549
0.488431453704834,0.4190897941589355,-0.4396414756774902,2023-10-21T15:28:48.962954Z,1697902128962,0.7794139899131125,550
0.4598383903503418,0.4011149406433105,-0.4188981056213379,2023-10-21T15:28:48.979692Z,1697902128979,0.7401487443348299,551
0.4302659034729004,0.3787164688110351,-0.3971419334411621,2023-10-21T15:28:48.999835Z,1697902128999,0.6973353760834419,552
0.4033536911010742,0.3546338081359863,-0.3764610290527344,2023-10-21T15:28:49.020085Z,1697902129020,0.6558827977568371,553
0.3809361457824707,0.3306617736816406,-0.3575549125671386,2023-10-21T15:28:49.040300Z,1697902129040,0.6183001465621584,554
0.3625349998474121,0.3071112632751465,-0.3394975662231445,2023-10-21T15:28:49.062965Z,1697902129062,0.5839585187462015,555
0.3459863662719726,0.2832198143005371,-0.3203258514404297,2023-10-21T15:28:49.080855Z,1697902129080,0.5500260720725433,556
0.3294358253479004,0.2586207389831543,-0.2986879348754883,2023-10-21T15:28:49.101160Z,1697902129101,0.5144192182403657,557
0.3131537437438965,0.2345104217529297,-0.2754130363464355,2023-10-21T15:28:49.121355Z,1697902129121,0.4784482685945451,558
0.2986369132995605,0.2126917839050293,-0.2524905204772949,2023-10-21T15:28:49.146214Z,1697902129146,0.4451665574329322,559
0.2875199317932129,0.1947379112243652,-0.231940746307373,2023-10-21T15:28:49.163123Z,1697902129163,0.4175967852414858,560
0.2810263633728027,0.1816229820251464,-0.2152099609375,2023-10-21T15:28:49.182219Z,1697902129182,0.3978417421500281,561
0.2796487808227539,0.1735706329345703,-0.2028288841247558,2023-10-21T15:28:49.202500Z,1697902129202,0.3866131936034434,562
0.2829647064208984,0.1701235771179199,-0.194467544555664,2023-10-21T15:28:49.222717Z,1697902129222,0.383182309686618,563
0.2893557548522949,0.1701183319091797,-0.1889319419860839,2023-10-21T15:28:49.246162Z,1697902129246,0.3851782424025742,564
0.2966389656066894,0.1721444129943847,-0.1848731040954589,2023-10-21T15:28:49.263242Z,1697902129263,0.3896234585587453,565
0.3030629158020019,0.1749882698059082,-0.1812682151794433,2023-10-21T15:28:49.283537Z,1697902129283,0.3941144393934553,566
0.3089475631713867,0.1785254478454589,-0.1783390045166015,2023-10-21T15:28:49.303744Z,1697902129303,0.3989044156811654,567
0.3151192665100097,0.1829285621643066,-0.1764216423034668,2023-10-21T15:28:49.324064Z,1697902129323,0.4048303432974849,568
0.3219470977783203,0.1881361007690429,-0.1754670143127441,2023-10-21T15:28:49.345887Z,1697902129345,0.4121089653141406,569
0.3291716575622558,0.1938152313232422,-0.1750874519348144,2023-10-21T15:28:49.364580Z,1697902129364,0.4202070202414409,570
0.3347296714782715,0.198613166809082,-0.1739614009857177,2023-10-21T15:28:49.384797Z,1697902129384,0.4263258284819223,571
0.3367695808410644,0.2012896537780761,-0.1710121631622314,2023-10-21T15:28:49.405056Z,1697902129405,0.4279911625809457,572
0.3342690467834472,0.2011013031005859,-0.16569185256958,2023-10-21T15:28:49.429285Z,1697902129429,0.4238293521621734,573
0.3279938697814941,0.1984000205993652,-0.1584300994873047,2023-10-21T15:28:49.445889Z,1697902129445,0.4147802348372273,574
0.3211145401000976,0.1949844360351562,-0.1507239341735839,2023-10-21T15:28:49.465867Z,1697902129465,0.4047853536041144,575
0.3173160552978515,0.1930875778198242,-0.1442806720733642,2023-10-21T15:28:49.486138Z,1697902129486,0.3984836307705217,576
0.3184499740600586,0.1939387321472168,-0.1398425102233886,2023-10-21T15:28:49.506388Z,1697902129506,0.3982192178578282,577
0.3233757019042969,0.1970500946044922,-0.1368072032928466,2023-10-21T15:28:49.529254Z,1697902129529,0.4026372998599934,578
0.3292574882507324,0.2008986473083496,-0.1339681148529052,2023-10-21T15:28:49.546993Z,1697902129546,0.4083114201889864,579
0.3338165283203125,0.2041516304016113,-0.1305465698242187,2023-10-21T15:28:49.567213Z,1697902129567,0.4124969935264155,580
0.3376679420471191,0.2070837020874023,-0.1270430088043213,2023-10-21T15:28:49.587440Z,1697902129587,0.415984644960142,581
0.3435397148132324,0.2110915184020996,-0.1246490478515625,2023-10-21T15:28:49.612372Z,1697902129612,0.4220385645004045,582
0.3541932106018066,0.2176461219787597,-0.1243102550506591,2023-10-21T15:28:49.628935Z,1697902129628,0.4339074836408895,583
0.3699455261230469,0.2268548011779785,-0.1259880065917968,2023-10-21T15:28:49.648266Z,1697902129648,0.4518802617076041,584
0.3881816864013672,0.2371368408203125,-0.1287012100219726,2023-10-21T15:28:49.668521Z,1697902129668,0.4727397850750109,585
0.405038833618164,0.2461709976196289,-0.1311547756195068,2023-10-21T15:28:49.688768Z,1697902129688,0.4917908010278448,586
0.4181938171386719,0.252418041229248,-0.1326673030853271,2023-10-21T15:28:49.712306Z,1697902129712,0.5061635600662668,587
0.4290151596069336,0.2563772201538086,-0.1336696147918701,2023-10-21T15:28:49.729292Z,1697902129729,0.5173498353193553,588
0.4419927597045898,0.2603917121887207,-0.1355252265930175,2023-10-21T15:28:49.749532Z,1697902129749,0.5305926219341366,589
0.4630670547485351,0.267636775970459,-0.1398320198059082,2023-10-21T15:28:49.769806Z,1697902129769,0.5528232401123747,590
0.4958362579345703,0.2799439430236816,-0.1473417282104492,2023-10-21T15:28:49.790061Z,1697902129789,0.5881596643686525,591
0.5387725830078125,0.2963714599609375,-0.1572418212890625,2023-10-21T15:28:49.812441Z,1697902129812,0.6346943586030911,592
0.5886850357055664,0.3150835037231445,-0.1683785915374755,2023-10-21T15:28:49.830600Z,1697902129830,0.68860658991202,593
0.6429424285888672,0.3346166610717773,-0.1800298690795898,2023-10-21T15:28:49.850895Z,1697902129850,0.7468293179216986,594
0.7012548446655273,0.3546686172485351,-0.1923162937164306,2023-10-21T15:28:49.871120Z,1697902129871,0.8090325964117177,595
0.765289306640625,0.3758502006530761,-0.2059197425842285,2023-10-21T15:28:49.895530Z,1697902129895,0.8771168887756073,596
0.8350305557250977,0.3980450630187988,-0.2208735942840576,2023-10-21T15:28:49.912305Z,1697902129912,0.9510525988819776,597
0.9093599319458008,0.4206209182739258,-0.2368166446685791,2023-10-21T15:28:49.931963Z,1697902129931,1.029533664291827,598
0.9858808517456056,0.4423410892486572,-0.2529125213623047,2023-10-21T15:28:49.952181Z,1697902129952,1.1097708937155306,599
0.0703630447387695,0.0376996994018554,-0.0124027729034423,2023-10-21T15:35:28.977152Z,1697902528977,0.080783997026606,600
0.1932344436645507,0.1059637069702148,-0.0381103754043579,2023-10-21T15:35:28.994223Z,1697902528994,0.2236520917109407,601
0.3176555633544922,0.1783618927001953,-0.0683933496475219,2023-10-21T15:35:29.014496Z,1697902529014,0.3706692217782102,602
0.4392538070678711,0.2524209022521972,-0.1019585132598877,2023-10-21T15:35:29.034713Z,1697902529034,0.5167743775997399,603
0.5541467666625977,0.3254485130310058,-0.1381294727325439,2023-10-21T15:35:29.054899Z,1697902529054,0.6573242159498422,604
0.6611642837524414,0.3956012725830078,-0.1763863563537597,2023-10-21T15:35:29.077073Z,1697902529077,0.790411743135772,605
0.7655525207519531,0.4640755653381347,-0.2167797088623047,2023-10-21T15:35:29.095555Z,1697902529095,0.9211027274674658,606
0.8700361251831055,0.5306611061096191,-0.2582764625549316,2023-10-21T15:35:29.115753Z,1697902529115,1.0513186005065285,607
0.9692020416259766,0.5913619995117188,-0.2984209060668945,2023-10-21T15:35:29.136026Z,1697902529135,1.1739321314012343,608
1.054117202758789,0.6409316062927246,-0.3353888988494873,2023-10-21T15:35:29.160505Z,1697902529160,1.2784530161755878,609
1.1145124435424805,0.674018383026123,-0.3677413463592529,2023-10-21T15:35:29.177091Z,1697902529177,1.3533929456334166,610
1.1479711532592771,0.6894731521606445,-0.394970178604126,2023-10-21T15:35:29.196869Z,1697902529196,1.39614198355767,611
1.160053253173828,0.6904463768005371,-0.4177255630493164,2023-10-21T15:35:29.217068Z,1697902529217,1.413129291841705,612
1.1577301025390625,0.6811962127685547,-0.4359633922576904,2023-10-21T15:35:29.237280Z,1697902529237,1.4122433749195509,613
1.1452178955078125,0.6648178100585938,-0.4487581253051758,2023-10-21T15:35:29.260308Z,1697902529260,1.3981740248588024,614
1.122943878173828,0.6428947448730469,-0.4550073146820068,2023-10-21T15:35:29.277915Z,1697902529277,1.3716224928629552,615
1.0900325775146484,0.6164298057556152,-0.4541993141174316,2023-10-21T15:35:29.298196Z,1697902529298,1.332086236852509,616
1.0488290786743164,0.5877900123596191,-0.4476301670074463,2023-10-21T15:35:29.318405Z,1697902529318,1.2829311366233385,617
1.005327224731445,0.5602397918701172,-0.4382762908935547,2023-10-21T15:35:29.343700Z,1697902529343,1.2315183962654856,618
0.9649620056152344,0.5360226631164551,-0.4286596775054931,2023-10-21T15:35:29.360386Z,1697902529360,1.1841541651214784,619
0.9294166564941406,0.5153512954711914,-0.4195990562438965,2023-10-21T15:35:29.379258Z,1697902529379,1.1425697559069867,620
0.8973207473754883,0.4972763061523437,-0.4106130599975586,2023-10-21T15:35:29.399463Z,1697902529399,1.1050209651276228,621
0.8658242225646973,0.4804353713989258,-0.4005126953125,2023-10-21T15:35:29.419662Z,1697902529419,1.0681199134823158,622
0.8330593109130859,0.4639973640441894,-0.3886818885803222,2023-10-21T15:35:29.443380Z,1697902529443,1.0297353931225768,623
0.7992663383483887,0.4479761123657226,-0.3755040168762207,2023-10-21T15:35:29.460271Z,1697902529460,0.9902083334113708,624
0.7655854225158691,0.4327197074890136,-0.3616812229156494,2023-10-21T15:35:29.480552Z,1697902529480,0.950884162991444,625
0.7329940795898438,0.4184870719909668,-0.3477370738983154,2023-10-21T15:35:29.500743Z,1697902529500,0.9128706494902208,626
0.7013359069824219,0.4049205780029297,-0.3336799144744873,2023-10-21T15:35:29.520956Z,1697902529520,0.8758852745861093,627
0.6697444915771484,0.391298770904541,-0.3191485404968261,2023-10-21T15:35:29.543533Z,1697902529543,0.8387658809289943,628
0.6371822357177734,0.3769435882568359,-0.3037793636322021,2023-10-21T15:35:29.561605Z,1697902529561,0.8002309491709408,629
0.6032791137695312,0.3615961074829101,-0.2874796390533447,2023-10-21T15:35:29.581835Z,1697902529581,0.7598302290167092,630
0.5684828758239746,0.3454799652099609,-0.2705767154693603,2023-10-21T15:35:29.602083Z,1697902529602,0.7181510603074811,631
0.5336098670959473,0.3289685249328613,-0.2535867691040039,2023-10-21T15:35:29.626794Z,1697902529626,0.6762144852953569,632
0.500213623046875,0.3128690719604492,-0.2374148368835449,2023-10-21T15:35:29.643238Z,1697902529643,0.6359768310587377,633
0.4692482948303222,0.2976884841918945,-0.2226738929748535,2023-10-21T15:35:29.662994Z,1697902529662,0.5986618899130036,634
0.4404888153076172,0.28338623046875,-0.2092983722686767,2023-10-21T15:35:29.683186Z,1697902529683,0.5640425167172357,635
0.4133477210998535,0.2697401046752929,-0.196948766708374,2023-10-21T15:35:29.703367Z,1697902529703,0.5314178010912222,636
0.3876843452453613,0.2566437721252441,-0.1853444576263427,2023-10-21T15:35:29.726687Z,1697902529726,0.5005174775088297,637
0.3643999099731445,0.2445631027221679,-0.1747868061065673,2023-10-21T15:35:29.744011Z,1697902529743,0.4723863177426546,638
0.3457722663879394,0.2348451614379882,-0.1663334369659423,2023-10-21T15:35:29.764266Z,1697902529764,0.4498638930907769,639
0.3329410552978515,0.2282929420471191,-0.1605753898620605,2023-10-21T15:35:29.784426Z,1697902529784,0.4344558314958253,640
0.3252682685852051,0.2246098518371582,-0.1572186946868896,2023-10-21T15:35:29.804654Z,1697902529804,0.4254018688837376,641
0.3211536407470703,0.22271728515625,-0.155386209487915,2023-10-21T15:35:29.826586Z,1697902529826,0.4205799854623266,642
0.3192152976989746,0.2216129302978515,-0.1542537212371826,2023-10-21T15:35:29.845321Z,1697902529845,0.4180967683153791,643
0.3197288513183594,0.2214417457580566,-0.153813362121582,2023-10-21T15:35:29.865525Z,1697902529865,0.4182362197333921,644
0.3237957954406738,0.2228951454162597,-0.1545512676239013,2023-10-21T15:35:29.885758Z,1697902529885,0.4223885146631582,645
0.3324670791625976,0.226539134979248,-0.1569516658782959,2023-10-21T15:35:29.909784Z,1697902529909,0.4318427535874917,646
0.3466925621032715,0.2327632904052734,-0.1614787578582763,2023-10-21T15:35:29.926509Z,1697902529926,0.4477162842889146,647
0.3670463562011719,0.2415742874145507,-0.1682913303375244,2023-10-21T15:35:29.946655Z,1697902529946,0.4705349464250017,648
0.3929967880249023,0.2521276473999023,-0.17692232131958,2023-10-21T15:35:29.966882Z,1697902529966,0.4993158657226987,649
0.4237432479858398,0.2633013725280761,-0.1867365837097168,2023-10-21T15:35:29.987090Z,1697902529987,0.5326879993808136,650
0.4600567817687988,0.2748384475708008,-0.1977994441986084,2023-10-21T15:35:30.009695Z,1697902530009,0.571238159474549,651
0.5052280426025391,0.2879047393798828,-0.2113125324249267,2023-10-21T15:35:30.027697Z,1697902530027,0.6187063118711712,652
0.5632877349853516,0.303835391998291,-0.2287111282348632,2023-10-21T15:35:30.047955Z,1697902530047,0.6796453472173166,653
0.6377630233764648,0.3231391906738281,-0.2509927749633789,2023-10-21T15:35:30.068153Z,1697902530068,0.7577321318377909,654
0.7310552597045898,0.3452241420745849,-0.2784225940704345,2023-10-21T15:35:30.093167Z,1697902530093,0.8550676241688657,655
0.8445510864257812,0.3686695098876953,-0.3106780052185058,2023-10-21T15:35:30.109614Z,1697902530109,0.972473427930219,656
0.9789142608642578,0.3916549682617187,-0.3470091819763183,2023-10-21T15:35:30.128978Z,1697902530128,1.109991944413732,657
1.1323566436767578,0.4115664958953857,-0.3858535289764404,2023-10-21T15:35:30.149215Z,1697902530149,1.2651092817800649,658
1.302668571472168,0.4261770248413086,-0.4257042407989502,2023-10-21T15:35:30.169423Z,1697902530169,1.4351990678084134,659
1.4878301620483398,0.4340214729309082,-0.4654514789581299,2023-10-21T15:35:30.193080Z,1697902530193,1.6182269029188134,660
1.6844091415405271,0.4342434406280517,-0.5039801597595215,2023-10-21T15:35:30.210005Z,1697902530209,1.81102112722768,661
1.886098861694336,0.4266927242279053,-0.5396718978881836,2023-10-21T15:35:30.230289Z,1697902530230,2.0076556862081545,662
2.0833005905151367,0.411899209022522,-0.5706448554992676,2023-10-21T15:35:30.250519Z,1697902530250,2.198962905540218,663
2.2616453170776367,0.3910834789276123,-0.5945653915405273,2023-10-21T15:35:30.270718Z,1697902530270,2.370968964910141,664
2.403763771057129,0.365852952003479,-0.6085014343261719,2023-10-21T15:35:30.293147Z,1697902530293,2.50643225424376,665
2.492298126220703,0.3382363319396972,-0.6094045639038086,2023-10-21T15:35:30.311400Z,1697902530311,2.5879195676670554,666
2.514961242675781,0.3104925155639648,-0.5955150127410889,2023-10-21T15:35:30.331591Z,1697902530331,2.6030892771440945,667
2.467527389526367,0.2851479053497314,-0.5676577091217041,2023-10-21T15:35:30.351813Z,1697902530351,2.547986660230671,668
2.3544397354125977,0.2637683153152466,-0.5284621715545654,2023-10-21T15:35:30.376281Z,1697902530376,2.427392110603096,669
2.188739776611328,0.2457135915756225,-0.4805450439453125,2023-10-21T15:35:30.392948Z,1697902530392,2.2543026678035054,670
1.987884521484375,0.2285845279693603,-0.4261612892150879,2023-10-21T15:35:30.412704Z,1697902530412,2.045861481530361,671
1.7647218704223633,0.2095309495925903,-0.3667886257171631,2023-10-21T15:35:30.432902Z,1697902530432,1.8145744390185987,672
1.5272865295410156,0.1871685981750488,-0.3041112422943115,2023-10-21T15:35:30.453119Z,1697902530453,1.568476928472345,673
1.2901077270507812,0.1627454757690429,-0.2430095672607422,2023-10-21T15:35:30.476112Z,1697902530476,1.322844543799338,674
1.0616779327392578,0.1378716230392456,-0.1860989332199096,2023-10-21T15:35:30.493760Z,1697902530493,1.086646874679428,675
0.8433589935302734,0.1127011775970459,-0.1353253126144409,2023-10-21T15:35:30.514078Z,1697902530514,0.8615502815473702,676
0.6299400329589844,0.086637258529663,-0.0909504890441894,2023-10-21T15:35:30.534209Z,1697902530534,0.6423413820915473,677
0.4098491668701172,0.0581364631652832,-0.052497386932373,2023-10-21T15:35:30.554446Z,1697902530554,0.4172674964195327,678
0.189427375793457,0.0278509855270385,-0.0212965011596679,2023-10-21T15:35:30.576097Z,1697902530576,0.1926446185504973,679
-0.0305137634277343,-0.0047097206115722,0.002984881401062,2023-10-21T15:35:30.595088Z,1697902530595,0.0310190384077457,680
-0.2545309066772461,-0.0420448780059814,0.0214875936508178,2023-10-21T15:35:30.615332Z,1697902530615,0.2588734650391606,681
-0.487523078918457,-0.0883686542510986,0.0353745222091674,2023-10-21T15:35:30.635508Z,1697902530635,0.4967284251518219,682
-0.7341632843017578,-0.1500390768051147,0.0457046031951904,2023-10-21T15:35:30.659400Z,1697902530659,0.7507305530871277,683
-0.9970083236694336,-0.2350153923034668,0.051847219467163,2023-10-21T15:35:30.676138Z,1697902530676,1.025644171363618,684
-1.2607793807983398,-0.3473944664001465,0.0523893535137176,2023-10-21T15:35:30.696386Z,1697902530696,1.3088132818294873,685
-1.498983383178711,-0.4856956005096435,0.0456341207027435,2023-10-21T15:35:30.716611Z,1697902530716,1.5763673024941331,686
-1.6837730407714844,-0.640376091003418,0.0316722840070724,2023-10-21T15:35:30.736777Z,1697902530736,1.8017148288039075,687
-1.7920141220092771,-0.7923088073730469,0.0095918662846088,2023-10-21T15:35:30.759251Z,1697902530759,1.9593774173498075,688
-1.826876640319824,-0.9256210327148438,-0.0219214856624603,2023-10-21T15:35:30.777433Z,1697902530777,2.048104759694677,689
-1.7987957000732422,-1.0272877216339111,-0.0601521432399749,2023-10-21T15:35:30.797715Z,1697902530797,2.072342711512297,690
-1.7184996604919434,-1.088484764099121,-0.0981299579143524,2023-10-21T15:35:30.817928Z,1697902530817,2.036582837359462,691
-1.594837665557861,-1.1014022827148438,-0.1283948421478271,2023-10-21T15:35:30.842460Z,1697902530842,1.942441608734142,692
-1.4372062683105469,-1.0604662895202637,-0.1458025574684143,2023-10-21T15:35:30.859183Z,1697902530859,1.792040455638302,693
-1.257962703704834,-0.971153736114502,-0.1488862037658691,2023-10-21T15:35:30.878804Z,1697902530878,1.59617569357303,694
-1.0698575973510742,-0.8504447937011719,-0.1393779516220092,2023-10-21T15:35:30.898977Z,1697902530898,1.3737823114094858,695
-0.8803696632385254,-0.7145228385925293,-0.1204568147659301,2023-10-21T15:35:30.919194Z,1697902530919,1.1402208010050483,696
-0.6910552978515625,-0.5714817047119141,-0.0952354073524475,2023-10-21T15:35:30.942390Z,1697902530942,0.9017863085691276,697
-0.5042605400085449,-0.4256696701049804,-0.0670656561851501,2023-10-21T15:35:30.959819Z,1697902530959,0.6633032206287988,698
-0.3293728828430176,-0.285400390625,-0.0406763553619384,2023-10-21T15:35:30.980111Z,1697902530980,0.4377150269373367,699
-3.266157627105713,-1.1603147983551023,-0.9011298418045044,2023-10-21T15:35:35.056246Z,1697902535056,3.5813616220891844,700
-3.1865196228027344,-1.2728087902069092,-0.8840318918228149,2023-10-21T15:35:35.073283Z,1697902535073,3.5433687232201336,701
-3.0268759727478027,-1.3404014110565186,-0.8318221569061279,2023-10-21T15:35:35.093595Z,1697902535093,3.4132949180931065,702
-2.804258346557617,-1.357262372970581,-0.7490153312683105,2023-10-21T15:35:35.113761Z,1697902535113,3.204223773364584,703
-2.5388875007629395,-1.327577829360962,-0.6464329957962036,2023-10-21T15:35:35.134052Z,1697902535133,2.9370543496154617,704
-2.243161678314209,-1.2547621726989746,-0.5340067148208618,2023-10-21T15:35:35.156264Z,1697902535156,2.625141062222645,705
-1.922907829284668,-1.140449047088623,-0.4201838970184326,2023-10-21T15:35:35.174663Z,1697902535174,2.2748083559375325,706
-1.5832533836364746,-0.9886651039123536,-0.3118997812271118,2023-10-21T15:35:35.194886Z,1697902535194,1.8924670242886377,707
-1.2333927154541016,-0.8077969551086426,-0.2156338691711425,2023-10-21T15:35:35.215094Z,1697902535215,1.4900642525581755,708
-0.8890037536621094,-0.6105546951293945,-0.135939359664917,2023-10-21T15:35:35.239386Z,1697902535239,1.0870070005643828,709
-0.5665631294250488,-0.4089565277099609,-0.0750059485435485,2023-10-21T15:35:35.256123Z,1697902535256,0.7027553724429363,710
-0.2730545997619629,-0.2074580192565918,-0.0306612849235534,2023-10-21T15:35:35.275964Z,1697902535275,0.3442931288861244,711
-0.0039410591125488,-0.0031499862670898,-0.0003589987754821,2023-10-21T15:35:35.296247Z,1697902535296,0.0050579877947911,712
0.2481913566589355,0.2083401679992675,0.0170515775680542,2023-10-21T15:35:35.316438Z,1697902535316,0.3244924212053731,713
0.4893264770507812,0.4304385185241699,0.0226780474185943,2023-10-21T15:35:35.339424Z,1697902535339,0.6520981622477792,714
0.7124557495117188,0.6563606262207031,0.0186176747083663,2023-10-21T15:35:35.357038Z,1697902535356,0.968890646294351,715
0.911118984222412,0.8787713050842285,0.0076272785663604,2023-10-21T15:35:35.377309Z,1697902535377,1.2658732106448287,716
1.0843262672424316,1.0929417610168457,-0.0087765231728553,2023-10-21T15:35:35.397489Z,1697902535397,1.5395980560410931,717
1.234605312347412,1.2956757545471191,-0.0305459946393966,2023-10-21T15:35:35.422648Z,1697902535422,1.7899606129706338,718
1.3627362251281738,1.4814438819885254,-0.0577675700187683,2023-10-21T15:35:35.439400Z,1697902535439,2.0137187209001386,719
1.471529483795166,1.6471986770629885,-0.0910266637802124,2023-10-21T15:35:35.458438Z,1697902535458,2.2106443307134422,720
1.5595340728759766,1.788987159729004,-0.1283631324768066,2023-10-21T15:35:35.478586Z,1697902535478,2.376783262292891,721
1.621382713317871,1.899624347686768,-0.1658014059066772,2023-10-21T15:35:35.498790Z,1697902535498,2.5029871497015383,722
1.6524367332458496,1.9708452224731443,-0.2012919187545776,2023-10-21T15:35:35.522551Z,1697902535522,2.5797861316165984,723
1.6475439071655271,1.994276523590088,-0.2337034940719604,2023-10-21T15:35:35.539378Z,1697902535539,2.597336539942843,724
1.614159107208252,1.974022388458252,-0.2655357122421264,2023-10-21T15:35:35.559685Z,1697902535559,2.563743986437354,725
1.5603179931640625,1.9190702438354488,-0.2972803115844726,2023-10-21T15:35:35.579876Z,1697902535579,2.491143999093978,726
1.4909796714782717,1.8370227813720703,-0.3266084194183349,2023-10-21T15:35:35.600065Z,1697902535600,2.3883773026212536,727
1.4089407920837402,1.7326788902282717,-0.3499797582626343,2023-10-21T15:35:35.622453Z,1697902535622,2.260481391968048,728
1.3184657096862793,1.6122779846191406,-0.3651978969573974,2023-10-21T15:35:35.640724Z,1697902535640,2.114512149704562,729
1.2228312492370603,1.4818382263183594,-0.3714611530303955,2023-10-21T15:35:35.661007Z,1697902535660,1.9568199153983692,730
1.1234359741210938,1.346025466918945,-0.3692367076873779,2023-10-21T15:35:35.681168Z,1697902535681,1.7917111072512748,731
1.0213279724121094,1.2083015441894531,-0.359471321105957,2023-10-21T15:35:35.705756Z,1697902535705,1.6224435520595808,732
0.9196662902832032,1.0730619430541992,-0.3438551425933838,2023-10-21T15:35:35.722612Z,1697902535722,1.454470480347552,733
0.8249149322509766,0.9468059539794922,-0.3250420093536377,2023-10-21T15:35:35.742069Z,1697902535742,1.297142423863432,734
0.7399868965148926,0.8328819274902344,-0.3054907321929931,2023-10-21T15:35:35.762301Z,1697902535762,1.1552478087446871,735
0.6606054306030273,0.7281680107116699,-0.2849404811859131,2023-10-21T15:35:35.782480Z,1697902535782,1.0236304335962572,736
0.5813431739807129,0.6277937889099121,-0.2616162300109863,2023-10-21T15:35:35.805637Z,1697902535805,0.8947222916262867,737
0.4972271919250488,0.5267934799194336,-0.2332813739776611,2023-10-21T15:35:35.823078Z,1697902535823,0.7610298616481495,738
0.4108109474182129,0.427189826965332,-0.2004668712615966,2023-10-21T15:35:35.843362Z,1697902535843,0.6256546565436347,739
0.3304681777954101,0.3366641998291015,-0.1670694351196289,2023-10-21T15:35:35.863539Z,1697902535863,0.500463980854946,740
0.2644944190979004,0.2630147933959961,-0.1377711296081543,2023-10-21T15:35:35.883753Z,1697902535883,0.3976367229426643,741
0.2173967361450195,0.2101707458496093,-0.1159420013427734,2023-10-21T15:35:35.905548Z,1697902535905,0.3238450724850634,742
0.1856894493103027,0.1740345954895019,-0.1007914543151855,2023-10-21T15:35:35.924411Z,1697902535924,0.2737289339389027,743
0.1632909774780273,0.14825439453125,-0.0897674560546875,2023-10-21T15:35:35.944631Z,1697902535944,0.2381207781569836,744
0.147404670715332,0.1296391487121582,-0.0815768241882324,2023-10-21T15:35:35.964927Z,1697902535964,0.2125775718935238,745
0.1417183876037597,0.1205229759216308,-0.0782938003540039,2023-10-21T15:35:35.989009Z,1697902535988,0.2018410470738994,746
0.150519847869873,0.1234107017517089,-0.0822889804840087,2023-10-21T15:35:36.005631Z,1697902536005,0.2113241638306337,747
0.1789236068725586,0.1409740447998047,-0.0960800647735595,2023-10-21T15:35:36.025753Z,1697902536025,0.247221999932034,748
0.2240324020385742,0.1694269180297851,-0.1177456378936767,2023-10-21T15:35:36.045919Z,1697902536045,0.3045653180505517,749
0.2748456001281738,0.1998357772827148,-0.1413381099700927,2023-10-21T15:35:36.066207Z,1697902536066,0.3680365513395657,750
0.3202114105224609,0.2244634628295898,-0.1613955497741699,2023-10-21T15:35:36.088897Z,1697902536088,0.4230457623722771,751
0.3538575172424316,0.2397933006286621,-0.1753113269805908,2023-10-21T15:35:36.106801Z,1697902536106,0.4620065269052607,752
0.3799061775207519,0.2493386268615722,-0.1856169700622558,2023-10-21T15:35:36.127043Z,1697902536127,0.4908687341222048,753
0.4043445587158203,0.2572579383850097,-0.1954627037048339,2023-10-21T15:35:36.147201Z,1697902536147,0.517573026311071,754
0.4298152923583984,0.2651228904724121,-0.206275463104248,2023-10-21T15:35:36.172174Z,1697902536172,0.545509760936002,755
0.4556770324707031,0.2723560333251953,-0.2178282737731933,2023-10-21T15:35:36.188859Z,1697902536188,0.5738192430242737,756
0.481271743774414,0.2785243988037109,-0.2297887802124023,2023-10-21T15:35:36.208104Z,1697902536208,0.6016653684533767,757
0.507296085357666,0.2840967178344726,-0.2423403263092041,2023-10-21T15:35:36.228287Z,1697902536228,0.6299119756435687,758
0.5366230010986328,0.2906970977783203,-0.2566914558410644,2023-10-21T15:35:36.248506Z,1697902536248,0.6620872687694929,759
0.5721454620361328,0.2997241020202636,-0.274052619934082,2023-10-21T15:35:36.272339Z,1697902536272,0.701633669056102,760
0.6152324676513672,0.3115925788879394,-0.294842004776001,2023-10-21T15:35:36.289247Z,1697902536289,0.7500218211830632,761
0.6655941009521484,0.3257818222045898,-0.318594217300415,2023-10-21T15:35:36.309439Z,1697902536309,0.8066297652569646,762
0.7213468551635742,0.3409533500671386,-0.3438818454742431,2023-10-21T15:35:36.329596Z,1697902536329,0.8688182756037965,763
0.7808008193969727,0.3559308052062988,-0.3694217205047607,2023-10-21T15:35:36.349817Z,1697902536349,0.9342425087986982,764
0.8407926559448242,0.3692941665649414,-0.3933959007263183,2023-10-21T15:35:36.372102Z,1697902536372,0.9990349375561984,765
0.8980283737182617,0.3800041675567627,-0.4142055511474609,2023-10-21T15:35:36.390496Z,1697902536390,1.0594453105115649,766
0.9504938125610352,0.3876075744628906,-0.4309685230255127,2023-10-21T15:35:36.410696Z,1697902536410,1.1132888157781022,767
0.9983444213867188,0.3923494815826416,-0.4439945220947265,2023-10-21T15:35:36.430911Z,1697902536430,1.1609310208028187,768
1.0418434143066406,0.394425630569458,-0.4537248611450195,2023-10-21T15:35:36.455877Z,1697902536455,1.2028613916845532,769
1.0801506042480469,0.3938169479370117,-0.460212230682373,2023-10-21T15:35:36.472053Z,1697902536472,1.2383910584340834,770
1.1116724014282229,0.3906245231628418,-0.4633195400238037,2023-10-21T15:35:36.491793Z,1697902536491,1.2661232334813457,771
1.1342744827270508,0.3850433826446533,-0.4626786708831787,2023-10-21T15:35:36.512001Z,1697902536511,1.284098345600671,772
1.1459875106811523,0.377354621887207,-0.4579968452453613,2023-10-21T15:35:36.532171Z,1697902536532,1.2905212108103938,773
1.1460094451904297,0.367985725402832,-0.4490964412689209,2023-10-21T15:35:36.555246Z,1697902536555,1.2846940321050513,774
1.135295867919922,0.3573520183563232,-0.436103343963623,2023-10-21T15:35:36.572852Z,1697902536572,1.267589562656478,775
1.116323471069336,0.345994234085083,-0.4194593429565429,2023-10-21T15:35:36.593183Z,1697902536593,1.2417069873661617,776
1.091421127319336,0.3343632221221924,-0.3996624946594238,2023-10-21T15:35:36.613325Z,1697902536613,1.2094333181719192,777
1.0611467361450195,0.3224895000457763,-0.3768622875213623,2023-10-21T15:35:36.638371Z,1697902536638,1.171348392676934,778
1.0244226455688477,0.309847354888916,-0.3509163856506347,2023-10-21T15:35:36.655156Z,1697902536655,1.1263167626400843,779
0.9802618026733398,0.2959048748016357,-0.3219687938690185,2023-10-21T15:35:36.674190Z,1697902536674,1.0733763556820264,780
0.9290151596069336,0.2806572914123535,-0.2908339500427246,2023-10-21T15:35:36.694429Z,1697902536694,1.0131249027143046,781
0.8733224868774414,0.2647433280944824,-0.259124755859375,2023-10-21T15:35:36.714567Z,1697902536714,0.9486447359024992,782
0.8172235488891602,0.2493343353271484,-0.2287764549255371,2023-10-21T15:35:36.738450Z,1697902536738,0.8845115069688584,783
0.7643852233886719,0.2354333400726318,-0.2013797760009765,2023-10-21T15:35:36.755162Z,1697902536755,0.8247832694319817,784
0.7184162139892578,0.2241041660308838,-0.1781916618347168,2023-10-21T15:35:36.775501Z,1697902536775,0.7733671845265191,785
0.6820697784423828,0.2159261703491211,-0.1596999168395996,2023-10-21T15:35:36.795693Z,1697902536795,0.7330398059755376,786
0.6568975448608398,0.2109417915344238,-0.1457912921905517,2023-10-21T15:35:36.815871Z,1697902536815,0.7051708479074714,787
0.6422691345214844,0.208338975906372,-0.1353518962860107,2023-10-21T15:35:36.838176Z,1697902536838,0.6886471562918933,788
0.6389675140380859,0.2081139087677002,-0.1279054880142212,2023-10-21T15:35:36.856525Z,1697902536856,0.6840692193650715,789
0.6438465118408203,0.2094259262084961,-0.1223315000534057,2023-10-21T15:35:36.876759Z,1697902536876,0.6880134775447313,790
0.6571865081787109,0.2122676372528076,-0.1183182001113891,2023-10-21T15:35:36.896998Z,1697902536896,0.7006788514252554,791
0.6789321899414062,0.2164475917816162,-0.1159720420837402,2023-10-21T15:35:36.921752Z,1697902536921,0.7219750640235213,792
0.7106790542602539,0.2220277786254882,-0.115386962890625,2023-10-21T15:35:36.938429Z,1697902536938,0.7534422365720813,793
0.7501621246337891,0.2282421588897705,-0.1162893772125244,2023-10-21T15:35:36.957877Z,1697902536957,0.7926921947277017,794
0.7903833389282227,0.2332291603088379,-0.117268681526184,2023-10-21T15:35:36.978087Z,1697902536978,0.8323782837992476,795
0.8239879608154297,0.235464334487915,-0.1168973445892334,2023-10-21T15:35:36.998284Z,1697902536998,0.8649072791673226,796
0.8466339111328125,0.2348639965057373,-0.1144046783447265,2023-10-21T15:35:37.021421Z,1697902537021,0.8860239876898652,797
0.8574180603027344,0.2327675819396972,-0.1103708744049072,2023-10-21T15:35:37.038929Z,1697902537038,0.8952810772334356,798
0.8545446395874023,0.2298438549041748,-0.105045199394226,2023-10-21T15:35:37.059219Z,1697902537059,0.8911280674518941,799
0.4917421340942383,0.5311150550842285,-0.2345871925354004,2023-10-21T15:31:46.760162Z,1697902306760,0.7608710002900096,800
0.4561276435852051,0.4989576339721679,-0.2247624397277832,2023-10-21T15:31:46.780972Z,1697902306780,0.7124109081520869,801
0.4119687080383301,0.4573283195495605,-0.2102348804473877,2023-10-21T15:31:46.800893Z,1697902306800,0.6504353259329656,802
0.3674988746643066,0.4141955375671386,-0.194566011428833,2023-10-21T15:31:46.820992Z,1697902306820,0.5869150696850333,803
0.3297123908996582,0.3769087791442871,-0.1812407970428466,2023-10-21T15:31:46.841188Z,1697902306841,0.5325586493725666,804
0.3005218505859375,0.3478899002075195,-0.1713521480560302,2023-10-21T15:31:46.864501Z,1697902306864,0.4906142313359958,805
0.2780356407165527,0.3254842758178711,-0.1639764308929443,2023-10-21T15:31:46.881715Z,1697902306881,0.4584016810633841,806
0.2586526870727539,0.3058819770812988,-0.1570537090301513,2023-10-21T15:31:46.902091Z,1697902306902,0.4302683627147685,807
0.2410798072814941,0.2876620292663574,-0.1498036384582519,2023-10-21T15:31:46.922300Z,1697902306922,0.4041163776139884,808
0.227332592010498,0.2732701301574707,-0.1435768604278564,2023-10-21T15:31:46.942496Z,1697902306942,0.3833679515515253,809
0.2201371192932129,0.2661600112915039,-0.1403355598449707,2023-10-21T15:31:46.964359Z,1697902306964,0.3728210995348963,810
0.2197861671447754,0.2669892311096191,-0.1405303478240966,2023-10-21T15:31:46.983044Z,1697902306983,0.3732800389201897,811
0.2229766845703125,0.2721166610717773,-0.1422479152679443,2023-10-21T15:31:47.003346Z,1697902307003,0.3794740419223658,812
0.2258057594299316,0.2770633697509765,-0.1431365013122558,2023-10-21T15:31:47.023572Z,1697902307023,0.3850200122817097,813
0.2253584861755371,0.2784113883972168,-0.1414704322814941,2023-10-21T15:31:47.043804Z,1697902307043,0.3851145695640564,814
0.2204971313476562,0.2746744155883789,-0.1366949081420898,2023-10-21T15:31:47.064272Z,1697902307064,0.3778233944891944,815
0.2114577293395996,0.2658777236938476,-0.1291487216949463,2023-10-21T15:31:47.084405Z,1697902307084,0.3634346262665681,816
0.2001476287841797,0.2541022300720215,-0.1202113628387451,2023-10-21T15:31:47.104719Z,1697902307104,0.3450764964338382,817
0.1883611679077148,0.2414841651916504,-0.1111211776733398,2023-10-21T15:31:47.124941Z,1697902307124,0.3257951008553943,818
0.1771492958068847,0.2293887138366699,-0.10258150100708,2023-10-21T15:31:47.147567Z,1697902307147,0.3074475880363714,819
0.1671829223632812,0.2187199592590332,-0.0949780941009521,2023-10-21T15:31:47.165419Z,1697902307165,0.2912205151895198,820
0.1591887474060058,0.2104582786560058,-0.0886540412902832,2023-10-21T15:31:47.185751Z,1697902307185,0.2783761544971863,821
0.153996467590332,0.2057399749755859,-0.0839641094207763,2023-10-21T15:31:47.206Z,1697902307205,0.2703586895294452,822
0.1519093513488769,0.20505952835083,-0.0809273719787597,2023-10-21T15:31:47.226252Z,1697902307226,0.2677220587289921,823
0.1525831222534179,0.2081007957458496,-0.0792224407196044,2023-10-21T15:31:47.247478Z,1697902307247,0.2699328536881506,824
0.1556229591369629,0.2144775390625,-0.0785150527954101,2023-10-21T15:31:47.266800Z,1697902307266,0.276376072930196,825
0.1607823371887207,0.2239627838134765,-0.0785715579986572,2023-10-21T15:31:47.287066Z,1697902307286,0.2866771323487205,826
0.2304821014404297,0.218545913696289,-0.1538658142089843,2023-10-21T15:32:03.519316Z,1697902323519,0.3529291773995683,827
0.2316370010375976,0.2188000679016113,-0.1530017852783203,2023-10-21T15:32:03.538503Z,1697902323538,0.3534667116742324,828
0.2299451828002929,0.2164721488952636,-0.1500787734985351,2023-10-21T15:32:03.558807Z,1697902323558,0.3496549965254578,829
0.2261896133422851,0.2122597694396972,-0.1456255912780761,2023-10-21T15:32:03.579032Z,1697902323578,0.3426700508384342,830
0.2212662696838379,0.2069911956787109,-0.1402335166931152,2023-10-21T15:32:03.599184Z,1697902323599,0.3338705683231475,831
0.2155699729919433,0.2010812759399414,-0.1342134475708007,2023-10-21T15:32:03.619502Z,1697902323619,0.3239094662065653,832
0.2081055641174316,0.1937036514282226,-0.1270275115966797,2023-10-21T15:32:03.639861Z,1697902323639,0.3113920665265983,833
0.1984353065490722,0.1844701766967773,-0.1185216903686523,2023-10-21T15:32:03.660093Z,1697902323660,0.2957248857698776,834
0.1874260902404785,0.1740975379943847,-0.1093308925628662,2023-10-21T15:32:03.680308Z,1697902323680,0.2781937024936604,835
0.1775503158569336,0.1646947860717773,-0.1009528636932373,2023-10-21T15:32:03.702614Z,1697902323702,0.2623737180206713,836
0.1706509590148925,0.1578154563903808,-0.0944180488586425,2023-10-21T15:32:03.720834Z,1697902323720,0.250882913006605,837
0.1673593521118164,0.1539444923400879,-0.0900025367736816,2023-10-21T15:32:03.741142Z,1697902323741,0.2445577970272717,838
0.1681571006774902,0.1534433364868164,-0.0878701210021972,2023-10-21T15:32:03.761376Z,1697902323761,0.2440139876839168,839
0.1730537414550781,0.1562361717224121,-0.0879278182983398,2023-10-21T15:32:03.781621Z,1697902323781,0.2491759218238831,840
0.1821117401123047,0.1622653007507324,-0.0901367664337158,2023-10-21T15:32:03.802510Z,1697902323802,0.2600372096019788,841
0.1952295303344726,0.171271800994873,-0.0944128036499023,2023-10-21T15:32:03.822176Z,1697902323822,0.2763374329034724,842
0.213109016418457,0.1836075782775879,-0.1011021137237548,2023-10-21T15:32:03.842472Z,1697902323842,0.2989127516169456,843
0.2354192733764648,0.1987223625183105,-0.110114574432373,2023-10-21T15:32:03.862631Z,1697902323862,0.3271666718117603,844
0.2606797218322754,0.2151494026184082,-0.1208972930908203,2023-10-21T15:32:03.885818Z,1697902323885,0.3589698292312295,845
0.2868428230285644,0.2311549186706543,-0.1326930522918701,2023-10-21T15:32:03.903210Z,1697902323903,0.3915595071954786,846
0.3127622604370117,0.2458915710449218,-0.1451454162597656,2023-10-21T15:32:03.923538Z,1697902323923,0.4234974476024968,847
0.3379974365234375,0.2591466903686523,-0.1581790447235107,2023-10-21T15:32:03.943791Z,1697902323943,0.4543345512010766,848
0.3604369163513183,0.2695126533508301,-0.1708619594573974,2023-10-21T15:32:03.964026Z,1697902323963,0.4813996782037492,849
0.376990795135498,0.2749757766723633,-0.1816635131835937,2023-10-21T15:32:03.985554Z,1697902323985,0.5007348294213916,850
0.3854575157165527,0.2742428779602051,-0.1892590522766113,2023-10-21T15:32:04.004563Z,1697902324004,0.5095151041950704,851
0.3863816261291504,0.2679653167724609,-0.1935174465179443,2023-10-21T15:32:04.024860Z,1697902324024,0.5084733760090072,852
0.3825592994689941,0.2583074569702148,-0.1954782009124755,2023-10-21T15:32:04.045079Z,1697902324045,0.5012844371897107,853
0.3771519660949707,0.2475242614746093,-0.1965088844299316,2023-10-21T15:32:04.065290Z,1697902324065,0.4920646372253841,854
0.371286392211914,0.2364845275878906,-0.1971139907836914,2023-10-21T15:32:04.085639Z,1697902324085,0.4823198546534034,855
0.3643360137939453,0.2249293327331543,-0.1969566345214843,2023-10-21T15:32:04.105906Z,1697902324105,0.4713022931761244,856
0.3554301261901855,0.2125172615051269,-0.1955580711364746,2023-10-21T15:32:04.126177Z,1697902324126,0.4579706543304147,857
0.3459162712097168,0.2002067565917968,-0.1936707496643066,2023-10-21T15:32:04.146378Z,1697902324146,0.4441274269262998,858
0.3389806747436523,0.1898441314697265,-0.1930742263793945,2023-10-21T15:32:04.168774Z,1697902324168,0.4338506067705314,859
0.3381085395812988,0.1832113265991211,-0.1958150863647461,2023-10-21T15:32:04.186896Z,1697902324186,0.4315406386194022,860
0.3445072174072265,0.1807699203491211,-0.2027654647827148,2023-10-21T15:32:04.207231Z,1697902324207,0.4387218032617571,861
0.356931209564209,0.1817278861999511,-0.2133750915527343,2023-10-21T15:32:04.227418Z,1697902324227,0.453821377503098,862
0.3718881607055664,0.1843533515930175,-0.2256712913513183,2023-10-21T15:32:04.247680Z,1697902324247,0.4724558117503895,863
0.3849506378173828,0.1866657733917236,-0.236912727355957,2023-10-21T15:32:04.267899Z,1697902324267,0.4890385924394701,864
0.3930597305297851,0.187424898147583,-0.2449984550476074,2023-10-21T15:32:04.288210Z,1697902324288,0.4996481633964981,865
0.3949460983276367,0.1861340999603271,-0.2488102912902832,2023-10-21T15:32:04.308531Z,1697902324308,0.5025284915347785,866
0.3914628028869629,0.1830990314483642,-0.2485527992248535,2023-10-21T15:32:04.328751Z,1697902324328,0.4985447576336116,867
0.3837623596191406,0.1786720752716064,-0.2446894645690918,2023-10-21T15:32:04.352136Z,1697902324352,0.4889480475607015,868
0.3719539642333984,0.1727602481842041,-0.237215518951416,2023-10-21T15:32:04.369282Z,1697902324369,0.4737795450343942,869
0.3539810180664062,0.1643393039703369,-0.2249054908752441,2023-10-21T15:32:04.389600Z,1697902324389,0.4504358420536921,870
0.3258514404296875,0.1514594554901123,-0.2053923606872558,2023-10-21T15:32:04.409766Z,1697902324409,0.4138902628912007,871
0.2829542160034179,0.1318058967590332,-0.1761460304260254,2023-10-21T15:32:04.430006Z,1697902324429,0.3584177824960811,872
0.222780704498291,0.1039960384368896,-0.1363310813903808,2023-10-21T15:32:04.451999Z,1697902324451,0.2811273413604456,873
0.1478204727172851,0.0690746307373046,-0.0885663032531738,2023-10-21T15:32:04.470587Z,1697902324470,0.1856507119237353,874
0.0654616355895996,0.030571699142456,-0.0382866859436035,2023-10-21T15:32:04.490940Z,1697902324490,0.0817662818224389,875
-0.0145316123962402,-0.0067756175994873,0.008279800415039,2023-10-21T15:32:04.511142Z,1697902324511,0.0180452721675768,876
-0.0854949951171875,-0.0398049354553222,0.0473809242248535,2023-10-21T15:32:04.531328Z,1697902324531,0.1055404143306799,877
-0.1466960906982422,-0.068331241607666,0.0789618492126464,2023-10-21T15:32:04.551858Z,1697902324551,0.1800663078892684,878
-0.2018651962280273,-0.0943803787231445,0.1053404808044433,2023-10-21T15:32:04.571915Z,1697902324571,0.2464829207718365,879
-0.2503743171691894,-0.1179573535919189,0.1263043880462646,2023-10-21T15:32:04.592196Z,1697902324592,0.3042269455588841,880
-0.2810425758361816,-0.1340575218200683,0.1366112232208252,2023-10-21T15:32:04.612449Z,1697902324612,0.340027903118353,881
-0.2704567909240722,-0.1315374374389648,0.1266241073608398,2023-10-21T15:32:04.635217Z,1697902324635,0.3263167751892114,882
-0.1975250244140625,-0.0990245342254638,0.0898048877716064,2023-10-21T15:32:04.652964Z,1697902324652,0.2385097723700579,883
-0.060037612915039,-0.0314221382141113,0.0269577503204345,2023-10-21T15:32:04.673286Z,1697902324673,0.0729286366033375,884
0.1308050155639648,0.0723433494567871,-0.059283971786499,2023-10-21T15:32:04.693551Z,1697902324693,0.1608045447681697,885
0.345402717590332,0.2038726806640625,-0.1616559028625488,2023-10-21T15:32:04.713708Z,1697902324713,0.4324346634698047,886
0.5615720748901367,0.355898380279541,-0.2777595520019531,2023-10-21T15:32:04.735145Z,1697902324735,0.7205395347309819,887
0.7710905075073242,0.525001049041748,-0.4131367206573486,2023-10-21T15:32:04.754420Z,1697902324754,1.0202394925792408,888
0.9753246307373048,0.7092118263244629,-0.5792441368103027,2023-10-21T15:32:04.774627Z,1697902324774,1.337820361614538,889
1.1787643432617188,0.9058642387390136,-0.7903170585632324,2023-10-21T15:32:04.794826Z,1697902324794,1.6836497406014956,890
1.36895751953125,1.0990896224975586,-1.047990322113037,2023-10-21T15:32:04.815042Z,1697902324815,2.0445846531277607,891
1.5182876586914062,1.2578706741333008,-1.332225322723389,2023-10-21T15:32:04.835332Z,1697902324835,2.3795504528974867,892
1.6153979301452637,1.3567256927490234,-1.6176419258117676,2023-10-21T15:32:04.855664Z,1697902324855,2.6583792954029195,893
1.665904521942139,1.3869152069091797,-1.8852410316467283,2023-10-21T15:32:04.875886Z,1697902324875,2.872787046543412,894
1.686115264892578,1.3594255447387695,-2.134690284729004,2023-10-21T15:32:04.896091Z,1697902324896,3.041040136188351,895
1.694723129272461,1.2959144115447998,-2.378503799438477,2023-10-21T15:32:04.918596Z,1697902324918,3.195115173336294,896
1.6966938972473145,1.2082476615905762,-2.617064476013184,2023-10-21T15:32:04.936621Z,1697902324936,3.344795818029187,897
1.6911592483520508,1.0998191833496094,-2.833127975463867,2023-10-21T15:32:04.956970Z,1697902324956,3.4779643420694333,898
1.6731810569763184,0.9731073379516602,-3.002718925476074,2023-10-21T15:32:04.977178Z,1697902324977,3.5725052394659893,899
1.6341242790222168,0.8334536552429199,-3.102290153503418,2023-10-21T15:32:04.997421Z,1697902324997,3.6040548485354553,900
1.578258037567139,0.6914596557617188,-3.135004997253418,2023-10-21T15:32:05.018287Z,1697902325018,3.5773273852829424,901
1.518238544464111,0.5580841302871704,-3.1274938583374023,2023-10-21T15:32:05.037951Z,1697902325037,3.521040188397892,902
1.4580354690551758,0.4391831159591675,-3.101069450378418,2023-10-21T15:32:05.058298Z,1697902325058,3.4547620720444487,903
1.40032958984375,0.3353013396263122,-3.073071479797364,2023-10-21T15:32:05.078492Z,1697902325078,3.393688003999649,904
1.343153953552246,0.2391183376312255,-3.042708396911621,2023-10-21T15:32:05.101541Z,1697902325101,3.3345636162729053,905
1.287797451019287,0.139953076839447,-3.010561943054199,2023-10-21T15:32:05.118979Z,1697902325118,3.2774216011271537,906
1.2341265678405762,0.0285628214478492,-2.97628116607666,2023-10-21T15:32:05.139372Z,1697902325139,3.2221318718763925,907
1.17598557472229,-0.0995087325572967,-2.931375503540039,2023-10-21T15:32:05.159603Z,1697902325159,3.160032658464892,908
1.111548900604248,-0.2420019507408142,-2.872962951660156,2023-10-21T15:32:05.179841Z,1697902325179,3.0899873825322826,909
1.0449271202087402,-0.3972152471542358,-2.805871963500977,2023-10-21T15:32:05.201485Z,1697902325201,3.020359269140074,910
0.9868121147155762,-0.5648829936981201,-2.743361473083496,2023-10-21T15:32:05.220342Z,1697902325220,2.969667172987173,911
0.942021369934082,-0.7434389591217041,-2.6852798461914062,2023-10-21T15:32:05.240612Z,1697902325240,2.941229946759381,912
0.9060773849487304,-0.923710823059082,-2.608830451965332,2023-10-21T15:32:05.260892Z,1697902325260,2.912080740510753,913
0.8701558113098145,-1.088287353515625,-2.4859066009521484,2023-10-21T15:32:05.281045Z,1697902325281,2.849784575794414,914
0.8265743255615234,-1.217024326324463,-2.2978668212890625,2023-10-21T15:32:05.302488Z,1697902325302,2.7284730628914224,915
0.7789361476898193,-1.2978582382202148,-2.055513381958008,2023-10-21T15:32:05.321676Z,1697902325321,2.5527069538241918,916
0.7356729507446289,-1.3267145156860352,-1.787735939025879,2023-10-21T15:32:05.341944Z,1697902325341,2.344650482326541,917
0.6943576335906982,-1.2988133430480957,-1.5143637657165527,2023-10-21T15:32:05.362171Z,1697902325362,2.1124266231802378,918
0.6486361026763916,-1.2155284881591797,-1.2481985092163086,2023-10-21T15:32:05.384580Z,1697902325384,1.8590959678380172,919
0.5936558246612549,-1.0855870246887207,-0.995774269104004,2023-10-21T15:32:05.402722Z,1697902325402,1.5882357574794608,920
0.529747486114502,-0.928725242614746,-0.767509937286377,2023-10-21T15:32:05.423036Z,1697902325422,1.3161437912127198,921
0.4636149406433105,-0.7690901756286621,-0.5767946243286133,2023-10-21T15:32:05.443261Z,1697902325443,1.067300590316811,922
0.4032883644104004,-0.628169059753418,-0.4324989318847656,2023-10-21T15:32:05.463498Z,1697902325463,0.8627242888558153,923
0.3575196266174316,-0.5209941864013672,-0.335019588470459,2023-10-21T15:32:05.484476Z,1697902325484,0.7151876329604742,924
0.3381242752075195,-0.4603099822998047,-0.2825932502746582,2023-10-21T15:32:05.504094Z,1697902325504,0.6372379856774488,925
0.3444995880126953,-0.4394831657409668,-0.2630577087402344,2023-10-21T15:32:05.524350Z,1697902325524,0.6172720447568324,926
0.3681468963623047,-0.4432253837585449,-0.2625017166137695,2023-10-21T15:32:05.544558Z,1697902325544,0.6331571916469738,927
0.4099674224853515,-0.4687685966491699,-0.2769105434417724,2023-10-21T15:32:05.567908Z,1697902325567,0.6815399722488275,928
0.471038818359375,-0.5135493278503418,-0.3036491870880127,2023-10-21T15:32:05.585065Z,1697902325585,0.7601403221485787,929
0.5443978309631348,-0.5662379264831543,-0.3373463153839111,2023-10-21T15:32:05.605408Z,1697902325605,0.8548666119625968,930
0.6079249382019043,-0.6021246910095215,-0.3652830123901367,2023-10-21T15:32:05.625656Z,1697902325625,0.930353993462657,931
0.6398262977600098,-0.6018481254577637,-0.3754987716674804,2023-10-21T15:32:05.645875Z,1697902325645,0.9553000496943834,932
0.6370606422424316,-0.5663371086120605,-0.3656332492828369,2023-10-21T15:32:05.668012Z,1697902325667,0.9275083047965303,933
0.6100273132324219,-0.5090956687927246,-0.3410227298736572,2023-10-21T15:32:05.686444Z,1697902325686,0.8646434092523694,934
0.5681605339050293,-0.4412250518798828,-0.3074073791503906,2023-10-21T15:32:05.706747Z,1697902325706,0.7822948519898142,935
0.5202703475952148,-0.3718771934509277,-0.2709541320800781,2023-10-21T15:32:05.726951Z,1697902325726,0.6945430319908572,936
0.4725356101989746,-0.3073444366455078,-0.2362251281738281,2023-10-21T15:32:05.747177Z,1697902325747,0.6111896733615543,937
0.4276518821716308,-0.2503323554992676,-0.2053475379943847,2023-10-21T15:32:05.767718Z,1697902325767,0.536395406295678,938
0.3837404251098633,-0.1998958587646484,-0.1776309013366699,2023-10-21T15:32:05.787775Z,1697902325787,0.4677262076519046,939
0.3397283554077148,-0.1554417610168457,-0.1524519920349121,2023-10-21T15:32:05.807999Z,1697902325807,0.4035084960833683,940
0.2946863174438476,-0.1165080070495605,-0.1291866302490234,2023-10-21T15:32:05.828281Z,1697902325828,0.3422036335727229,941
0.2480392456054687,-0.0829250812530517,-0.1073813438415527,2023-10-21T15:32:05.851101Z,1697902325851,0.2827203379075743,942
0.1975355148315429,-0.0541913509368896,-0.0855734348297119,2023-10-21T15:32:05.868771Z,1697902325868,0.2219905288175213,943
0.1398248672485351,-0.0300648212432861,-0.0614404678344726,2023-10-21T15:32:05.889099Z,1697902325889,0.1556593012485282,944
0.0722208023071289,-0.0112431049346923,-0.0325818061828613,2023-10-21T15:32:05.909309Z,1697902325909,0.0800239076063862,945
-0.0048255920410156,0.0004620552062988,0.0022563934326171,2023-10-21T15:32:05.929615Z,1697902325929,0.0053470688122314,946
-0.0860481262207031,0.0029395222663879,0.042022705078125,2023-10-21T15:32:05.950967Z,1697902325950,0.095806203135975,947
-0.1627683639526367,-0.0048513710498809,0.0834436416625976,2023-10-21T15:32:05.970152Z,1697902325970,0.1829751825762106,948
-0.2225332260131836,-0.0216516256332397,0.1201920509338378,2023-10-21T15:32:05.990415Z,1697902325990,0.2538423894468354,949
-0.2547445297241211,-0.0429246425628662,0.1451292037963867,2023-10-21T15:32:06.010646Z,1697902326010,0.2963102869596102,950
-0.2523651123046875,-0.061152696609497,0.1514558792114257,2023-10-21T15:32:06.030825Z,1697902326030,0.3006105213708873,951
-0.2179303169250488,-0.0690851211547851,0.1373109817504882,2023-10-21T15:32:06.051141Z,1697902326051,0.2666846128094128,952
-0.1602711677551269,-0.0627071857452392,0.1056103706359863,2023-10-21T15:32:06.072525Z,1697902326072,0.2019222343961911,953
-0.0901012420654296,-0.0418653488159179,0.0618987083435058,2023-10-21T15:32:06.091722Z,1697902326091,0.1170572139930129,954
-0.0153050422668457,-0.0082137584686279,0.0109310150146484,2023-10-21T15:32:06.111974Z,1697902326111,0.0205230903185012,955
0.0589485168457031,0.0357398986816406,-0.0436325073242187,2023-10-21T15:32:06.134236Z,1697902326134,0.0815847025580168,956
0.1294717788696289,0.0870327949523925,-0.0989661216735839,2023-10-21T15:32:06.152450Z,1697902326152,0.1847483211290481,957
0.1924328804016113,0.1410822868347168,-0.1513457298278808,2023-10-21T15:32:06.172768Z,1697902326172,0.2825600025752194,958
0.2423906326293945,0.1911263465881347,-0.19553804397583,2023-10-21T15:32:06.193017Z,1697902326192,0.3654006373673963,959
0.2753214836120605,0.2310171127319336,-0.2273974418640136,2023-10-21T15:32:06.213220Z,1697902326213,0.4253003906413001,960
0.2899951934814453,0.2571606636047363,-0.2450141906738281,2023-10-21T15:32:06.234081Z,1697902326234,0.4585420076498119,961
0.2902460098266601,0.2708606719970703,-0.2506232261657715,2023-10-21T15:32:06.253817Z,1697902326253,0.4694893516883441,962
0.2819862365722656,0.2760500907897949,-0.2483968734741211,2023-10-21T15:32:06.274153Z,1697902326274,0.4662841376167136,963
0.2711176872253418,0.2774686813354492,-0.2430067062377929,2023-10-21T15:32:06.294381Z,1697902326294,0.457761869015968,964
0.261268138885498,0.2785053253173828,-0.2376079559326172,2023-10-21T15:32:06.317367Z,1697902326317,0.4497597106781683,965
0.2547273635864258,0.2816720008850097,-0.2343049049377441,2023-10-21T15:32:06.334858Z,1697902326334,0.4462330493364889,966
0.2524600028991699,0.2882089614868164,-0.2338557243347168,2023-10-21T15:32:06.355175Z,1697902326355,0.4488752146747168,967
0.2546625137329101,0.2984628677368164,-0.236180305480957,2023-10-21T15:32:06.375437Z,1697902326375,0.4579456474468636,968
0.2609996795654297,0.3120317459106445,-0.2407011985778808,2023-10-21T15:32:06.395588Z,1697902326395,0.4726750577152663,969
0.2707853317260742,0.3278570175170898,-0.24652099609375,2023-10-21T15:32:06.417306Z,1697902326417,0.4915155351850601,970
0.2832212448120117,0.3445634841918945,-0.2528209686279297,2023-10-21T15:32:06.436163Z,1697902326436,0.5126955337520388,971
0.2965226173400879,0.359652042388916,-0.2581973075866699,2023-10-21T15:32:06.456500Z,1697902326456,0.5328612425704653,972
0.3083205223083496,0.3700838088989258,-0.2610816955566406,2023-10-21T15:32:06.476727Z,1697902326476,0.547893440223882,973
0.3165345191955566,0.3735218048095703,-0.2603893280029297,2023-10-21T15:32:06.496884Z,1697902326496,0.5545405689833506,974
0.3209953308105469,0.370363712310791,-0.2567429542541504,2023-10-21T15:32:06.517252Z,1697902326517,0.5532849413800737,975
0.3226909637451172,0.3627581596374511,-0.2516045570373535,2023-10-21T15:32:06.537520Z,1697902326537,0.5468343383404758,976
0.3222994804382324,0.352384090423584,-0.2459287643432617,2023-10-21T15:32:06.557737Z,1697902326557,0.5371521752779325,977
0.3200039863586426,0.3400845527648926,-0.2400159835815429,2023-10-21T15:32:06.577975Z,1697902326577,0.525040690508207,978
0.3163900375366211,0.3268017768859863,-0.2342510223388672,2023-10-21T15:32:06.600343Z,1697902326600,0.5116401066131026,979
