GYR_X,GYR_Y,GYR_Z,DATE,UNIX_TIMESTAMP,Line_Number
0.3771347999572754,1.173707365989685,-0.0014633096288889,2023-10-21T15:27:06.334939Z,1697902026334,0
0.4228965044021606,1.1469687223434448,0.035651545971632,2023-10-21T15:27:06.344037Z,1697902026343,1
0.4765068292617798,1.1167713403701782,0.0686425268650055,2023-10-21T15:27:06.353560Z,1697902026353,2
0.5351722836494446,1.0865739583969116,0.0948490723967552,2023-10-21T15:27:06.368919Z,1697902026368,3
0.595966100692749,1.0652894973754885,0.1128078699111938,2023-10-21T15:27:06.373746Z,1697902026373,4
0.6554297208786011,1.0647573471069336,0.1214547008275985,2023-10-21T15:27:06.385274Z,1697902026385,5
0.7099712491035461,1.093225359916687,0.1205235049128532,2023-10-21T15:27:06.393914Z,1697902026393,6
0.7562650442123413,1.155881643295288,0.1102803349494934,2023-10-21T15:27:06.405284Z,1697902026405,7
0.7919166088104248,1.2537903785705566,0.0920554846525192,2023-10-21T15:27:06.418064Z,1697902026417,8
0.8151965141296387,1.384557008743286,0.067578300833702,2023-10-21T15:27:06.425211Z,1697902026425,9
0.8251736164093018,1.5421953201293943,0.0392433032393455,2023-10-21T15:27:06.434701Z,1697902026434,10
0.8217148780822754,1.7184576988220217,0.0098440833389759,2023-10-21T15:27:06.445426Z,1697902026445,11
0.8060175776481628,1.901105284690857,-0.0183578841388225,2023-10-21T15:27:06.454956Z,1697902026454,12
0.7800770998001099,2.075904369354248,-0.0429680943489074,2023-10-21T15:27:06.468958Z,1697902026468,13
0.7462879419326782,2.2311482429504395,-0.0617250613868236,2023-10-21T15:27:06.475131Z,1697902026475,14
0.7079758048057556,2.3613827228546143,-0.0734315365552902,2023-10-21T15:27:06.486396Z,1697902026486,15
0.6684664487838745,2.462883234024048,-0.0771563276648521,2023-10-21T15:27:06.495319Z,1697902026495,16
0.6302874088287354,2.530993700027466,-0.0728994309902191,2023-10-21T15:27:06.506725Z,1697902026506,17
0.5953009724617004,2.564782857894897,-0.06132597848773,2023-10-21T15:27:06.517953Z,1697902026517,18
0.5643054246902466,2.566246032714844,-0.0433671772480011,2023-10-21T15:27:06.526574Z,1697902026526,19
0.5383649468421936,2.537245988845825,-0.0204863362014293,2023-10-21T15:27:06.536823Z,1697902026536,20
0.5181446671485901,2.481640100479126,0.0059862667694687,2023-10-21T15:27:06.546750Z,1697902026546,21
0.5044427514076233,2.4098050594329834,0.0348533764481544,2023-10-21T15:27:06.556247Z,1697902026556,22
0.4971261918544769,2.3297219276428223,0.0657159090042114,2023-10-21T15:27:06.569036Z,1697902026568,23
0.4947316944599151,2.239794969558716,0.098440833389759,2023-10-21T15:27:06.576360Z,1697902026576,24
0.4953968524932861,2.134303569793701,0.1338263154029846,2023-10-21T15:27:06.587737Z,1697902026587,25
0.4973922669887543,2.013780117034912,0.1721384227275848,2023-10-21T15:27:06.601142Z,1697902026601,26
0.4992546439170837,1.8808850049972528,0.2136432081460952,2023-10-21T15:27:06.607586Z,1697902026607,27
0.4991216361522674,1.7358843088150024,0.2582076489925384,2023-10-21T15:27:06.617945Z,1697902026617,28
0.4955298602581024,1.5766496658325195,0.3062308132648468,2023-10-21T15:27:06.627802Z,1697902026627,29
0.4878142476081848,1.402116775512695,0.3578457236289978,2023-10-21T15:27:06.637317Z,1697902026637,30
0.4759747385978699,1.214147925376892,0.4134514927864074,2023-10-21T15:27:06.652372Z,1697902026652,31
0.4608095288276672,1.016335129737854,0.4729150831699371,2023-10-21T15:27:06.657459Z,1697902026657,32
0.4435158669948578,0.8121368885040283,0.5359704494476318,2023-10-21T15:27:06.668956Z,1697902026668,33
0.4247588813304901,0.6035487055778503,0.6011542081832886,2023-10-21T15:27:06.677623Z,1697902026677,34
0.4048046767711639,0.3949605822563171,0.6660719513893127,2023-10-21T15:27:06.689149Z,1697902026689,35
0.3837862312793731,0.1964825838804245,0.7265997529029846,2023-10-21T15:27:06.701125Z,1697902026701,36
0.362501710653305,0.0200872514396905,0.7780816555023193,2023-10-21T15:27:06.708889Z,1697902026708,37
0.3412172198295593,-0.1245143488049507,0.8163937926292419,2023-10-21T15:27:06.718435Z,1697902026718,38
0.3184694051742553,-0.2341295480728149,0.8394076228141785,2023-10-21T15:27:06.729121Z,1697902026729,39
0.2910656034946441,-0.3142125010490417,0.8479214310646057,2023-10-21T15:27:06.738632Z,1697902026738,40
0.2566113173961639,-0.3766027092933655,0.8452608585357666,2023-10-21T15:27:06.752404Z,1697902026752,41
0.2129780650138855,-0.4348690211772918,0.8364810347557068,2023-10-21T15:27:06.758838Z,1697902026758,42
0.1597668081521988,-0.4984564781188965,0.8258387446403503,2023-10-21T15:27:06.770179Z,1697902026770,43
0.0975096374750137,-0.570956826210022,0.8159946799278259,2023-10-21T15:27:06.778958Z,1697902026778,44
0.0286010522395372,-0.6491773724555969,0.8068157434463501,2023-10-21T15:27:06.790439Z,1697902026790,45
-0.0425690077245235,-0.7251364588737488,0.7953753471374512,2023-10-21T15:27:06.801076Z,1697902026801,46
-0.1110785081982612,-0.790054202079773,0.7774165272712708,2023-10-21T15:27:06.810275Z,1697902026810,47
-0.1726705431938171,-0.8363479971885681,0.749081552028656,2023-10-21T15:27:06.819686Z,1697902026819,48
-0.2249506115913391,-0.8584306836128235,0.708241879940033,2023-10-21T15:27:06.835518Z,1697902026835,49
-0.2657902538776397,-0.8528434634208679,0.6550306081771851,2023-10-21T15:27:06.839859Z,1697902026839,50
-0.2941252589225769,-0.8202515840530396,0.5917091965675354,2023-10-21T15:27:06.852209Z,1697902026852,51
-0.3110198080539703,-0.7703660130500793,0.5226675868034363,2023-10-21T15:27:06.860018Z,1697902026859,52
-0.3207308650016784,-0.7186180949211121,0.4526948034763336,2023-10-21T15:27:06.871450Z,1697902026871,53
-0.3277813792228699,-0.6785765886306763,0.3856486082077026,2023-10-21T15:27:06.884340Z,1697902026884,54
-0.3344327807426452,-0.6539663672447205,0.3240565657615661,2023-10-21T15:27:06.891282Z,1697902026891,55
-0.3408181369304657,-0.6417278051376343,0.2684507966041565,2023-10-21T15:27:06.900863Z,1697902026900,56
-0.3478686213493347,-0.6389341950416565,0.2188313156366348,2023-10-21T15:27:06.911537Z,1697902026911,57
-0.3577126860618591,-0.6462507843971252,0.1740008294582367,2023-10-21T15:27:06.921002Z,1697902026920,58
-0.3711485564708709,-0.6599526405334473,0.1323630064725875,2023-10-21T15:27:06.935437Z,1697902026935,59
-0.3877770602703094,-0.6733884811401367,0.0919224545359611,2023-10-21T15:27:06.941161Z,1697902026941,60
-0.4066670536994934,-0.6807050704956055,0.0508167557418346,2023-10-21T15:27:06.952437Z,1697902026952,61
-0.4274194538593292,-0.6789757013320923,0.0083807734772562,2023-10-21T15:27:06.961320Z,1697902026961,62
-0.4496351480484009,-0.6679343581199646,-0.0351194329559803,2023-10-21T15:27:06.972743Z,1697902026972,63
-0.4725160002708435,-0.6459847092628479,-0.0787526667118072,2023-10-21T15:27:06.984241Z,1697902026984,64
-0.4956628978252411,-0.6163194179534912,-0.1206565350294113,2023-10-21T15:27:06.992630Z,1697902026992,65
-0.5201400518417358,-0.589580774307251,-0.1575053334236145,2023-10-21T15:27:07.002085Z,1697902027001,66
-0.5478099584579468,-0.5802688002586365,-0.1855742782354354,2023-10-21T15:27:07.012780Z,1697902027012,67
-0.5793375968933105,-0.5995578765869141,-0.2015376538038253,2023-10-21T15:27:07.022356Z,1697902027022,68
-0.6139249205589294,-0.6521040201187134,-0.203400045633316,2023-10-21T15:27:07.035339Z,1697902027035,69
-0.6510397791862488,-0.740966796875,-0.1904963105916977,2023-10-21T15:27:07.042686Z,1697902027042,70
-0.6904160976409912,-0.8688068389892578,-0.162959486246109,2023-10-21T15:27:07.053768Z,1697902027053,71
-0.7308566570281982,-1.031899333000183,-0.12265195697546,2023-10-21T15:27:07.067732Z,1697902027067,72
-0.7702329754829407,-1.2211984395980835,-0.0726333707571029,2023-10-21T15:27:07.073623Z,1697902027073,73
-0.8065496683120728,-1.4245984554290771,-0.0180918294936418,2023-10-21T15:27:07.084217Z,1697902027084,74
-0.83821040391922,-1.6317232847213743,0.0351194329559803,2023-10-21T15:27:07.093860Z,1697902027093,75
-0.8634857535362244,-1.831265568733216,0.0811471715569496,2023-10-21T15:27:07.103378Z,1697902027103,76
-0.8809124231338501,-2.0104544162750244,0.1162666082382202,2023-10-21T15:27:07.118621Z,1697902027118,77
-0.8906234502792358,-2.1613082885742188,0.1379501968622207,2023-10-21T15:27:07.123567Z,1697902027123,78
-0.8944813013076782,-2.281831979751587,0.1448676586151123,2023-10-21T15:27:07.135545Z,1697902027135,79
-0.8950133919715881,-2.3716259002685547,0.1375511139631271,2023-10-21T15:27:07.143758Z,1697902027143,80
-0.8939492106437683,-2.430025339126587,0.1179959699511528,2023-10-21T15:27:07.155180Z,1697902027155,81
-0.8930180072784424,-2.454369306564331,0.0887297764420509,2023-10-21T15:27:07.167376Z,1697902027167,82
-0.893683135509491,-2.443594217300415,0.0522800646722316,2023-10-21T15:27:07.175038Z,1697902027175,83
-0.8982060551643372,-2.399960994720459,0.0107752801850438,2023-10-21T15:27:07.184364Z,1697902027184,84
-0.9080501794815063,-2.3299880027771,-0.0332570374011993,2023-10-21T15:27:07.195213Z,1697902027195,85
-0.9236144423484802,-2.239661931991577,-0.0774223878979682,2023-10-21T15:27:07.204705Z,1697902027204,86
-0.9438347220420836,-2.132175207138061,-0.1194592788815498,2023-10-21T15:27:07.218607Z,1697902027218,87
-0.9665825366973876,-2.013381004333496,-0.1577713936567306,2023-10-21T15:27:07.224851Z,1697902027224,88
-0.9905276298522948,-1.8912612199783323,-0.1912944763898849,2023-10-21T15:27:07.236185Z,1697902027236,89
-1.013275384902954,-1.7740634679794312,-0.2192303985357284,2023-10-21T15:27:07.245081Z,1697902027245,90
-1.0324314832687378,-1.6680400371551514,-0.2411800324916839,2023-10-21T15:27:07.256521Z,1697902027256,91
-1.0465325117111206,-1.5798423290252686,-0.2578085660934448,2023-10-21T15:27:07.267522Z,1697902027267,92
-1.0542480945587158,-1.5138603448867798,-0.2696480751037597,2023-10-21T15:27:07.276320Z,1697902027276,93
-1.0545141696929932,-1.4698280096054075,-0.2769646048545837,2023-10-21T15:27:07.285744Z,1697902027285,94
-1.046399474143982,-1.44588303565979,-0.2804233431816101,2023-10-21T15:27:07.301819Z,1697902027301,95
-1.0296379327774048,-1.437901258468628,-0.2804233431816101,2023-10-21T15:27:07.305938Z,1697902027305,96
-1.0046286582946775,-1.4432224035263062,-0.2773636877536773,2023-10-21T15:27:07.318559Z,1697902027318,97
-0.9737660884857178,-1.4635757207870483,-0.2727077007293701,2023-10-21T15:27:07.326110Z,1697902027326,98
-0.939976930618286,-1.4989612102508545,-0.2669875025749206,2023-10-21T15:27:07.337472Z,1697902027337,99
-0.9049904942512512,-1.5425944328308103,-0.2602030634880066,2023-10-21T15:27:07.350845Z,1697902027350,100
-0.8688068389892578,-1.583700180053711,-0.2512901723384857,2023-10-21T15:27:07.357335Z,1697902027357,101
-0.8326231837272644,-1.615094780921936,-0.2395837008953094,2023-10-21T15:27:07.367389Z,1697902027367,102
-0.7987010478973389,-1.6347829103469849,-0.2254827171564102,2023-10-21T15:27:07.377567Z,1697902027377,103
-0.7687696814537048,-1.6410353183746338,-0.2099184244871139,2023-10-21T15:27:07.387086Z,1697902027387,104
-0.7430952787399292,-1.631989359855652,-0.1938220113515854,2023-10-21T15:27:07.402439Z,1697902027402,105
-0.7207465171813965,-1.607911229133606,-0.177725613117218,2023-10-21T15:27:07.407253Z,1697902027407,106
-0.7006592750549316,-1.570663332939148,-0.1625604033470153,2023-10-21T15:27:07.418692Z,1697902027418,107
-0.681370198726654,-1.5229063034057615,-0.1503218114376068,2023-10-21T15:27:07.427410Z,1697902027427,108
-0.6618150472640991,-1.4675666093826294,-0.1442025154829025,2023-10-21T15:27:07.438858Z,1697902027438,109
-0.6406635642051697,-1.4057084321975708,-0.1472621709108352,2023-10-21T15:27:07.450671Z,1697902027450,110
-0.6168515682220459,-1.337332010269165,-0.1610970944166183,2023-10-21T15:27:07.458759Z,1697902027458,111
-0.5907780528068542,-1.260175704956055,-0.1853082180023193,2023-10-21T15:27:07.468126Z,1697902027468,112
-0.5637733340263367,-1.1706477403640747,-0.2189643383026123,2023-10-21T15:27:07.479102Z,1697902027479,113
-0.5100299119949341,-1.040147066116333,-0.2206937074661255,2023-10-21T15:27:07.488393Z,1697902027488,114
-0.4906078279018402,-0.9257429242134094,-0.2728407382965088,2023-10-21T15:27:07.501716Z,1697902027501,115
-0.5019152164459229,-0.8315590023994446,-0.3639650344848633,2023-10-21T15:27:07.508607Z,1697902027508,116
-0.4838233888149261,-0.7144942283630371,-0.4052037596702575,2023-10-21T15:27:07.519912Z,1697902027519,117
-0.4651994407176971,-0.6161863803863525,-0.4424516260623932,2023-10-21T15:27:07.528689Z,1697902027528,118
-0.4417864978313446,-0.5455484390258789,-0.4746444523334503,2023-10-21T15:27:07.540309Z,1697902027540,119
-0.4103918373584747,-0.5094978213310242,-0.5024473071098328,2023-10-21T15:27:07.550651Z,1697902027550,120
-0.3690201044082641,-0.5104290246963501,-0.5262593626976013,2023-10-21T15:27:07.559991Z,1697902027559,121
-0.3186024129390716,-0.5438190698623657,-0.5460805892944336,2023-10-21T15:27:07.569450Z,1697902027569,122
-0.2617993950843811,-0.5994248390197754,-0.5621769428253174,2023-10-21T15:27:07.584998Z,1697902027584,123
-0.2027349025011062,-0.6640765070915222,-0.5749476552009583,2023-10-21T15:27:07.589618Z,1697902027589,124
-0.1463309675455093,-0.7248703837394714,-0.5846587419509888,2023-10-21T15:27:07.601743Z,1697902027601,125
-0.096977524459362,-0.7716963291168213,-0.5910440683364868,2023-10-21T15:27:07.609831Z,1697902027609,126
-0.0576011911034584,-0.7997652292251587,-0.5945028066635132,2023-10-21T15:27:07.621230Z,1697902027621,127
-0.0293992217630147,-0.8104075193405151,-0.5947688817977905,2023-10-21T15:27:07.633807Z,1697902027633,128
-0.0117064770311117,-0.8074808716773987,-0.5915762186050415,2023-10-21T15:27:07.641073Z,1697902027641,129
-0.0025275349617004,-0.7937789559364319,-0.5830624103546143,2023-10-21T15:27:07.650475Z,1697902027650,130
0.0010642252163961,-0.7703660130500793,-0.567764163017273,2023-10-21T15:27:07.661494Z,1697902027661,131
0.0015963378828018,-0.7403016686439514,-0.5455484390258789,2023-10-21T15:27:07.670851Z,1697902027670,132
0.0013302814913913,-0.707709789276123,-0.5180116295814514,2023-10-21T15:27:07.685083Z,1697902027684,133
0.0021284504327923,-0.6760490536689758,-0.4866169691085815,2023-10-21T15:27:07.690929Z,1697902027690,134
0.0055871824733912,-0.6457186341285706,-0.4534929692745209,2023-10-21T15:27:07.702927Z,1697902027702,135
0.0119725335389375,-0.614989161491394,-0.4207680523395538,2023-10-21T15:27:07.711125Z,1697902027711,136
0.0214175321161746,-0.5835945010185242,-0.3912357985973358,2023-10-21T15:27:07.722767Z,1697902027722,137
0.0332570374011993,-0.5502044558525085,-0.3662264943122864,2023-10-21T15:27:07.733835Z,1697902027733,138
0.0469589382410049,-0.5130895972251892,-0.3464052975177765,2023-10-21T15:27:07.742355Z,1697902027742,139
0.0617250613868236,-0.4722499251365661,-0.3312400877475738,2023-10-21T15:27:07.751821Z,1697902027751,140
0.0775554105639457,-0.4294148683547973,-0.3208639025688171,2023-10-21T15:27:07.762553Z,1697902027762,141
0.0939178764820098,-0.3871119320392608,-0.3140794634819031,2023-10-21T15:27:07.772090Z,1697902027772,142
0.1101473122835159,-0.3468043804168701,-0.3094234764575958,2023-10-21T15:27:07.784977Z,1697902027784,143
0.1263767480850219,-0.3082262277603149,-0.3050335645675659,2023-10-21T15:27:07.792274Z,1697902027792,144
0.142606183886528,-0.2705792486667633,-0.2990472912788391,2023-10-21T15:27:07.803576Z,1697902027803,145
0.159101665019989,-0.233198344707489,-0.2904004454612732,2023-10-21T15:27:07.816985Z,1697902027816,146
0.1754641383886337,-0.1978128552436828,-0.2778958082199096,2023-10-21T15:27:07.823432Z,1697902027823,147
0.19102843105793,-0.1656200438737869,-0.2611342668533325,2023-10-21T15:27:07.833592Z,1697902027833,148
0.2053954601287841,-0.1359547674655914,-0.239982783794403,2023-10-21T15:27:07.843665Z,1697902027843,149
0.2185652554035186,-0.1097482219338417,-0.2148404717445373,2023-10-21T15:27:07.853129Z,1697902027853,150
0.2084551155567169,-0.0905921682715416,-0.1867715269327163,2023-10-21T15:27:07.868110Z,1697902027868,151
0.2245515137910843,-0.0790187194943428,-0.1571062505245208,2023-10-21T15:27:07.873334Z,1697902027873,152
0.2639278471469879,-0.0734315365552902,-0.124115265905857,2023-10-21T15:27:07.884787Z,1697902027884,153
0.2793591320514679,-0.074229709804058,-0.0862022414803505,2023-10-21T15:27:07.893505Z,1697902027893,154
0.2979830503463745,-0.0832756236195564,-0.0446974597871303,2023-10-21T15:27:07.904897Z,1697902027904,155
0.3194005787372589,-0.1042940691113472,0.000266056304099,2023-10-21T15:27:07.916949Z,1697902027916,156
0.3424144685268402,-0.1400786489248275,0.04855527728796,2023-10-21T15:27:07.924724Z,1697902027924,157
0.3660934865474701,-0.1911614537239074,0.1001701951026916,2023-10-21T15:27:07.934215Z,1697902027934,158
0.3899055123329162,-0.255680114030838,0.1547117382287979,2023-10-21T15:27:07.944912Z,1697902027944,159
0.4138505756855011,-0.3301758766174316,0.2116477936506271,2023-10-21T15:27:07.954491Z,1697902027954,160
0.4384607970714569,-0.4102588295936584,0.2709783315658569,2023-10-21T15:27:07.968168Z,1697902027968,161
0.463204026222229,-0.4922041594982147,0.3317722082138061,2023-10-21T15:27:07.974552Z,1697902027974,162
0.4874151349067688,-0.5724201202392578,0.3925660848617553,2023-10-21T15:27:07.985924Z,1697902027985,163
0.5101629495620728,-0.6483792066574097,0.4506993889808655,2023-10-21T15:27:07.994760Z,1697902027994,164
0.5307823419570923,-0.7184850573539734,0.5039106607437134,2023-10-21T15:27:08.006189Z,1697902028006,165
0.5484750866889954,-0.7808752655982971,0.5503374934196472,2023-10-21T15:27:08.016804Z,1697902028016,166
0.5624430179595947,-0.8356828689575195,0.5882505178451538,2023-10-21T15:27:08.026362Z,1697902028026,167
0.5714889168739319,-0.8849032521247864,0.6168515682220459,2023-10-21T15:27:08.035515Z,1697902028035,168
0.5753467679023743,-0.9297337532043456,0.6354754567146301,2023-10-21T15:27:08.051313Z,1697902028051,169
0.5744155645370483,-0.9680458903312684,0.6446544528007507,2023-10-21T15:27:08.055689Z,1697902028055,170
0.5696265697479248,-0.9961147904396056,0.6458516716957092,2023-10-21T15:27:08.068103Z,1697902028068,171
0.5611127614974976,-1.0134084224700928,0.640929639339447,2023-10-21T15:27:08.075845Z,1697902028075,172
0.548608124256134,-1.0220552682876587,0.6313515901565552,2023-10-21T15:27:08.087318Z,1697902028087,173
0.5326447486877441,-1.0225874185562134,0.618713915348053,2023-10-21T15:27:08.100241Z,1697902028100,174
0.5137547254562378,-1.0148717164993286,0.605012059211731,2023-10-21T15:27:08.107179Z,1697902028107,175
0.4923371970653534,-1.000105619430542,0.5917091965675354,2023-10-21T15:27:08.116912Z,1697902028116,176
0.4685251414775848,-0.9814817309379578,0.5801357626914978,2023-10-21T15:27:08.127371Z,1697902028127,177
0.4428507089614868,-0.9616605043411256,0.570956826210022,2023-10-21T15:27:08.136823Z,1697902028136,178
0.4159790277481079,-0.9406420588493348,0.563640296459198,2023-10-21T15:27:08.151231Z,1697902028151,179
0.3884422183036804,-0.918160319328308,0.5572549104690552,2023-10-21T15:27:08.156986Z,1697902028156,180
0.359575092792511,-0.8952794671058655,0.5503374934196472,2023-10-21T15:27:08.168244Z,1697902028168,181
0.3285795450210571,-0.8735958933830261,0.5406264066696167,2023-10-21T15:27:08.177188Z,1697902028177,182
0.2950564324855804,-0.8525774478912354,0.5265254378318787,2023-10-21T15:27:08.188694Z,1697902028188,183
0.2592718601226806,-0.829563558101654,0.5067042112350464,2023-10-21T15:27:08.200064Z,1697902028199,184
0.2218909561634063,-0.8020267486572266,0.4808967709541321,2023-10-21T15:27:08.208514Z,1697902028208,185
0.1842439919710159,-0.7700999975204468,0.4489700198173523,2023-10-21T15:27:08.217869Z,1697902028217,186
0.1479272991418838,-0.7359117269515991,0.4107909202575683,2023-10-21T15:27:08.228654Z,1697902028228,187
0.1141381561756134,-0.7025216817855835,0.3659604489803314,2023-10-21T15:27:08.238151Z,1697902028238,188
0.0827435106039047,-0.6727233529090881,0.3136803805828094,2023-10-21T15:27:08.251199Z,1697902028251,189
0.053211260586977,-0.6474480032920837,0.2540837824344635,2023-10-21T15:27:08.258284Z,1697902028258,190
0.0246102083474397,-0.6241680979728699,0.1881018131971359,2023-10-21T15:27:08.269631Z,1697902028269,191
-0.0045229573734104,-0.5976954698562622,0.1187941431999206,2023-10-21T15:27:08.283349Z,1697902028283,192
-0.0360506288707256,-0.5613787770271301,0.0490873865783214,2023-10-21T15:27:08.289463Z,1697902028289,193
-0.0719682276248931,-0.5086996555328369,-0.0179588012397289,2023-10-21T15:27:08.299957Z,1697902028299,194
-0.1138720959424972,-0.4359332621097564,-0.0798168927431106,2023-10-21T15:27:08.309797Z,1697902028309,195
-0.1614961773157119,-0.3426805138587951,-0.1347575187683105,2023-10-21T15:27:08.319178Z,1697902028319,196
-0.2136432081460952,-0.2322671562433242,-0.1818494796752929,2023-10-21T15:27:08.334510Z,1697902028334,197
-0.2677856683731079,-0.1120097041130065,-0.2226891219615936,2023-10-21T15:27:08.339369Z,1697902028339,198
-0.321795105934143,0.0098440833389759,-0.2603361010551452,2023-10-21T15:27:08.351136Z,1697902028351,199
-0.2500929236412048,-0.4358002245426178,-0.4006807804107666,2023-10-21T15:37:23.557850Z,1697902643557,200
-0.2193634212017059,-0.4691902995109558,-0.4029422700405121,2023-10-21T15:37:23.569068Z,1697902643569,201
-0.1867715269327163,-0.5105620622634888,-0.4095936715602875,2023-10-21T15:37:23.579030Z,1697902643578,202
-0.1543126553297042,-0.5545943379402161,-0.4193047285079956,2023-10-21T15:37:23.589031Z,1697902643589,203
-0.1242482960224151,-0.5962321758270264,-0.4300800263881683,2023-10-21T15:37:23.598513Z,1697902643598,204
-0.0993720293045044,-0.6304203867912292,-0.4397910833358764,2023-10-21T15:37:23.613085Z,1697902643613,205
-0.0815462544560432,-0.6540994048118591,-0.4476397335529327,2023-10-21T15:37:23.618778Z,1697902643618,206
-0.071303091943264,-0.6658058762550354,-0.4528278410434723,2023-10-21T15:37:23.629724Z,1697902643629,207
-0.0678443610668182,-0.6671361923217773,-0.4542911350727081,2023-10-21T15:37:23.638969Z,1697902643638,208
-0.0695737227797508,-0.6618150472640991,-0.4508323967456817,2023-10-21T15:37:23.650137Z,1697902643650,209
-0.0746287927031517,-0.6535673141479492,-0.441387414932251,2023-10-21T15:37:23.662339Z,1697902643662,210
-0.0807480886578559,-0.6430580615997314,-0.425690084695816,2023-10-21T15:37:23.670122Z,1697902643670,211
-0.0860692113637924,-0.6292231678962708,-0.4044055938720703,2023-10-21T15:37:23.679541Z,1697902643679,212
-0.0893949195742607,-0.611397385597229,-0.3783320784568786,2023-10-21T15:37:23.690373Z,1697902643690,213
-0.0893949195742607,-0.5913101434707642,-0.3487998247146606,2023-10-21T15:37:23.699857Z,1697902643699,214
-0.0856701284646987,-0.5725531578063965,-0.3183363676071167,2023-10-21T15:37:23.712591Z,1697902643712,215
-0.0778214707970619,-0.5607136487960815,-0.2894692718982696,2023-10-21T15:37:23.720037Z,1697902643720,216
-0.0655828788876533,-0.560048520565033,-0.2649920880794525,2023-10-21T15:37:23.731146Z,1697902643731,217
-0.0489543601870536,-0.5702916979789734,-0.2466342002153396,2023-10-21T15:37:23.740261Z,1697902643740,218
-0.0284680239856243,-0.5879844427108765,-0.2341295480728149,2023-10-21T15:37:23.751406Z,1697902643751,219
-0.0054541542194783,-0.6099340915679932,-0.2264139205217361,2023-10-21T15:37:23.762320Z,1697902643762,220
0.0188899971544742,-0.6350764036178589,-0.2216248959302902,2023-10-21T15:37:23.771440Z,1697902643771,221
0.0429680943489074,-0.6618150472640991,-0.218166172504425,2023-10-21T15:37:23.780882Z,1697902643780,222
0.0657159090042114,-0.6862922310829163,-0.2140422910451889,2023-10-21T15:37:23.791614Z,1697902643791,223
0.0862022414803505,-0.7051822543144226,-0.2073908895254135,2023-10-21T15:37:23.801157Z,1697902643801,224
0.1032298430800437,-0.719150185585022,-0.1978128552436828,2023-10-21T15:37:23.812484Z,1697902643812,225
0.1163996309041976,-0.7301915287971497,-0.1857073009014129,2023-10-21T15:37:23.821351Z,1697902643821,226
0.1263767480850219,-0.7388383746147156,-0.1716063171625137,2023-10-21T15:37:23.832433Z,1697902643832,227
0.1342253983020782,-0.745090663433075,-0.1560420244932174,2023-10-21T15:37:23.841450Z,1697902643841,228
0.1396795660257339,-0.7493475675582886,-0.1392804682254791,2023-10-21T15:37:23.852730Z,1697902643852,229
0.1423401236534118,-0.751875102519989,-0.1219868138432502,2023-10-21T15:37:23.862124Z,1697902643862,230
0.1416749805212021,-0.7517420649528503,-0.1053582951426506,2023-10-21T15:37:23.872723Z,1697902643872,231
0.1366199105978012,-0.7470861077308655,-0.0911242812871933,2023-10-21T15:37:23.882252Z,1697902643882,232
0.1253125220537185,-0.7359117269515991,-0.0802159756422042,2023-10-21T15:37:23.895858Z,1697902643895,233
0.1060234382748603,-0.7175538539886475,-0.0730324536561966,2023-10-21T15:37:23.902485Z,1697902643902,234
0.0787526667118072,-0.693209707736969,-0.0707709789276123,2023-10-21T15:37:23.913444Z,1697902643913,235
0.0446974597871303,-0.6663380265235901,-0.0743627399206161,2023-10-21T15:37:23.922617Z,1697902643922,236
0.0058532385155558,-0.6407966017723083,-0.0844728797674179,2023-10-21T15:37:23.933765Z,1697902643933,237
-0.0349864028394222,-0.6189799904823303,-0.1008353382349014,2023-10-21T15:37:23.945431Z,1697902643945,238
-0.075559988617897,-0.6024845242500305,-0.1219868138432502,2023-10-21T15:37:23.953806Z,1697902643953,239
-0.11307393014431,-0.5927734375,-0.1460649073123932,2023-10-21T15:37:23.963230Z,1697902643963,240
-0.1448676586151123,-0.5890486836433411,-0.1702760308980941,2023-10-21T15:37:23.973987Z,1697902643973,241
-0.1698769479990005,-0.5867871642112732,-0.1904963105916977,2023-10-21T15:37:23.983549Z,1697902643983,242
-0.1895651221275329,-0.5794706344604492,-0.2023358196020126,2023-10-21T15:37:23.995638Z,1697902643995,243
-0.2073908895254135,-0.5635072588920593,-0.2020697593688964,2023-10-21T15:37:24.003792Z,1697902644003,244
-0.2277441918849945,-0.5366355776786804,-0.1887669414281845,2023-10-21T15:37:24.014805Z,1697902644014,245
-0.2539507448673248,-0.4972592294216156,-0.1646888554096222,2023-10-21T15:37:24.023905Z,1697902644023,246
-0.289336234331131,-0.4448461532592773,-0.133427232503891,2023-10-21T15:37:24.035155Z,1697902644035,247
-0.3365612328052521,-0.3823229074478149,-0.1009683683514595,2023-10-21T15:37:24.045313Z,1697902644045,248
-0.396822988986969,-0.3140794634819031,-0.0739636495709419,2023-10-21T15:37:24.055184Z,1697902644055,249
-0.4695893824100494,-0.2427763789892196,-0.0582663305103778,2023-10-21T15:37:24.064558Z,1697902644064,250
-0.5524659156799316,-0.1709411740303039,-0.0568030215799808,2023-10-21T15:37:24.075307Z,1697902644075,251
-0.6422598958015442,-0.1022986471652984,-0.0687755569815635,2023-10-21T15:37:24.084874Z,1697902644084,252
-0.7348474860191345,-0.0391102768480777,-0.0891288593411445,2023-10-21T15:37:24.095829Z,1697902644095,253
-0.825971782207489,0.0206193644553422,-0.1101473122835159,2023-10-21T15:37:24.105005Z,1697902644104,254
-0.910976767539978,0.0812802016735076,-0.1231840699911117,2023-10-21T15:37:24.116156Z,1697902644116,255
-0.9848074316978456,0.1456658244132995,-0.1203904747962951,2023-10-21T15:37:24.128654Z,1697902644128,256
-1.043206810951233,0.2131111025810241,-0.0965784415602684,2023-10-21T15:37:24.136197Z,1697902644136,257
-1.0829821825027466,0.2798912227153778,-0.0508167557418346,2023-10-21T15:37:24.145601Z,1697902644145,258
-1.1021382808685305,0.3413502275943756,0.0133028151467442,2023-10-21T15:37:24.156381Z,1697902644156,259
-1.1006749868392944,0.3928321301937103,0.0887297764420509,2023-10-21T15:37:24.165917Z,1697902644165,260
-1.0812528133392334,0.4316763579845428,0.1678815335035324,2023-10-21T15:37:24.178995Z,1697902644178,261
-1.0486608743667605,0.4578829109668731,0.2447717934846878,2023-10-21T15:37:24.186113Z,1697902644186,262
-1.0084863901138306,0.4731811285018921,0.314345508813858,2023-10-21T15:37:24.197146Z,1697902644197,263
-0.9659174084663392,0.4803646504878998,0.373410016298294,2023-10-21T15:37:24.206344Z,1697902644206,264
-0.9244126081466676,0.4819609820842743,0.4207680523395538,2023-10-21T15:37:24.217501Z,1697902644217,265
-0.8858344554901123,0.4798325300216675,0.4569517076015472,2023-10-21T15:37:24.228592Z,1697902644228,266
-0.8505820035934448,0.4745114147663116,0.4835573434829712,2023-10-21T15:37:24.237413Z,1697902644237,267
-0.818256139755249,0.466130644083023,0.5025803446769714,2023-10-21T15:37:24.246933Z,1697902644246,268
-0.7876597046852112,0.4553553760051727,0.5161492228507996,2023-10-21T15:37:24.257771Z,1697902644257,269
-0.7579944133758545,0.4432497918605804,0.5266584753990173,2023-10-21T15:37:24.267269Z,1697902644267,270
-0.7285951972007751,0.429813951253891,0.5361034274101257,2023-10-21T15:37:24.278969Z,1697902644278,271
-0.6993290185928345,0.4153138995170593,0.5463466048240662,2023-10-21T15:37:24.287374Z,1697902644287,272
-0.6699298024177551,0.4004147350788116,0.559117317199707,2023-10-21T15:37:24.298443Z,1697902644298,273
-0.6395993828773499,0.3875110149383545,0.5760118961334229,2023-10-21T15:37:24.307545Z,1697902644307,274
-0.6070074439048767,0.3777999579906463,0.597296416759491,2023-10-21T15:37:24.318838Z,1697902644318,275
-0.5712229013442993,0.3690201044082641,0.6211084127426147,2023-10-21T15:37:24.328288Z,1697902644328,276
-0.5315805077552795,0.355717271566391,0.6442553400993347,2023-10-21T15:37:24.338839Z,1697902644338,277
-0.4878142476081848,0.3328364491462707,0.6630123257637024,2023-10-21T15:37:24.348420Z,1697902644348,278
-0.4403231739997864,0.2987812161445617,0.6751178503036499,2023-10-21T15:37:24.362188Z,1697902644362,279
-0.3900385499000549,0.2559461593627929,0.6801729202270508,2023-10-21T15:37:24.368511Z,1697902644368,280
-0.3380245268344879,0.2076569497585296,0.6784435510635376,2023-10-21T15:37:24.379459Z,1697902644379,281
-0.2858774960041046,0.1581704765558242,0.6711270213127136,2023-10-21T15:37:24.388701Z,1697902644388,282
-0.2351937741041183,0.1118766739964485,0.65915447473526,2023-10-21T15:37:24.399841Z,1697902644399,283
-0.1885008960962295,0.0707709789276123,0.6423929333686829,2023-10-21T15:37:24.411777Z,1697902644411,284
-0.1484594196081161,0.0339221805334091,0.6200442314147949,2023-10-21T15:37:24.419873Z,1697902644419,285
-0.1165326610207557,0.0014633096288889,0.5914431810379028,2023-10-21T15:37:24.429343Z,1697902644429,286
-0.0927206203341484,-0.0242111235857009,0.5560576915740967,2023-10-21T15:37:24.440076Z,1697902644440,287
-0.0774223878979682,-0.0413717553019523,0.5132226347923279,2023-10-21T15:37:24.449603Z,1697902644449,288
-0.0666471049189567,-0.0441653467714786,0.4540250897407532,2023-10-21T15:37:24.462124Z,1697902644462,289
-0.0698397830128669,-0.0496194995939731,0.3938963711261749,2023-10-21T15:37:24.469817Z,1697902644469,290
-0.0726333707571029,-0.0542754866182804,0.3426805138587951,2023-10-21T15:37:24.480880Z,1697902644480,291
-0.0880646333098411,-0.053211260586977,0.2637948393821716,2023-10-21T15:37:24.489989Z,1697902644489,292
-0.1177299171686172,-0.0568030215799808,0.1689457595348358,2023-10-21T15:37:24.501211Z,1697902644501,293
-0.1350235790014267,-0.059463582932949,0.080881118774414,2023-10-21T15:37:24.511535Z,1697902644511,294
-0.1516520977020263,-0.066114991903305,-0.0094449985772371,2023-10-21T15:37:24.521175Z,1697902644521,295
-0.1653539985418319,-0.0750278756022453,-0.0968444943428039,2023-10-21T15:37:24.530636Z,1697902644530,296
-0.1745329350233078,-0.0850049927830696,-0.1762623041868209,2023-10-21T15:37:24.545160Z,1697902644545,297
-0.1790558993816375,-0.0968444943428039,-0.2426433563232422,2023-10-21T15:37:24.550890Z,1697902644550,298
-0.1783907562494278,-0.1097482219338417,-0.2909325659275055,2023-10-21T15:37:24.561848Z,1697902644561,299
-0.1726705431938171,-0.1199913918972015,-0.3167400360107422,2023-10-21T15:37:24.571093Z,1697902644571,300
-0.1626934260129928,-0.1233171001076698,-0.318203330039978,2023-10-21T15:37:24.582252Z,1697902644582,301
-0.1452667415142059,-0.1140051260590553,-0.2900013625621795,2023-10-21T15:37:24.594938Z,1697902644594,302
-0.124115265905857,-0.0973766073584556,-0.2475653886795044,2023-10-21T15:37:24.602324Z,1697902644602,303
-0.1060234382748603,-0.0831425935029983,-0.2115147560834884,2023-10-21T15:37:24.611639Z,1697902644611,304
-0.1052252650260925,-0.0734315365552902,-0.1614961773157119,2023-10-21T15:37:24.622563Z,1697902644622,305
-0.1054913252592086,-0.0589314699172973,-0.1003032252192497,2023-10-21T15:37:24.631965Z,1697902644631,306
-0.0907251983880996,-0.0365827418863773,-0.0478901341557502,2023-10-21T15:37:24.645162Z,1697902644645,307
-0.0747618228197097,-0.0170276034623384,-0.0041238726116716,2023-10-21T15:37:24.652193Z,1697902644652,308
-0.0614590048789978,-0.0078486613929271,0.0139679564163088,2023-10-21T15:37:24.663373Z,1697902644663,309
-0.0421699248254299,0.0003990844707004,0.0336561240255832,2023-10-21T15:37:24.672502Z,1697902644672,310
-0.025674432516098,0.0074495766311883,0.0505506992340087,2023-10-21T15:37:24.683637Z,1697902644683,311
-0.0219496451318264,0.0063853515312075,0.0431011207401752,2023-10-21T15:37:24.694990Z,1697902644694,312
0.0046559851616621,-0.0034587320405989,0.0268716868013143,2023-10-21T15:37:24.703647Z,1697902644703,313
0.0272707715630531,-0.0119725335389375,0.0130367586389184,2023-10-21T15:37:24.713Z,1697902644712,314
0.0316606983542442,-0.0151652097702026,-0.0138349281623959,2023-10-21T15:37:24.723804Z,1697902644723,315
0.0355185158550739,-0.017825772985816,-0.0367157682776451,2023-10-21T15:37:24.733300Z,1697902644733,316
0.0228808429092168,-0.0026605629827827,-0.0502846427261829,2023-10-21T15:37:24.745250Z,1697902644745,317
0.0121055617928504,0.010376195423305,-0.0618580915033817,2023-10-21T15:37:24.753486Z,1697902644753,318
-0.0107752801850438,0.0486883036792278,-0.0517479516565799,2023-10-21T15:37:24.764610Z,1697902644764,319
-0.0433671772480011,0.1081518903374672,-0.0343212634325027,2023-10-21T15:37:24.773712Z,1697902644773,320
-0.0627892911434173,0.1480603367090225,-0.0073165483772754,2023-10-21T15:37:24.784905Z,1697902644784,321
-0.0772893577814102,0.184776097536087,0.024078095331788,2023-10-21T15:37:24.794511Z,1697902644794,322
-0.0844728797674179,0.2153725773096084,0.0578672476112842,2023-10-21T15:37:24.804924Z,1697902644804,323
-0.0828765407204628,0.2382534146308899,0.0947160422801971,2023-10-21T15:37:24.814371Z,1697902644814,324
-0.0715691447257995,0.2536846995353699,0.1375511139631271,2023-10-21T15:37:24.828931Z,1697902644828,325
-0.0506837256252765,0.2641939222812652,0.1902302503585815,2023-10-21T15:37:24.834607Z,1697902644834,326
-0.0211514756083488,0.2737719416618347,0.2547489106655121,2023-10-21T15:37:24.845577Z,1697902644845,327
0.013701899908483,0.2856114506721496,0.3295107185840606,2023-10-21T15:37:24.854824Z,1697902644854,328
0.0493534430861473,0.3018408715724945,0.4097267091274261,2023-10-21T15:37:24.865942Z,1697902644865,329
0.0814132317900657,0.322726309299469,0.489144504070282,2023-10-21T15:37:24.878067Z,1697902644877,330
0.1066885814070701,0.3473365008831024,0.5601815581321716,2023-10-21T15:37:24.885921Z,1697902644885,331
0.123982235789299,0.3746072649955749,0.6160533428192139,2023-10-21T15:37:24.895405Z,1697902644895,332
0.1328951269388198,0.4033413529396057,0.6515718698501587,2023-10-21T15:37:24.906166Z,1697902644906,333
0.1355556845664978,0.4314102828502655,0.6648747324943542,2023-10-21T15:37:24.916049Z,1697902644916,334
0.1350235790014267,0.4557544589042663,0.656360924243927,2023-10-21T15:37:24.928502Z,1697902644928,335
0.1344914585351944,0.4735802114009857,0.6292231678962708,2023-10-21T15:37:24.935867Z,1697902644935,336
0.1360878050327301,0.4824931025505066,0.5873193144798279,2023-10-21T15:37:24.947007Z,1697902644946,337
0.1399456113576889,0.4812958538532257,0.5351722836494446,2023-10-21T15:37:24.956048Z,1697902644956,338
0.1457988619804382,0.4710526764392853,0.4763738214969635,2023-10-21T15:37:24.967596Z,1697902644967,339
0.1528493463993072,0.4542911350727081,0.4129193723201751,2023-10-21T15:37:24.978169Z,1697902644978,340
0.1606980115175247,0.4340708553791046,0.3454741239547729,2023-10-21T15:37:24.987290Z,1697902644987,341
0.1698769479990005,0.4118551611900329,0.2733728587627411,2023-10-21T15:37:24.996707Z,1697902644996,342
0.1803861707448959,0.3867128491401672,0.1967486441135406,2023-10-21T15:37:25.007513Z,1697902645007,343
0.1927577853202819,0.3571805953979492,0.117330826818943,2023-10-21T15:37:25.017293Z,1697902645017,344
0.2076569497585296,0.322061151266098,0.0387111939489841,2023-10-21T15:37:25.028441Z,1697902645028,345
0.2258818000555038,0.2833499610424042,-0.033789150416851,2023-10-21T15:37:25.037252Z,1697902645037,346
0.2480975091457367,0.2450378537178039,-0.0941839292645454,2023-10-21T15:37:25.048231Z,1697902645048,347
0.2733728587627411,0.2121798992156982,-0.1371520310640335,2023-10-21T15:37:25.057437Z,1697902645057,348
0.2989142537117004,0.1878357529640197,-0.1589686423540115,2023-10-21T15:37:25.068487Z,1697902645068,349
0.3216620683670044,0.1740008294582367,-0.160564973950386,2023-10-21T15:37:25.078106Z,1697902645078,350
0.3388226926326751,0.1730696260929107,-0.1465970277786255,2023-10-21T15:37:25.088629Z,1697902645088,351
0.3491989076137543,0.1867715269327163,-0.1227849870920181,2023-10-21T15:37:25.098065Z,1697902645097,352
0.3519924879074096,0.2129780650138855,-0.0949821025133133,2023-10-21T15:37:25.111735Z,1697902645111,353
0.3478686213493347,0.2459690570831298,-0.0687755569815635,2023-10-21T15:37:25.118340Z,1697902645118,354
0.3382906019687652,0.2812215089797973,-0.049885556101799,2023-10-21T15:37:25.129246Z,1697902645129,355
0.3260520100593567,0.3176712393760681,-0.0409726724028587,2023-10-21T15:37:25.138428Z,1697902645138,356
0.3135473430156708,0.3558503091335296,-0.0405735857784748,2023-10-21T15:37:25.149621Z,1697902645149,357
0.3029051125049591,0.3969559967517853,-0.0449635162949562,2023-10-21T15:37:25.161307Z,1697902645161,358
0.2943913042545318,0.4405892491340637,-0.0516149215400218,2023-10-21T15:37:25.169680Z,1697902645169,359
0.2870747447013855,0.4851536750793457,-0.0598626695573329,2023-10-21T15:37:25.179063Z,1697902645179,360
0.2796251773834228,0.5302501916885376,-0.0699728056788444,2023-10-21T15:37:25.189822Z,1697902645189,361
0.2713774442672729,0.5758788585662842,-0.08367470651865,2023-10-21T15:37:25.199374Z,1697902645199,362
0.2616663873195648,0.6212414503097534,-0.1046931520104408,2023-10-21T15:37:25.211563Z,1697902645211,363
0.2498268634080886,0.6635444164276123,-0.1384823024272918,2023-10-21T15:37:25.219551Z,1697902645219,364
0.2354598343372345,0.7011913657188416,-0.188633918762207,2023-10-21T15:37:25.230652Z,1697902645230,365
0.218166172504425,0.7344484329223633,-0.2554140388965606,2023-10-21T15:37:25.239873Z,1697902645239,366
0.198078915476799,0.7653109431266785,-0.3353639841079712,2023-10-21T15:37:25.250982Z,1697902645250,367
0.175331100821495,0.7972376942634583,-0.4194377660751343,2023-10-21T15:37:25.261102Z,1697902645261,368
0.1497897058725357,0.8328892588615417,-0.4955298602581024,2023-10-21T15:37:25.270935Z,1697902645270,369
0.1217207610607147,0.8734628558158875,-0.5521998405456543,2023-10-21T15:37:25.280385Z,1697902645280,370
0.0924545675516128,0.9174951910972596,-0.5834614634513855,2023-10-21T15:37:25.295107Z,1697902645295,371
0.0650507658720016,0.9619265794754028,-0.5905119776725769,2023-10-21T15:37:25.300683Z,1697902645300,372
0.0431011207401752,1.003697395324707,-0.5794706344604492,2023-10-21T15:37:25.311632Z,1697902645311,373
0.0278028845787048,1.0389498472213743,-0.5609797239303589,2023-10-21T15:37:25.320857Z,1697902645320,374
0.0191560536623001,1.0644912719726562,-0.5467457175254822,2023-10-21T15:37:25.332052Z,1697902645332,375
0.0151652097702026,1.078193187713623,-0.5492732524871826,2023-10-21T15:37:25.344715Z,1697902645344,376
0.0135688716545701,1.0803216695785522,-0.5780073404312134,2023-10-21T15:37:25.352113Z,1697902645352,377
0.0123716183006763,1.0739362239837646,-0.6350764036178589,2023-10-21T15:37:25.361435Z,1697902645361,378
0.008912886492908,1.064225196838379,-0.7143611907958984,2023-10-21T15:37:25.372302Z,1697902645372,379
0.000266056304099,1.0581059455871582,-0.8048202991485596,2023-10-21T15:37:25.381789Z,1697902645381,380
-0.0171606317162513,1.0616977214813232,-0.8967427611351013,2023-10-21T15:37:25.395063Z,1697902645395,381
-0.0454956293106079,1.0795234441757202,-0.9844083189964294,2023-10-21T15:37:25.401940Z,1697902645401,382
-0.0850049927830696,1.114243745803833,-1.0647573471069336,2023-10-21T15:37:25.412992Z,1697902645412,383
-0.1364868879318237,1.1661248207092283,-1.1381888389587402,2023-10-21T15:37:25.422158Z,1697902645422,384
-0.2012715935707092,1.2351664304733276,-1.20816171169281,2023-10-21T15:37:25.433341Z,1697902645433,385
-0.2797582149505615,1.3204374313354492,-1.2825244665145874,2023-10-21T15:37:25.444296Z,1697902645444,386
-0.3683549463748932,1.4170159101486206,-1.3700569868087769,2023-10-21T15:37:25.453350Z,1697902645453,387
-0.4597452878952026,1.5170530080795288,-1.4734197854995728,2023-10-21T15:37:25.462758Z,1697902645462,388
-0.5456814765930176,1.6130993366241455,-1.5858285427093506,2023-10-21T15:37:25.473639Z,1697902645473,389
-0.6197781562805176,1.7004988193511963,-1.6930493116378784,2023-10-21T15:37:25.483060Z,1697902645483,390
-0.6779114603996277,1.7741965055465698,-1.7811139822006226,2023-10-21T15:37:25.494736Z,1697902645494,391
-0.7206134796142578,1.8321967124938965,-1.83698570728302,2023-10-21T15:37:25.503242Z,1697902645503,392
-0.7544026374816895,1.8802199363708496,-1.8478940725326536,2023-10-21T15:37:25.514552Z,1697902645514,393
-0.7893890738487244,1.9282430410385127,-1.8074535131454468,2023-10-21T15:37:25.523382Z,1697902645523,394
-0.8332883715629578,1.9830507040023804,-1.720187067985535,2023-10-21T15:37:25.534609Z,1697902645534,395
-0.8879629373550415,2.046106100082397,-1.601525902748108,2023-10-21T15:37:25.544301Z,1697902645544,396
-0.9511513113975524,2.1160788536071777,-1.4692959785461426,2023-10-21T15:37:25.554656Z,1697902645554,397
-1.0170001983642578,2.1893773078918457,-1.3414559364318848,2023-10-21T15:37:25.564213Z,1697902645564,398
-1.0772619247436523,2.259616136550904,-1.2341021299362185,2023-10-21T15:37:25.578055Z,1697902645577,399
-0.7615861892700195,-1.804127812385559,0.075559988617897,2023-10-21T15:27:05.776834Z,1697902025776,400
-0.7739577889442444,-1.6885263919830322,0.0458947122097015,2023-10-21T15:27:05.786230Z,1697902025786,401
-0.7820724844932556,-1.5767827033996582,0.0167615469545125,2023-10-21T15:27:05.797043Z,1697902025797,402
-0.7849991321563721,-1.472754716873169,-0.0109083084389567,2023-10-21T15:27:05.806534Z,1697902025806,403
-0.7826046347618103,-1.3780386447906494,-0.0363166853785514,2023-10-21T15:27:05.819449Z,1697902025819,404
-0.7747559547424316,-1.2926346063613892,-0.0589314699172973,2023-10-21T15:27:05.826689Z,1697902025826,405
-0.7619852423667908,-1.214147925376892,-0.0790187194943428,2023-10-21T15:27:05.837953Z,1697902025837,406
-0.7452237010002136,-1.1412484645843506,-0.0968444943428039,2023-10-21T15:27:05.852100Z,1697902025852,407
-0.7258015871047974,-1.0752665996551514,-0.1136060431599617,2023-10-21T15:27:05.857911Z,1697902025857,408
-0.7045170664787292,-1.0160690546035769,-0.1297024488449096,2023-10-21T15:27:05.868702Z,1697902025868,409
-0.681370198726654,-0.9601972103118896,-0.1456658244132995,2023-10-21T15:27:05.878167Z,1697902025878,410
-0.656360924243927,-0.9025959968566896,-0.1614961773157119,2023-10-21T15:27:05.887543Z,1697902025887,411
-0.6297552585601807,-0.8404718637466431,-0.1778586357831955,2023-10-21T15:27:05.902906Z,1697902025902,412
-0.6023514866828918,-0.7731596231460571,-0.1946201920509338,2023-10-21T15:27:05.907711Z,1697902025907,413
-0.5756128430366516,-0.7019895315170288,-0.211381733417511,2023-10-21T15:27:05.919375Z,1697902025919,414
-0.5507365465164185,-0.630021333694458,-0.2268130034208297,2023-10-21T15:27:05.927879Z,1697902025927,415
-0.5278556942939758,-0.5612457990646362,-0.2398497611284256,2023-10-21T15:27:05.939251Z,1697902025939,416
-0.4793004393577575,-0.4896766245365143,-0.2277441918849945,2023-10-21T15:27:05.951671Z,1697902025951,417
-0.4606764912605285,-0.4419195353984833,-0.2393176406621933,2023-10-21T15:27:05.959127Z,1697902025959,418
-0.4449791610240936,-0.4012129008769989,-0.2492947578430175,2023-10-21T15:27:05.968548Z,1697902025968,419
-0.4205019772052765,-0.3796623349189758,-0.2563452422618866,2023-10-21T15:27:05.979407Z,1697902025979,420
-0.399749606847763,-0.3611714243888855,-0.2623315155506134,2023-10-21T15:27:05.988860Z,1697902025988,421
-0.3413502275943756,-0.3084922730922699,-0.2240194082260131,2023-10-21T15:27:06.002874Z,1697902026002,422
-0.3192675709724426,-0.3022399544715881,-0.2724416553974151,2023-10-21T15:27:06.009012Z,1697902026008,423
-0.3030381202697754,-0.2874738276004791,-0.348400741815567,2023-10-21T15:27:06.020294Z,1697902026020,424
-0.2628636360168457,-0.2120468765497207,-0.3710155189037323,2023-10-21T15:27:06.029397Z,1697902026029,425
-0.227611169219017,-0.1189271658658981,-0.3982862830162048,2023-10-21T15:27:06.040827Z,1697902026040,426
-0.1984779983758926,-0.0147661250084638,-0.4266212880611419,2023-10-21T15:27:06.052151Z,1697902026052,427
-0.1749320179224014,0.0928536504507064,-0.4517636001110077,2023-10-21T15:27:06.060778Z,1697902026060,428
-0.1551108211278915,0.1962165236473083,-0.4694563448429107,2023-10-21T15:27:06.069912Z,1697902026069,429
-0.1364868879318237,0.2868086993694305,-0.4774380326271057,2023-10-21T15:27:06.086503Z,1697902026086,430
-0.1158675178885459,0.3555842638015747,-0.4762407839298248,2023-10-21T15:27:06.090232Z,1697902026090,431
-0.0907251983880996,0.3952266275882721,-0.4679930508136749,2023-10-21T15:27:06.103077Z,1697902026103,432
-0.0601287260651588,0.4082633852958679,-0.4560205042362213,2023-10-21T15:27:06.110475Z,1697902026110,433
-0.0244771800935268,0.4064010083675384,-0.4431167840957641,2023-10-21T15:27:06.121741Z,1697902026121,434
0.013701899908483,0.4042725563049316,-0.4315433204174042,2023-10-21T15:27:06.135209Z,1697902026135,435
0.0516149215400218,0.4134514927864074,-0.4230295121669769,2023-10-21T15:27:06.141796Z,1697902026141,436
0.0863352715969085,0.4387268424034118,-0.417974442243576,2023-10-21T15:27:06.152234Z,1697902026152,437
0.1157344952225685,0.4795664846897125,-0.4155799448490143,2023-10-21T15:27:06.162013Z,1697902026161,438
0.1391474455595016,0.5319795608520508,-0.4134514927864074,2023-10-21T15:27:06.171223Z,1697902026171,439
0.157372310757637,0.5915762186050415,-0.4087955057621002,2023-10-21T15:27:06.186739Z,1697902026186,440
0.1722714602947235,0.6540994048118591,-0.400015652179718,2023-10-21T15:27:06.191474Z,1697902026191,441
0.1853082180023193,0.7144942283630371,-0.38591468334198,2023-10-21T15:27:06.203385Z,1697902026203,442
0.1978128552436828,0.7671733498573303,-0.3668916523456573,2023-10-21T15:27:06.211639Z,1697902026211,443
0.2100514471530914,0.8101414442062378,-0.3444098830223083,2023-10-21T15:27:06.223187Z,1697902026223,444
0.2220239788293838,0.847788393497467,-0.3201987743377685,2023-10-21T15:27:06.235265Z,1697902026235,445
0.2334644049406051,0.8875638246536255,-0.2951894700527191,2023-10-21T15:27:06.243101Z,1697902026243,446
0.243840605020523,0.9345227479934692,-0.2695150375366211,2023-10-21T15:27:06.252718Z,1697902026252,447
0.2528865039348602,0.9899954795837402,-0.2427763789892196,2023-10-21T15:27:06.268347Z,1697902026268,448
0.2614003121852875,1.049991250038147,-0.214308351278305,2023-10-21T15:27:06.272481Z,1697902026272,449
0.2700471580028534,1.1081244945526123,-0.1837118715047836,2023-10-21T15:27:06.285707Z,1697902026285,450
0.2801572978496551,1.1564136743545532,-0.1509869545698166,2023-10-21T15:27:06.292752Z,1697902026292,451
0.2937261462211609,1.188739538192749,-0.116000548005104,2023-10-21T15:27:06.303552Z,1697902026303,452
0.3131482601165771,1.20097815990448,-0.0788856968283653,2023-10-21T15:27:06.318852Z,1697902026318,453
0.3405520617961883,1.1936615705490112,-0.0403075292706489,2023-10-21T15:27:06.323766Z,1697902026323,454
0.3771347999572754,1.173707365989685,-0.0014633096288889,2023-10-21T15:27:06.334939Z,1697902026334,455
0.4228965044021606,1.1469687223434448,0.035651545971632,2023-10-21T15:27:06.344037Z,1697902026343,456
0.4765068292617798,1.1167713403701782,0.0686425268650055,2023-10-21T15:27:06.353560Z,1697902026353,457
0.5351722836494446,1.0865739583969116,0.0948490723967552,2023-10-21T15:27:06.368919Z,1697902026368,458
0.595966100692749,1.0652894973754885,0.1128078699111938,2023-10-21T15:27:06.373746Z,1697902026373,459
0.6554297208786011,1.0647573471069336,0.1214547008275985,2023-10-21T15:27:06.385274Z,1697902026385,460
0.7099712491035461,1.093225359916687,0.1205235049128532,2023-10-21T15:27:06.393914Z,1697902026393,461
0.7562650442123413,1.155881643295288,0.1102803349494934,2023-10-21T15:27:06.405284Z,1697902026405,462
0.7919166088104248,1.2537903785705566,0.0920554846525192,2023-10-21T15:27:06.418064Z,1697902026417,463
0.8151965141296387,1.384557008743286,0.067578300833702,2023-10-21T15:27:06.425211Z,1697902026425,464
0.8251736164093018,1.5421953201293943,0.0392433032393455,2023-10-21T15:27:06.434701Z,1697902026434,465
0.8217148780822754,1.7184576988220217,0.0098440833389759,2023-10-21T15:27:06.445426Z,1697902026445,466
0.8060175776481628,1.901105284690857,-0.0183578841388225,2023-10-21T15:27:06.454956Z,1697902026454,467
0.7800770998001099,2.075904369354248,-0.0429680943489074,2023-10-21T15:27:06.468958Z,1697902026468,468
0.7462879419326782,2.2311482429504395,-0.0617250613868236,2023-10-21T15:27:06.475131Z,1697902026475,469
0.7079758048057556,2.3613827228546143,-0.0734315365552902,2023-10-21T15:27:06.486396Z,1697902026486,470
0.6684664487838745,2.462883234024048,-0.0771563276648521,2023-10-21T15:27:06.495319Z,1697902026495,471
0.6302874088287354,2.530993700027466,-0.0728994309902191,2023-10-21T15:27:06.506725Z,1697902026506,472
0.5953009724617004,2.564782857894897,-0.06132597848773,2023-10-21T15:27:06.517953Z,1697902026517,473
0.5643054246902466,2.566246032714844,-0.0433671772480011,2023-10-21T15:27:06.526574Z,1697902026526,474
0.5383649468421936,2.537245988845825,-0.0204863362014293,2023-10-21T15:27:06.536823Z,1697902026536,475
0.5181446671485901,2.481640100479126,0.0059862667694687,2023-10-21T15:27:06.546750Z,1697902026546,476
0.5044427514076233,2.4098050594329834,0.0348533764481544,2023-10-21T15:27:06.556247Z,1697902026556,477
0.4971261918544769,2.3297219276428223,0.0657159090042114,2023-10-21T15:27:06.569036Z,1697902026568,478
0.4947316944599151,2.239794969558716,0.098440833389759,2023-10-21T15:27:06.576360Z,1697902026576,479
0.4953968524932861,2.134303569793701,0.1338263154029846,2023-10-21T15:27:06.587737Z,1697902026587,480
0.4973922669887543,2.013780117034912,0.1721384227275848,2023-10-21T15:27:06.601142Z,1697902026601,481
0.4992546439170837,1.8808850049972528,0.2136432081460952,2023-10-21T15:27:06.607586Z,1697902026607,482
0.4991216361522674,1.7358843088150024,0.2582076489925384,2023-10-21T15:27:06.617945Z,1697902026617,483
0.4955298602581024,1.5766496658325195,0.3062308132648468,2023-10-21T15:27:06.627802Z,1697902026627,484
0.4878142476081848,1.402116775512695,0.3578457236289978,2023-10-21T15:27:06.637317Z,1697902026637,485
0.4759747385978699,1.214147925376892,0.4134514927864074,2023-10-21T15:27:06.652372Z,1697902026652,486
0.4608095288276672,1.016335129737854,0.4729150831699371,2023-10-21T15:27:06.657459Z,1697902026657,487
0.4435158669948578,0.8121368885040283,0.5359704494476318,2023-10-21T15:27:06.668956Z,1697902026668,488
0.4247588813304901,0.6035487055778503,0.6011542081832886,2023-10-21T15:27:06.677623Z,1697902026677,489
0.4048046767711639,0.3949605822563171,0.6660719513893127,2023-10-21T15:27:06.689149Z,1697902026689,490
0.3837862312793731,0.1964825838804245,0.7265997529029846,2023-10-21T15:27:06.701125Z,1697902026701,491
0.362501710653305,0.0200872514396905,0.7780816555023193,2023-10-21T15:27:06.708889Z,1697902026708,492
0.3412172198295593,-0.1245143488049507,0.8163937926292419,2023-10-21T15:27:06.718435Z,1697902026718,493
0.3184694051742553,-0.2341295480728149,0.8394076228141785,2023-10-21T15:27:06.729121Z,1697902026729,494
0.2910656034946441,-0.3142125010490417,0.8479214310646057,2023-10-21T15:27:06.738632Z,1697902026738,495
0.2566113173961639,-0.3766027092933655,0.8452608585357666,2023-10-21T15:27:06.752404Z,1697902026752,496
0.2129780650138855,-0.4348690211772918,0.8364810347557068,2023-10-21T15:27:06.758838Z,1697902026758,497
0.1597668081521988,-0.4984564781188965,0.8258387446403503,2023-10-21T15:27:06.770179Z,1697902026770,498
0.0975096374750137,-0.570956826210022,0.8159946799278259,2023-10-21T15:27:06.778958Z,1697902026778,499
0.0286010522395372,-0.6491773724555969,0.8068157434463501,2023-10-21T15:27:06.790439Z,1697902026790,500
-0.0425690077245235,-0.7251364588737488,0.7953753471374512,2023-10-21T15:27:06.801076Z,1697902026801,501
-0.1110785081982612,-0.790054202079773,0.7774165272712708,2023-10-21T15:27:06.810275Z,1697902026810,502
-0.1726705431938171,-0.8363479971885681,0.749081552028656,2023-10-21T15:27:06.819686Z,1697902026819,503
-0.2249506115913391,-0.8584306836128235,0.708241879940033,2023-10-21T15:27:06.835518Z,1697902026835,504
-0.2657902538776397,-0.8528434634208679,0.6550306081771851,2023-10-21T15:27:06.839859Z,1697902026839,505
-0.2941252589225769,-0.8202515840530396,0.5917091965675354,2023-10-21T15:27:06.852209Z,1697902026852,506
-0.3110198080539703,-0.7703660130500793,0.5226675868034363,2023-10-21T15:27:06.860018Z,1697902026859,507
-0.3207308650016784,-0.7186180949211121,0.4526948034763336,2023-10-21T15:27:06.871450Z,1697902026871,508
-0.3277813792228699,-0.6785765886306763,0.3856486082077026,2023-10-21T15:27:06.884340Z,1697902026884,509
-0.3344327807426452,-0.6539663672447205,0.3240565657615661,2023-10-21T15:27:06.891282Z,1697902026891,510
-0.3408181369304657,-0.6417278051376343,0.2684507966041565,2023-10-21T15:27:06.900863Z,1697902026900,511
-0.3478686213493347,-0.6389341950416565,0.2188313156366348,2023-10-21T15:27:06.911537Z,1697902026911,512
-0.3577126860618591,-0.6462507843971252,0.1740008294582367,2023-10-21T15:27:06.921002Z,1697902026920,513
-0.3711485564708709,-0.6599526405334473,0.1323630064725875,2023-10-21T15:27:06.935437Z,1697902026935,514
-0.3877770602703094,-0.6733884811401367,0.0919224545359611,2023-10-21T15:27:06.941161Z,1697902026941,515
-0.4066670536994934,-0.6807050704956055,0.0508167557418346,2023-10-21T15:27:06.952437Z,1697902026952,516
-0.4274194538593292,-0.6789757013320923,0.0083807734772562,2023-10-21T15:27:06.961320Z,1697902026961,517
-0.4496351480484009,-0.6679343581199646,-0.0351194329559803,2023-10-21T15:27:06.972743Z,1697902026972,518
-0.4725160002708435,-0.6459847092628479,-0.0787526667118072,2023-10-21T15:27:06.984241Z,1697902026984,519
-0.4956628978252411,-0.6163194179534912,-0.1206565350294113,2023-10-21T15:27:06.992630Z,1697902026992,520
-0.5201400518417358,-0.589580774307251,-0.1575053334236145,2023-10-21T15:27:07.002085Z,1697902027001,521
-0.5478099584579468,-0.5802688002586365,-0.1855742782354354,2023-10-21T15:27:07.012780Z,1697902027012,522
-0.5793375968933105,-0.5995578765869141,-0.2015376538038253,2023-10-21T15:27:07.022356Z,1697902027022,523
-0.6139249205589294,-0.6521040201187134,-0.203400045633316,2023-10-21T15:27:07.035339Z,1697902027035,524
-0.6510397791862488,-0.740966796875,-0.1904963105916977,2023-10-21T15:27:07.042686Z,1697902027042,525
-0.6904160976409912,-0.8688068389892578,-0.162959486246109,2023-10-21T15:27:07.053768Z,1697902027053,526
-0.7308566570281982,-1.031899333000183,-0.12265195697546,2023-10-21T15:27:07.067732Z,1697902027067,527
-0.7702329754829407,-1.2211984395980835,-0.0726333707571029,2023-10-21T15:27:07.073623Z,1697902027073,528
-0.8065496683120728,-1.4245984554290771,-0.0180918294936418,2023-10-21T15:27:07.084217Z,1697902027084,529
-0.83821040391922,-1.6317232847213743,0.0351194329559803,2023-10-21T15:27:07.093860Z,1697902027093,530
-0.8634857535362244,-1.831265568733216,0.0811471715569496,2023-10-21T15:27:07.103378Z,1697902027103,531
-0.8809124231338501,-2.0104544162750244,0.1162666082382202,2023-10-21T15:27:07.118621Z,1697902027118,532
-0.8906234502792358,-2.1613082885742188,0.1379501968622207,2023-10-21T15:27:07.123567Z,1697902027123,533
-0.8944813013076782,-2.281831979751587,0.1448676586151123,2023-10-21T15:27:07.135545Z,1697902027135,534
-0.8950133919715881,-2.3716259002685547,0.1375511139631271,2023-10-21T15:27:07.143758Z,1697902027143,535
-0.8939492106437683,-2.430025339126587,0.1179959699511528,2023-10-21T15:27:07.155180Z,1697902027155,536
-0.8930180072784424,-2.454369306564331,0.0887297764420509,2023-10-21T15:27:07.167376Z,1697902027167,537
-0.893683135509491,-2.443594217300415,0.0522800646722316,2023-10-21T15:27:07.175038Z,1697902027175,538
-0.8982060551643372,-2.399960994720459,0.0107752801850438,2023-10-21T15:27:07.184364Z,1697902027184,539
-0.9080501794815063,-2.3299880027771,-0.0332570374011993,2023-10-21T15:27:07.195213Z,1697902027195,540
-0.9236144423484802,-2.239661931991577,-0.0774223878979682,2023-10-21T15:27:07.204705Z,1697902027204,541
-0.9438347220420836,-2.132175207138061,-0.1194592788815498,2023-10-21T15:27:07.218607Z,1697902027218,542
-0.9665825366973876,-2.013381004333496,-0.1577713936567306,2023-10-21T15:27:07.224851Z,1697902027224,543
-0.9905276298522948,-1.8912612199783323,-0.1912944763898849,2023-10-21T15:27:07.236185Z,1697902027236,544
-1.013275384902954,-1.7740634679794312,-0.2192303985357284,2023-10-21T15:27:07.245081Z,1697902027245,545
-1.0324314832687378,-1.6680400371551514,-0.2411800324916839,2023-10-21T15:27:07.256521Z,1697902027256,546
-1.0465325117111206,-1.5798423290252686,-0.2578085660934448,2023-10-21T15:27:07.267522Z,1697902027267,547
-1.0542480945587158,-1.5138603448867798,-0.2696480751037597,2023-10-21T15:27:07.276320Z,1697902027276,548
-1.0545141696929932,-1.4698280096054075,-0.2769646048545837,2023-10-21T15:27:07.285744Z,1697902027285,549
-1.046399474143982,-1.44588303565979,-0.2804233431816101,2023-10-21T15:27:07.301819Z,1697902027301,550
-1.0296379327774048,-1.437901258468628,-0.2804233431816101,2023-10-21T15:27:07.305938Z,1697902027305,551
-1.0046286582946775,-1.4432224035263062,-0.2773636877536773,2023-10-21T15:27:07.318559Z,1697902027318,552
-0.9737660884857178,-1.4635757207870483,-0.2727077007293701,2023-10-21T15:27:07.326110Z,1697902027326,553
-0.939976930618286,-1.4989612102508545,-0.2669875025749206,2023-10-21T15:27:07.337472Z,1697902027337,554
-0.9049904942512512,-1.5425944328308103,-0.2602030634880066,2023-10-21T15:27:07.350845Z,1697902027350,555
-0.8688068389892578,-1.583700180053711,-0.2512901723384857,2023-10-21T15:27:07.357335Z,1697902027357,556
-0.8326231837272644,-1.615094780921936,-0.2395837008953094,2023-10-21T15:27:07.367389Z,1697902027367,557
-0.7987010478973389,-1.6347829103469849,-0.2254827171564102,2023-10-21T15:27:07.377567Z,1697902027377,558
-0.7687696814537048,-1.6410353183746338,-0.2099184244871139,2023-10-21T15:27:07.387086Z,1697902027387,559
-0.7430952787399292,-1.631989359855652,-0.1938220113515854,2023-10-21T15:27:07.402439Z,1697902027402,560
-0.7207465171813965,-1.607911229133606,-0.177725613117218,2023-10-21T15:27:07.407253Z,1697902027407,561
-0.7006592750549316,-1.570663332939148,-0.1625604033470153,2023-10-21T15:27:07.418692Z,1697902027418,562
-0.681370198726654,-1.5229063034057615,-0.1503218114376068,2023-10-21T15:27:07.427410Z,1697902027427,563
-0.6618150472640991,-1.4675666093826294,-0.1442025154829025,2023-10-21T15:27:07.438858Z,1697902027438,564
-0.6406635642051697,-1.4057084321975708,-0.1472621709108352,2023-10-21T15:27:07.450671Z,1697902027450,565
-0.6168515682220459,-1.337332010269165,-0.1610970944166183,2023-10-21T15:27:07.458759Z,1697902027458,566
-0.5907780528068542,-1.260175704956055,-0.1853082180023193,2023-10-21T15:27:07.468126Z,1697902027468,567
-0.5637733340263367,-1.1706477403640747,-0.2189643383026123,2023-10-21T15:27:07.479102Z,1697902027479,568
-0.5100299119949341,-1.040147066116333,-0.2206937074661255,2023-10-21T15:27:07.488393Z,1697902027488,569
-0.4906078279018402,-0.9257429242134094,-0.2728407382965088,2023-10-21T15:27:07.501716Z,1697902027501,570
-0.5019152164459229,-0.8315590023994446,-0.3639650344848633,2023-10-21T15:27:07.508607Z,1697902027508,571
-0.4838233888149261,-0.7144942283630371,-0.4052037596702575,2023-10-21T15:27:07.519912Z,1697902027519,572
-0.4651994407176971,-0.6161863803863525,-0.4424516260623932,2023-10-21T15:27:07.528689Z,1697902027528,573
-0.4417864978313446,-0.5455484390258789,-0.4746444523334503,2023-10-21T15:27:07.540309Z,1697902027540,574
-0.4103918373584747,-0.5094978213310242,-0.5024473071098328,2023-10-21T15:27:07.550651Z,1697902027550,575
-0.3690201044082641,-0.5104290246963501,-0.5262593626976013,2023-10-21T15:27:07.559991Z,1697902027559,576
-0.3186024129390716,-0.5438190698623657,-0.5460805892944336,2023-10-21T15:27:07.569450Z,1697902027569,577
-0.2617993950843811,-0.5994248390197754,-0.5621769428253174,2023-10-21T15:27:07.584998Z,1697902027584,578
-0.2027349025011062,-0.6640765070915222,-0.5749476552009583,2023-10-21T15:27:07.589618Z,1697902027589,579
-0.1463309675455093,-0.7248703837394714,-0.5846587419509888,2023-10-21T15:27:07.601743Z,1697902027601,580
-0.096977524459362,-0.7716963291168213,-0.5910440683364868,2023-10-21T15:27:07.609831Z,1697902027609,581
-0.0576011911034584,-0.7997652292251587,-0.5945028066635132,2023-10-21T15:27:07.621230Z,1697902027621,582
-0.0293992217630147,-0.8104075193405151,-0.5947688817977905,2023-10-21T15:27:07.633807Z,1697902027633,583
-0.0117064770311117,-0.8074808716773987,-0.5915762186050415,2023-10-21T15:27:07.641073Z,1697902027641,584
-0.0025275349617004,-0.7937789559364319,-0.5830624103546143,2023-10-21T15:27:07.650475Z,1697902027650,585
0.0010642252163961,-0.7703660130500793,-0.567764163017273,2023-10-21T15:27:07.661494Z,1697902027661,586
0.0015963378828018,-0.7403016686439514,-0.5455484390258789,2023-10-21T15:27:07.670851Z,1697902027670,587
0.0013302814913913,-0.707709789276123,-0.5180116295814514,2023-10-21T15:27:07.685083Z,1697902027684,588
0.0021284504327923,-0.6760490536689758,-0.4866169691085815,2023-10-21T15:27:07.690929Z,1697902027690,589
0.0055871824733912,-0.6457186341285706,-0.4534929692745209,2023-10-21T15:27:07.702927Z,1697902027702,590
0.0119725335389375,-0.614989161491394,-0.4207680523395538,2023-10-21T15:27:07.711125Z,1697902027711,591
0.0214175321161746,-0.5835945010185242,-0.3912357985973358,2023-10-21T15:27:07.722767Z,1697902027722,592
0.0332570374011993,-0.5502044558525085,-0.3662264943122864,2023-10-21T15:27:07.733835Z,1697902027733,593
0.0469589382410049,-0.5130895972251892,-0.3464052975177765,2023-10-21T15:27:07.742355Z,1697902027742,594
0.0617250613868236,-0.4722499251365661,-0.3312400877475738,2023-10-21T15:27:07.751821Z,1697902027751,595
0.0775554105639457,-0.4294148683547973,-0.3208639025688171,2023-10-21T15:27:07.762553Z,1697902027762,596
0.0939178764820098,-0.3871119320392608,-0.3140794634819031,2023-10-21T15:27:07.772090Z,1697902027772,597
0.1101473122835159,-0.3468043804168701,-0.3094234764575958,2023-10-21T15:27:07.784977Z,1697902027784,598
0.1263767480850219,-0.3082262277603149,-0.3050335645675659,2023-10-21T15:27:07.792274Z,1697902027792,599
-0.0227478146553039,-0.0231468975543975,-0.0158303491771221,2023-10-21T15:35:09.632233Z,1697902509632,600
-0.0194221101701259,-0.0196881666779518,-0.0135688716545701,2023-10-21T15:35:09.643445Z,1697902509643,601
-0.0166285187005996,-0.0168945752084255,-0.0115734487771987,2023-10-21T15:35:09.657306Z,1697902509657,602
-0.0142340119928121,-0.014367040246725,-0.0098440833389759,2023-10-21T15:35:09.663427Z,1697902509663,603
-0.0121055617928504,-0.0122385900467634,-0.0083807734772562,2023-10-21T15:35:09.673957Z,1697902509673,604
-0.010376195423305,-0.0105092236772179,-0.0071835201233625,2023-10-21T15:35:09.683568Z,1697902509683,605
-0.0198211949318647,-0.0184909123927354,0.0114404214546084,2023-10-21T15:35:09.693142Z,1697902509693,606
-0.0279359128326177,-0.0252753496170043,0.027403799816966,2023-10-21T15:35:09.708334Z,1697902509708,607
-0.0239450670778751,-0.0216835886240005,0.0234129540622234,2023-10-21T15:35:09.713328Z,1697902509713,608
-0.0203533079475164,-0.0184909123927354,0.0199542231857776,2023-10-21T15:35:09.725037Z,1697902509725,609
-0.0174266882240772,-0.0158303491771221,0.0170276034623384,2023-10-21T15:35:09.733495Z,1697902509733,610
-0.0162294339388608,-0.0182248577475547,0.0403075292706489,2023-10-21T15:35:09.744750Z,1697902509744,611
-0.0152982370927929,-0.0203533079475164,0.0601287260651588,2023-10-21T15:35:09.757243Z,1697902509757,612
-0.0130367586389184,-0.0174266882240772,0.051348865032196,2023-10-21T15:35:09.764687Z,1697902509764,613
-0.0111743649467825,-0.0148991532623767,0.043766263872385,2023-10-21T15:35:09.774203Z,1697902509774,614
-0.00957802683115,-0.0127707030624151,0.0373809114098548,2023-10-21T15:35:09.784851Z,1697902509784,615
-0.0065183793194592,-0.0026605629827827,0.0541424565017223,2023-10-21T15:35:09.794486Z,1697902509794,616
-0.0039908443577587,0.0058532385155558,0.0685094967484474,2023-10-21T15:35:09.808176Z,1697902509808,617
-0.0034587320405989,0.0050550699234008,0.0585323870182037,2023-10-21T15:35:09.814574Z,1697902509814,618
-0.0029266192577779,0.0042569008655846,0.050018586218357,2023-10-21T15:35:09.825802Z,1697902509825,619
-0.0025275349617004,0.0037247883155941,0.0427020378410816,2023-10-21T15:35:09.834835Z,1697902509834,620
0.0077156326733529,0.0021284504327923,0.0572021044790744,2023-10-21T15:35:09.846127Z,1697902509846,621
0.0163624621927738,0.0007981689414009,0.0695737227797508,2023-10-21T15:35:09.857204Z,1697902509857,622
0.0139679564163088,0.0006651407456956,0.059463582932949,2023-10-21T15:35:09.865990Z,1697902509865,623
0.0119725335389375,0.0006651407456956,0.0506837256252765,2023-10-21T15:35:09.875599Z,1697902509875,624
0.0195551384240388,0.003325703786686,0.0605278089642524,2023-10-21T15:35:09.890449Z,1697902509890,625
0.0259404890239238,0.0057202107273042,0.068908579647541,2023-10-21T15:35:09.895691Z,1697902509895,626
0.0222157016396522,0.0049220416694879,0.0589314699172973,2023-10-21T15:35:09.908272Z,1697902509908,627
0.0188899971544742,0.0042569008655846,0.0502846427261829,2023-10-21T15:35:09.915961Z,1697902509915,628
0.0134358434006571,0.0062523232772946,0.0662480220198631,2023-10-21T15:35:09.927292Z,1697902509927,629
0.0086468299850821,0.0079816887155175,0.0799499228596687,2023-10-21T15:35:09.940369Z,1697902509940,630
0.0073165483772754,0.006784435827285,0.0682434439659118,2023-10-21T15:35:09.947214Z,1697902509947,631
0.0062523232772946,0.0058532385155558,0.0582663305103778,2023-10-21T15:35:09.957050Z,1697902509957,632
0.000532112608198,0.0109083084389567,0.0767572447657585,2023-10-21T15:35:09.967312Z,1697902509967,633
-0.0042569008655846,0.0151652097702026,0.0925875902175903,2023-10-21T15:35:09.976848Z,1697902509976,634
-0.0037247883155941,0.0130367586389184,0.0790187194943428,2023-10-21T15:35:09.991455Z,1697902509991,635
-0.0023945067077875,0.0172936599701643,0.0877985805273056,2023-10-21T15:35:09.996983Z,1697902509996,636
-0.0011972533538937,0.0210184473544359,0.0952481552958488,2023-10-21T15:35:10.008253Z,1697902510008,637
-0.0010642252163961,0.0179588012397289,0.0814132317900657,2023-10-21T15:35:10.017183Z,1697902510017,638
0.0015963378828018,0.0206193644553422,0.0863352715969085,2023-10-21T15:35:10.028657Z,1697902510028,639
0.0037247883155941,0.0228808429092168,0.0907251983880996,2023-10-21T15:35:10.040542Z,1697902510040,640
0.0031926757656037,0.0195551384240388,0.0774223878979682,2023-10-21T15:35:10.048356Z,1697902510048,641
0.0027935912366956,0.0167615469545125,0.066114991903305,2023-10-21T15:35:10.057930Z,1697902510057,642
0.0023945067077875,0.0142340119928121,0.056536965072155,2023-10-21T15:35:10.068824Z,1697902510068,643
0.0019954221788793,0.0122385900467634,0.0482892207801342,2023-10-21T15:35:10.078223Z,1697902510078,644
0.0017293660202994,0.010376195423305,0.0412387289106845,2023-10-21T15:35:10.091737Z,1697902510091,645
0.0014633096288889,0.008912886492908,0.035252459347248,2023-10-21T15:35:10.098554Z,1697902510098,646
0.0011972533538937,0.0075826048851013,0.0300643630325794,2023-10-21T15:35:10.109513Z,1697902510109,647
0.0010642252163961,0.0065183793194592,0.025674432516098,2023-10-21T15:35:10.118684Z,1697902510118,648
0.0009311970788985,0.0055871824733912,0.0219496451318264,2023-10-21T15:35:10.129841Z,1697902510129,649
0.0007981689414009,0.004789013415575,0.0187569689005613,2023-10-21T15:35:10.140676Z,1697902510140,650
0.0131697868928313,0.0168945752084255,0.0175597164779901,2023-10-21T15:35:10.149676Z,1697902510149,651
0.0238120388239622,0.0272707715630531,0.0166285187005996,2023-10-21T15:35:10.159231Z,1697902510159,652
0.0203533079475164,0.0232799258083105,0.0142340119928121,2023-10-21T15:35:10.174781Z,1697902510174,653
0.0172936599701643,0.0199542231857776,0.0121055617928504,2023-10-21T15:35:10.179430Z,1697902510179,654
0.0324588678777217,0.0324588678777217,0.0038578163366764,2023-10-21T15:35:10.191538Z,1697902510191,655
0.0453625991940498,0.0432341508567333,-0.0030596475116908,2023-10-21T15:35:10.199578Z,1697902510199,656
0.0387111939489841,0.0369818247854709,-0.0026605629827827,2023-10-21T15:35:10.210867Z,1697902510210,657
0.0331240110099315,0.0315276719629764,-0.0022614786867052,2023-10-21T15:35:10.223680Z,1697902510223,658
0.0282019674777984,0.0270047150552272,-0.0019954221788793,2023-10-21T15:35:10.230807Z,1697902510230,659
0.0377799943089485,0.0399084463715553,-0.0037247883155941,2023-10-21T15:35:10.240475Z,1697902510240,660
0.0457616858184337,0.0510828122496604,-0.0053211259655654,2023-10-21T15:35:10.250970Z,1697902510250,661
0.0391102768480777,0.0436332337558269,-0.0045229573734104,2023-10-21T15:35:10.260554Z,1697902510260,662
0.0333900675177574,0.0372478812932968,-0.0038578163366764,2023-10-21T15:35:10.274541Z,1697902510274,663
0.0286010522395372,0.0317937284708023,-0.003325703786686,2023-10-21T15:35:10.280655Z,1697902510280,664
0.0361836589872837,0.0508167557418346,-0.0099771115928888,2023-10-21T15:35:10.291878Z,1697902510291,665
0.0428350642323493,0.0670461878180503,-0.0155642936006188,2023-10-21T15:35:10.300879Z,1697902510300,666
0.0365827418863773,0.0573351345956325,-0.0133028151467442,2023-10-21T15:35:10.312197Z,1697902510312,667
0.0449635162949562,0.0671792179346084,-0.0215505603700876,2023-10-21T15:35:10.323517Z,1697902510323,668
0.0521470345556736,0.075559988617897,-0.0284680239856243,2023-10-21T15:35:10.332017Z,1697902510332,669
0.0445644296705722,0.0645186528563499,-0.0243441518396139,2023-10-21T15:35:10.341625Z,1697902510341,670
0.0380460508167743,0.0550736561417579,-0.02075239084661,2023-10-21T15:35:10.352368Z,1697902510352,671
0.0324588678777217,0.0470919646322727,-0.017825772985816,2023-10-21T15:35:10.361863Z,1697902510361,672
0.0381790809333324,0.0549406260251998,-0.0282019674777984,2023-10-21T15:35:10.374784Z,1697902510374,673
0.0429680943489074,0.0617250613868236,-0.0372478812932968,2023-10-21T15:35:10.382063Z,1697902510382,674
0.0367157682776451,0.0526791475713253,-0.0317937284708023,2023-10-21T15:35:10.393192Z,1697902510393,675
0.0313946455717086,0.0449635162949562,-0.0271377433091402,2023-10-21T15:35:10.406867Z,1697902510406,676
0.0369818247854709,0.0578672476112842,-0.0368487983942031,2023-10-21T15:35:10.413071Z,1697902510413,677
0.0417708382010459,0.0687755569815635,-0.0450965426862239,2023-10-21T15:35:10.423692Z,1697902510423,678
0.035651545971632,0.0587984435260295,-0.0384451374411582,2023-10-21T15:35:10.433345Z,1697902510433,679
0.0444314032793045,0.0721012577414512,-0.0440323166549205,2023-10-21T15:35:10.442911Z,1697902510442,680
0.0520140081644058,0.0834086537361145,-0.0486883036792278,2023-10-21T15:35:10.457833Z,1697902510457,681
0.0444314032793045,0.0711700618267059,-0.0416378118097782,2023-10-21T15:35:10.463116Z,1697902510463,682
0.0538763999938964,0.0840737894177436,-0.0480231642723083,2023-10-21T15:35:10.474493Z,1697902510474,683
0.0619911178946495,0.0951151251792907,-0.0534773170948028,2023-10-21T15:35:10.483261Z,1697902510483,684
0.0529452040791511,0.0811471715569496,-0.0457616858184337,2023-10-21T15:35:10.494556Z,1697902510494,685
0.0590645000338554,0.0901930853724479,-0.0528121776878833,2023-10-21T15:35:10.506903Z,1697902510506,686
0.0643856227397918,0.0977756902575492,-0.0587984435260295,2023-10-21T15:35:10.514498Z,1697902510514,687
0.0550736561417579,0.0835416764020919,-0.0501516126096248,2023-10-21T15:35:10.523973Z,1697902510523,688
0.0469589382410049,0.071303091943264,-0.0428350642323493,2023-10-21T15:35:10.534703Z,1697902510534,689
0.0401745028793811,0.0609268918633461,-0.0365827418863773,2023-10-21T15:35:10.544268Z,1697902510544,690
0.0360506288707256,0.0631883740425109,-0.0514818951487541,2023-10-21T15:35:10.557657Z,1697902510557,691
0.0324588678777217,0.0650507658720016,-0.0641195699572563,2023-10-21T15:35:10.564382Z,1697902510564,692
0.0278028845787048,0.0556057691574096,-0.0548075996339321,2023-10-21T15:35:10.575547Z,1697902510575,693
0.0283349957317113,0.0637204870581626,-0.0586654134094715,2023-10-21T15:35:10.584555Z,1697902510584,694
0.0287340804934501,0.0706379488110542,-0.0619911178946495,2023-10-21T15:35:10.595846Z,1697902510595,695
0.0246102083474397,0.0602617524564266,-0.0529452040791511,2023-10-21T15:35:10.606787Z,1697902510606,696
0.0297983065247535,0.0747618228197097,-0.0480231642723083,2023-10-21T15:35:10.615716Z,1697902510615,697
0.0343212634325027,0.0871334373950958,-0.0438992902636528,2023-10-21T15:35:10.625272Z,1697902510625,698
0.0384451374411582,0.0940509065985679,-0.0345873199403286,2023-10-21T15:35:10.640965Z,1697902510640,699
0.0420368947088718,0.0999041423201561,-0.0267386585474014,2023-10-21T15:35:10.645479Z,1697902510645,700
0.0468259081244468,0.1088170260190963,-0.0212845038622617,2023-10-21T15:35:10.657714Z,1697902510657,701
0.0508167557418346,0.1165326610207557,-0.0164954904466867,2023-10-21T15:35:10.665673Z,1697902510665,702
0.0435002073645591,0.0995050594210624,-0.0141009837388992,2023-10-21T15:35:10.676902Z,1697902510676,703
0.045229572802782,0.1136060431599617,-0.0163624621927738,2023-10-21T15:35:10.689931Z,1697902510689,704
0.0468259081244468,0.1257116049528122,-0.0182248577475547,2023-10-21T15:35:10.696776Z,1697902510696,705
0.0399084463715553,0.1073537170886993,-0.0155642936006188,2023-10-21T15:35:10.706701Z,1697902510706,706
0.0344542898237705,0.1098812520503997,-0.0259404890239238,2023-10-21T15:35:10.717014Z,1697902510716,707
0.0296652782708406,0.1120097041130065,-0.0347203463315963,2023-10-21T15:35:10.726623Z,1697902510726,708
0.0252753496170043,0.0956472381949424,-0.0296652782708406,2023-10-21T15:35:10.740871Z,1697902510740,709
0.0202202796936035,0.091789424419403,-0.0400414727628231,2023-10-21T15:35:10.746769Z,1697902510746,710
0.0158303491771221,0.0884637236595153,-0.0488213300704956,2023-10-21T15:35:10.757900Z,1697902510757,711
0.0135688716545701,0.075559988617897,-0.0416378118097782,2023-10-21T15:35:10.766929Z,1697902510766,712
0.0194221101701259,0.0791517496109008,-0.0508167557418346,2023-10-21T15:35:10.778268Z,1697902510778,713
0.0243441518396139,0.0820783674716949,-0.0586654134094715,2023-10-21T15:35:10.789936Z,1697902510789,714
0.02075239084661,0.0701058357954025,-0.050018586218357,2023-10-21T15:35:10.798081Z,1697902510798,715
0.0291331652551889,0.0746287927031517,-0.0540094301104545,2023-10-21T15:35:10.807668Z,1697902510807,716
0.0363166853785514,0.0783535838127136,-0.0573351345956325,2023-10-21T15:35:10.823156Z,1697902510823,717
0.0309955589473247,0.0669131577014923,-0.0489543601870536,2023-10-21T15:35:10.827865Z,1697902510827,718
0.0264726020395755,0.0572021044790744,-0.041903868317604,2023-10-21T15:35:10.840726Z,1697902510840,719
0.0376469679176807,0.0693076699972152,-0.0379130244255065,2023-10-21T15:35:10.848026Z,1697902510848,720
0.0472249947488307,0.0798168927431106,-0.0345873199403286,2023-10-21T15:35:10.859297Z,1697902510859,721
0.0403075292706489,0.0681104138493537,-0.0295322500169277,2023-10-21T15:35:10.873269Z,1697902510873,722
0.043766263872385,0.0788856968283653,-0.0211514756083488,2023-10-21T15:35:10.879297Z,1697902510879,723
0.046559851616621,0.0879316106438636,-0.0141009837388992,2023-10-21T15:35:10.889836Z,1697902510889,724
0.0397754162549972,0.0751609057188034,-0.0119725335389375,2023-10-21T15:35:10.899342Z,1697902510899,725
0.0340552069246768,0.0641195699572563,-0.0102431681007146,2023-10-21T15:35:10.908983Z,1697902510908,726
0.0328579545021057,0.0760921016335487,-0.0063853515312075,2023-10-21T15:35:10.924070Z,1697902510924,727
0.03192675486207,0.0863352715969085,-0.0031926757656037,2023-10-21T15:35:10.929136Z,1697902510929,728
0.0272707715630531,0.0736975967884063,-0.0027935912366956,2023-10-21T15:35:10.940799Z,1697902510940,729
0.0232799258083105,0.0629223138093948,-0.0023945067077875,2023-10-21T15:35:10.949346Z,1697902510949,730
0.0324588678777217,0.0723673179745674,-0.0045229573734104,2023-10-21T15:35:10.960593Z,1697902510960,731
0.0401745028793811,0.0803490057587623,-0.0062523232772946,2023-10-21T15:35:10.973140Z,1697902510973,732
0.0343212634325027,0.0686425268650055,-0.0053211259655654,2023-10-21T15:35:10.980495Z,1697902510980,733
0.0292661935091018,0.0585323870182037,-0.0045229573734104,2023-10-21T15:35:10.990002Z,1697902510989,734
0.038578163832426,0.0683764666318893,-0.0039908443577587,2023-10-21T15:35:11.000703Z,1697902511000,735
0.0464268252253532,0.0766242146492004,-0.0034587320405989,2023-10-21T15:35:11.022723Z,1697902511022,736
0.0396423898637294,0.0654498487710952,-0.0029266192577779,2023-10-21T15:35:11.024361Z,1697902511024,737
0.0339221805334091,0.0558718256652355,-0.0025275349617004,2023-10-21T15:35:11.030413Z,1697902511030,738
0.028867108747363,0.0477571077644825,-0.0021284504327923,2023-10-21T15:35:11.041632Z,1697902511041,739
0.0247432366013526,0.0408396422863006,-0.001862394157797,2023-10-21T15:35:11.050678Z,1697902511050,740
0.0211514756083488,0.0348533764481544,-0.0015963378828018,2023-10-21T15:35:11.074427Z,1697902511074,741
0.0252753496170043,0.0509497821331024,-0.0017293660202994,2023-10-21T15:35:11.075110Z,1697902511075,742
0.0287340804934501,0.064651682972908,-0.0019954221788793,2023-10-21T15:35:11.081773Z,1697902511081,743
0.0246102083474397,0.0552066825330257,-0.0017293660202994,2023-10-21T15:35:11.106734Z,1697902511106,744
0.0210184473544359,0.0470919646322727,-0.0014633096288889,2023-10-21T15:35:11.108403Z,1697902511108,745
0.0179588012397289,0.0403075292706489,-0.0011972533538937,2023-10-21T15:35:11.111529Z,1697902511111,746
0.0152982370927929,0.0344542898237705,-0.0010642252163961,2023-10-21T15:35:11.141052Z,1697902511140,747
0.0208854191005229,0.0456286557018756,0.0019954221788793,2023-10-21T15:35:11.141690Z,1697902511141,748
0.025674432516098,0.0553397126495838,0.0045229573734104,2023-10-21T15:35:11.142856Z,1697902511142,749
0.0219496451318264,0.0472249947488307,0.0038578163366764,2023-10-21T15:35:11.222438Z,1697902511222,750
0.0187569689005613,0.0403075292706489,0.003325703786686,2023-10-21T15:35:11.224111Z,1697902511224,751
0.015963377431035,0.0344542898237705,0.0027935912366956,2023-10-21T15:35:11.224740Z,1697902511224,752
0.0271377433091402,0.0420368947088718,0.004789013415575,2023-10-21T15:35:11.225906Z,1697902511225,753
0.0367157682776451,0.04855527728796,0.0066514075733721,2023-10-21T15:35:11.226501Z,1697902511226,754
0.0313946455717086,0.0415047816932201,0.0055871824733912,2023-10-21T15:35:11.227601Z,1697902511227,755
0.0267386585474014,0.0353854894638061,0.004789013415575,2023-10-21T15:35:11.228150Z,1697902511228,756
0.0228808429092168,0.0303304195404052,0.0041238726116716,2023-10-21T15:35:11.229251Z,1697902511229,757
0.0195551384240388,0.0258074607700109,0.0034587320405989,2023-10-21T15:35:11.233063Z,1697902511233,758
0.0166285187005996,0.0220826733857393,0.0030596475116908,2023-10-21T15:35:11.244247Z,1697902511244,759
0.0022614786867052,0.008912886492908,-0.0017293660202994,2023-10-21T15:35:11.256563Z,1697902511256,760
-0.0101101398468017,-0.0022614786867052,-0.0058532385155558,2023-10-21T15:35:11.264226Z,1697902511264,761
-0.0086468299850821,-0.0019954221788793,-0.0050550699234008,2023-10-21T15:35:11.289760Z,1697902511289,762
-0.0073165483772754,-0.0017293660202994,-0.0042569008655846,2023-10-21T15:35:11.291506Z,1697902511291,763
-0.0062523232772946,-0.0014633096288889,-0.0035917600616812,2023-10-21T15:35:11.293917Z,1697902511293,764
0.0061192950233817,0.015963377431035,-0.0119725335389375,2023-10-21T15:35:11.307330Z,1697902511307,765
0.0166285187005996,0.0307295024394989,-0.0191560536623001,2023-10-21T15:35:11.314139Z,1697902511314,766
0.0142340119928121,0.0262065455317497,-0.0163624621927738,2023-10-21T15:35:11.325310Z,1697902511325,767
0.0121055617928504,0.0224817581474781,-0.0139679564163088,2023-10-21T15:35:11.334362Z,1697902511334,768
0.010376195423305,0.0191560536623001,-0.0119725335389375,2023-10-21T15:35:11.345609Z,1697902511345,769
0.0224817581474781,0.0276698563247919,-0.0073165483772754,2023-10-21T15:35:11.356350Z,1697902511356,770
0.0328579545021057,0.0348533764481544,-0.0034587320405989,2023-10-21T15:35:11.365491Z,1697902511365,771
0.0280689392238855,0.0297983065247535,-0.0029266192577779,2023-10-21T15:35:11.375043Z,1697902511374,772
0.0239450670778751,0.0254083778709173,-0.0025275349617004,2023-10-21T15:35:11.390657Z,1697902511390,773
0.00957802683115,0.0102431681007146,-0.0085138017311692,2023-10-21T15:35:11.395250Z,1697902511395,774
-0.0026605629827827,-0.0026605629827827,-0.0138349281623959,2023-10-21T15:35:11.407278Z,1697902511407,775
-0.0022614786867052,-0.0022614786867052,-0.0118395052850246,2023-10-21T15:35:11.415433Z,1697902511415,776
-0.0019954221788793,-0.0019954221788793,-0.0101101398468017,2023-10-21T15:35:11.426709Z,1697902511426,777
-0.0017293660202994,-0.0017293660202994,-0.0086468299850821,2023-10-21T15:35:11.439441Z,1697902511439,778
-0.0014633096288889,-0.0014633096288889,-0.0073165483772754,2023-10-21T15:35:11.446656Z,1697902511446,779
-0.0011972533538937,-0.0011972533538937,-0.0062523232772946,2023-10-21T15:35:11.456288Z,1697902511456,780
-0.0010642252163961,-0.0010642252163961,-0.0053211259655654,2023-10-21T15:35:11.466865Z,1697902511466,781
-0.0009311970788985,-0.0009311970788985,-0.0045229573734104,2023-10-21T15:35:11.476468Z,1697902511476,782
-0.0007981689414009,-0.0007981689414009,-0.0038578163366764,2023-10-21T15:35:11.490433Z,1697902511490,783
-0.0006651407456956,-0.0006651407456956,-0.003325703786686,2023-10-21T15:35:11.496560Z,1697902511496,784
-0.000532112608198,-0.000532112608198,-0.0027935912366956,2023-10-21T15:35:11.507727Z,1697902511507,785
-0.000532112608198,-0.000532112608198,-0.0023945067077875,2023-10-21T15:35:11.516806Z,1697902511516,786
-0.0003990844707004,-0.0003990844707004,-0.0021284504327923,2023-10-21T15:35:11.528031Z,1697902511527,787
-0.0003990844707004,-0.0003990844707004,-0.0017293660202994,2023-10-21T15:35:11.539481Z,1697902511539,788
-0.0148991532623767,-0.0203533079475164,-0.0098440833389759,2023-10-21T15:35:11.547843Z,1697902511547,789
-0.027403799816966,-0.0373809114098548,-0.0167615469545125,2023-10-21T15:35:11.557409Z,1697902511557,790
-0.0367157682776451,-0.0478901341557502,-0.0219496451318264,2023-10-21T15:35:11.572547Z,1697902511572,791
-0.0446974597871303,-0.0568030215799808,-0.0263395737856626,2023-10-21T15:35:11.577634Z,1697902511577,792
-0.0381790809333324,-0.04855527728796,-0.0224817581474781,2023-10-21T15:35:11.590218Z,1697902511590,793
-0.0428350642323493,-0.0574681609869003,-0.0251423213630914,2023-10-21T15:35:11.597803Z,1697902511597,794
-0.0468259081244468,-0.0650507658720016,-0.0272707715630531,2023-10-21T15:35:11.609025Z,1697902511609,795
-0.0400414727628231,-0.0556057691574096,-0.0232799258083105,2023-10-21T15:35:11.622618Z,1697902511622,796
-0.0341882333159446,-0.0474910512566566,-0.0199542231857776,2023-10-21T15:35:11.628933Z,1697902511628,797
-0.0291331652551889,-0.0405735857784748,-0.0170276034623384,2023-10-21T15:35:11.639240Z,1697902511639,798
-0.0248762648552656,-0.0345873199403286,-0.014500068500638,2023-10-21T15:35:11.649161Z,1697902511649,799
-0.008912886492908,-0.5168143510818481,-0.1690787822008133,2023-10-21T15:31:39.243100Z,1697902299243,800
-0.0133028151467442,-0.4653324782848358,-0.1569732129573822,2023-10-21T15:31:39.253465Z,1697902299253,801
-0.0113073932006955,-0.3973550796508789,-0.1340923756361007,2023-10-21T15:31:39.263218Z,1697902299263,802
-0.0423029512166976,-0.3400199711322784,-0.1560420244932174,2023-10-21T15:31:39.272491Z,1697902299272,803
-0.0824774578213691,-0.2728407382965088,-0.1879687756299972,2023-10-21T15:31:39.283111Z,1697902299283,804
-0.0973766073584556,-0.192491739988327,-0.1865054666996002,2023-10-21T15:31:39.292714Z,1697902299292,805
-0.1084179431200027,-0.1179959699511528,-0.1849091351032257,2023-10-21T15:31:39.303837Z,1697902299303,806
-0.1142711862921714,-0.0530782341957092,-0.183046743273735,2023-10-21T15:31:39.312941Z,1697902299312,807
-0.1134730130434036,0.0010642252163961,-0.180652230978012,2023-10-21T15:31:39.324139Z,1697902299324,808
-0.1058904081583023,0.0412387289106845,-0.1775925755500793,2023-10-21T15:31:39.336494Z,1697902299336,809
-0.093119703233242,0.0530782341957092,-0.162959486246109,2023-10-21T15:31:39.344089Z,1697902299344,810
-0.0766242146492004,0.0585323870182037,-0.1628264635801315,2023-10-21T15:31:39.353433Z,1697902299353,811
-0.0623902045190334,0.0633213967084884,-0.1625604033470153,2023-10-21T15:31:39.364292Z,1697902299364,812
-0.040440559387207,0.0453625991940498,-0.1653539985418319,2023-10-21T15:31:39.373752Z,1697902299373,813
-0.0130367586389184,0.0236790105700492,-0.1827806830406189,2023-10-21T15:31:39.387170Z,1697902299387,814
0.006784435827285,0.0090459147468209,-0.1882348358631134,2023-10-21T15:31:39.393987Z,1697902299393,815
0.0232799258083105,0.0,-0.1976798325777053,2023-10-21T15:31:39.405029Z,1697902299404,816
0.0355185158550739,-0.003325703786686,-0.2105835676193237,2023-10-21T15:31:39.414183Z,1697902299414,817
0.0429680943489074,0.0006651407456956,-0.2256157398223877,2023-10-21T15:31:39.425413Z,1697902299425,818
0.0462937951087951,0.0155642936006188,-0.2411800324916839,2023-10-21T15:31:39.436693Z,1697902299436,819
0.0472249947488307,0.0441653467714786,-0.2559461593627929,2023-10-21T15:31:39.445387Z,1697902299445,820
0.0476240776479244,0.085138015449047,-0.2683177888393402,2023-10-21T15:31:39.454811Z,1697902299454,821
0.0482892207801342,0.1315648406744003,-0.277496725320816,2023-10-21T15:31:39.465557Z,1697902299465,822
0.0492204166948795,0.1742668747901916,-0.2830839157104492,2023-10-21T15:31:39.475100Z,1697902299475,823
0.0505506992340087,0.2053954601287841,-0.2849462926387787,2023-10-21T15:31:39.487206Z,1697902299487,824
0.0530782341957092,0.2224230766296386,-0.2829508781433105,2023-10-21T15:31:39.495268Z,1697902299495,825
0.0577342174947261,0.22614786028862,-0.2770976424217224,2023-10-21T15:31:39.506397Z,1697902299506,826
0.0655828788876533,0.2201615869998932,-0.2672535479068756,2023-10-21T15:31:39.515577Z,1697902299515,827
0.077023297548294,0.208721175789833,-0.2528865039348602,2023-10-21T15:31:39.526705Z,1697902299526,828
0.091789424419403,0.1954183578491211,-0.2335974276065826,2023-10-21T15:31:39.536497Z,1697902299536,829
0.0928536504507064,0.1747989952564239,-0.2065927237272262,2023-10-21T15:31:39.546700Z,1697902299546,830
0.1150693520903587,0.1540465950965881,-0.1807852536439895,2023-10-21T15:31:39.556094Z,1697902299556,831
0.1552438586950302,0.1303675919771194,-0.1552438586950302,2023-10-21T15:31:39.566814Z,1697902299566,832
0.1766613870859146,0.093119703233242,-0.1219868138432502,2023-10-21T15:31:39.576388Z,1697902299576,833
0.1979458928108215,0.0477571077644825,-0.08753252774477,2023-10-21T15:31:39.587425Z,1697902299587,834
0.2180331349372863,-0.0058532385155558,-0.0526791475713253,2023-10-21T15:31:39.596545Z,1697902299596,835
0.237056165933609,-0.0654498487710952,-0.0179588012397289,2023-10-21T15:31:39.607756Z,1697902299607,836
0.2552810311317444,-0.1265097707509994,0.0163624621927738,2023-10-21T15:31:39.619863Z,1697902299619,837
0.2728407382965088,-0.1854412406682968,0.049885556101799,2023-10-21T15:31:39.627797Z,1697902299627,838
0.28867107629776,-0.2406479269266128,0.0819453448057174,2023-10-21T15:31:39.637120Z,1697902299637,839
0.3017078340053558,-0.2917307317256927,0.111743651330471,2023-10-21T15:31:39.648038Z,1697902299648,840
0.310886800289154,-0.337093323469162,0.1392804682254791,2023-10-21T15:31:39.657449Z,1697902299657,841
0.3159418702125549,-0.3750063478946686,0.1653539985418319,2023-10-21T15:31:39.670551Z,1697902299670,842
0.3170060813426971,-0.4049376845359802,0.1906293481588363,2023-10-21T15:31:39.677645Z,1697902299677,843
0.314744621515274,-0.4258231222629547,0.2156386375427246,2023-10-21T15:31:39.688693Z,1697902299688,844
0.3106207251548767,-0.4364653527736664,0.2401158213615417,2023-10-21T15:31:39.697849Z,1697902299697,845
0.3056986927986145,-0.437529593706131,0.2643269300460815,2023-10-21T15:31:39.709057Z,1697902299708,846
0.3006436228752136,-0.4320754408836365,0.2880059480667114,2023-10-21T15:31:39.719913Z,1697902299719,847
0.2945243418216705,-0.4240937530994415,0.3104877173900604,2023-10-21T15:31:39.729034Z,1697902299729,848
0.2870747447013855,-0.4139836132526397,0.3301758766174316,2023-10-21T15:31:39.738485Z,1697902299738,849
0.277762770652771,-0.3994835317134857,0.3452080488204956,2023-10-21T15:31:39.749233Z,1697902299749,850
0.2661893367767334,-0.3789972066879272,0.3533227741718292,2023-10-21T15:31:39.758795Z,1697902299758,851
0.2507580518722534,-0.3534558117389679,0.3533227741718292,2023-10-21T15:31:39.770450Z,1697902299770,852
0.2308038473129272,-0.3241896033287048,0.3446759283542633,2023-10-21T15:31:39.779016Z,1697902299778,853
0.203400045633316,-0.2862765789031982,0.3132812976837158,2023-10-21T15:31:39.790147Z,1697902299790,854
0.1758632212877273,-0.2512901723384857,0.2877399027347564,2023-10-21T15:31:39.799100Z,1697902299799,855
0.1523172408342361,-0.2213588505983352,0.265923261642456,2023-10-21T15:31:39.810471Z,1697902299810,856
0.1301015317440033,-0.1891660392284393,0.2270790487527847,2023-10-21T15:31:39.819828Z,1697902299819,857
0.0939178764820098,-0.140211671590805,0.1966156065464019,2023-10-21T15:31:39.830416Z,1697902299830,858
0.0537433736026287,-0.0806150585412979,0.1716063171625137,2023-10-21T15:31:39.839815Z,1697902299839,859
0.025674432516098,-0.0264726020395755,0.1508539170026779,2023-10-21T15:31:39.853612Z,1697902299853,860
-0.0011972533538937,0.0347203463315963,0.1371520310640335,2023-10-21T15:31:39.860091Z,1697902299860,861
-0.0268716868013143,0.1045601293444633,0.1287712454795837,2023-10-21T15:31:39.871181Z,1697902299871,862
-0.0516149215400218,0.1825146228075027,0.1227849870920181,2023-10-21T15:31:39.880267Z,1697902299880,863
-0.0762251317501068,0.2645930051803589,0.1162666082382202,2023-10-21T15:31:39.891442Z,1697902299891,864
-0.1016335114836692,0.3454741239547729,0.1066885814070701,2023-10-21T15:31:39.903083Z,1697902299903,865
-0.1286382228136062,0.4209010601043701,0.0908582285046577,2023-10-21T15:31:39.911427Z,1697902299911,866
-0.1571062505245208,0.4900757074356079,0.066114991903305,2023-10-21T15:31:39.920820Z,1697902299920,867
-0.1863724440336227,0.5551264882087708,0.0312616154551506,2023-10-21T15:31:39.931742Z,1697902299931,868
-0.2155055999755859,0.6184478998184204,-0.0130367586389184,2023-10-21T15:31:39.941180Z,1697902299941,869
-0.2439736276865005,0.6821683645248413,-0.0647847130894661,2023-10-21T15:31:39.953911Z,1697902299953,870
-0.2709783315658569,0.7468200325965881,-0.1214547008275985,2023-10-21T15:31:39.961303Z,1697902299961,871
-0.2957215905189514,0.8096093535423279,-0.179188922047615,2023-10-21T15:31:39.972398Z,1697902299972,872
-0.3174051642417907,0.8652151226997375,-0.2327992618083953,2023-10-21T15:31:39.981451Z,1697902299981,873
-0.3349649012088775,0.9076510667800904,-0.277496725320816,2023-10-21T15:31:39.992749Z,1697902299992,874
-0.3473365008831024,0.9317291975021362,-0.3088913559913635,2023-10-21T15:31:40.002927Z,1697902300002,875
-0.3533227741718292,0.933192491531372,-0.3231253921985626,2023-10-21T15:31:40.012754Z,1697902300012,876
-0.3526576459407806,0.9099125862121582,-0.3176712393760681,2023-10-21T15:31:40.022187Z,1697902300022,877
-0.3453410863876343,0.8634857535362244,-0.2914646863937378,2023-10-21T15:31:40.032875Z,1697902300032,878
-0.3316391706466675,0.7989670634269714,-0.2470332831144333,2023-10-21T15:31:40.042455Z,1697902300042,879
-0.3126161694526672,0.7203474640846252,-0.1882348358631134,2023-10-21T15:31:40.053483Z,1697902300053,880
-0.2902674376964569,0.629622220993042,-0.1202574521303176,2023-10-21T15:31:40.062594Z,1697902300062,881
-0.266322374343872,0.5291860103607178,-0.04855527728796,2023-10-21T15:31:40.073802Z,1697902300073,882
-0.2421112358570099,0.4239607155323028,0.0218166168779134,2023-10-21T15:31:40.086317Z,1697902300086,883
-0.2190973609685897,0.3176712393760681,0.0862022414803505,2023-10-21T15:31:40.093863Z,1697902300093,884
-0.1984779983758926,0.212845042347908,0.1419410407543182,2023-10-21T15:31:40.103199Z,1697902300103,885
-0.1809182912111282,0.1136060431599617,0.1881018131971359,2023-10-21T15:31:40.114017Z,1697902300113,886
-0.1660191267728805,0.0264726020395755,0.2246845513582229,2023-10-21T15:31:40.123528Z,1697902300123,887
-0.1536475121974945,-0.0442983731627464,0.2530195415019989,2023-10-21T15:31:40.136695Z,1697902300136,888
-0.1438034325838089,-0.0996380895376205,0.2748361527919769,2023-10-21T15:31:40.143692Z,1697902300143,889
-0.1364868879318237,-0.1423401236534118,0.2921298146247864,2023-10-21T15:31:40.154794Z,1697902300154,890
-0.130766674876213,-0.1745329350233078,0.3060977756977081,2023-10-21T15:31:40.163920Z,1697902300163,891
-0.1261106878519058,-0.1983449757099151,0.3178042471408844,2023-10-21T15:31:40.175136Z,1697902300175,892
-0.1221198439598083,-0.2176340520381927,0.3276483416557312,2023-10-21T15:31:40.186325Z,1697902300186,893
-0.1183950528502464,-0.2367901057004928,0.3356300294399261,2023-10-21T15:31:40.195232Z,1697902300195,894
-0.1144042089581489,-0.2579415738582611,0.3408181369304657,2023-10-21T15:31:40.204517Z,1697902300204,895
-0.1092161163687706,-0.2800242602825165,0.3426805138587951,2023-10-21T15:31:40.215253Z,1697902300215,896
-0.1025647073984146,-0.3015748262405395,0.340685099363327,2023-10-21T15:31:40.224806Z,1697902300224,897
-0.0952481552958488,-0.322726309299469,0.3344327807426452,2023-10-21T15:31:40.236971Z,1697902300236,898
-0.0885967463254928,-0.3436117172241211,0.3243226408958435,2023-10-21T15:31:40.244997Z,1697902300244,899
-0.0835416764020919,-0.3638319969177246,0.3107537627220154,2023-10-21T15:31:40.256160Z,1697902300256,900
-0.0803490057587623,-0.3809926211833954,0.2947903871536255,2023-10-21T15:31:40.265228Z,1697902300265,901
-0.0792847797274589,-0.3907036781311035,0.2768315970897674,2023-10-21T15:31:40.276601Z,1697902300276,902
-0.0800829455256462,-0.3893733918666839,0.2572764456272125,2023-10-21T15:31:40.286132Z,1697902300286,903
-0.0832756236195564,-0.3763366341590881,0.2365240603685379,2023-10-21T15:31:40.296475Z,1697902300296,904
-0.0893949195742607,-0.354786068201065,0.2151065170764923,2023-10-21T15:31:40.305893Z,1697902300305,905
-0.0863352715969085,-0.3172721564769745,0.1894320845603943,2023-10-21T15:31:40.320073Z,1697902300320,906
-0.0988399162888526,-0.2856114506721496,0.1681475788354873,2023-10-21T15:31:40.326119Z,1697902300326,907
-0.1096151992678642,-0.2586067318916321,0.1499227285385131,2023-10-21T15:31:40.337281Z,1697902300337,908
-0.1225189268589019,-0.2296065837144851,0.1299685090780258,2023-10-21T15:31:40.346328Z,1697902300346,909
-0.1335602700710296,-0.2047303318977356,0.1129409000277519,2023-10-21T15:31:40.357506Z,1697902300357,910
-0.1431382894515991,-0.1999413073062896,0.0901930853724479,2023-10-21T15:31:40.369336Z,1697902300369,911
-0.1513860374689102,-0.1956844180822372,0.0707709789276123,2023-10-21T15:31:40.377530Z,1697902300377,912
-0.1540465950965881,-0.2125789821147918,0.0376469679176807,2023-10-21T15:31:40.386927Z,1697902300386,913
-0.1688127219676971,-0.2578085660934448,-0.0115734487771987,2023-10-21T15:31:40.397808Z,1697902300397,914
-0.1706751137971878,-0.2836160063743591,-0.0606608390808105,2023-10-21T15:31:40.407226Z,1697902300407,915
-0.1757301837205886,-0.3064968585968017,-0.1195923089981079,2023-10-21T15:31:40.419972Z,1697902300419,916
-0.1850421577692031,-0.3236574828624725,-0.1846430748701095,2023-10-21T15:31:40.427405Z,1697902300427,917
-0.1982119530439376,-0.3348318636417389,-0.2503589689731598,2023-10-21T15:31:40.438504Z,1697902300438,918
-0.2129780650138855,-0.3433456718921661,-0.3115519285202026,2023-10-21T15:31:40.447557Z,1697902300447,919
-0.2262808829545974,-0.3550521433353424,-0.3638319969177246,2023-10-21T15:31:40.458836Z,1697902300458,920
-0.2345286309719085,-0.3774008750915527,-0.403208315372467,2023-10-21T15:31:40.469308Z,1697902300469,921
-0.2353267967700958,-0.4166441857814789,-0.4270203709602356,2023-10-21T15:31:40.478858Z,1697902300478,922
-0.2282763123512268,-0.4739792943000793,-0.436598390340805,2023-10-21T15:31:40.488277Z,1697902300488,923
-0.2153725773096084,-0.5459475517272949,-0.4369974732398987,2023-10-21T15:31:40.498959Z,1697902300498,924
-0.2002073675394058,-0.625498354434967,-0.4351350963115692,2023-10-21T15:31:40.508566Z,1697902300508,925
-0.18717060983181,-0.7038519382476807,-0.4364653527736664,2023-10-21T15:31:40.519856Z,1697902300519,926
-0.1801201105117797,-0.7693018317222595,-0.4453782439231872,2023-10-21T15:31:40.528688Z,1697902300528,927
-0.183046743273735,-0.8120038509368896,-0.4650664329528808,2023-10-21T15:31:40.539823Z,1697902300539,928
-0.1987440586090088,-0.8290314674377441,-0.4960619807243347,2023-10-21T15:31:40.552570Z,1697902300552,929
-0.2269460260868072,-0.82277911901474,-0.5365025401115417,2023-10-21T15:31:40.559963Z,1697902300559,930
-0.2640608847141266,-0.796439528465271,-0.5814660787582397,2023-10-21T15:31:40.569647Z,1697902300569,931
-0.3050335645675659,-0.7544026374816895,-0.6252323389053345,2023-10-21T15:31:40.580214Z,1697902300580,932
-0.3446759283542633,-0.7062464356422424,-0.6628792881965637,2023-10-21T15:31:40.589591Z,1697902300589,933
-0.3788641691207886,-0.663278341293335,-0.691879391670227,2023-10-21T15:31:40.603096Z,1697902300603,934
-0.403607428073883,-0.634544312953949,-0.7117006182670593,2023-10-21T15:31:40.609797Z,1697902300609,935
-0.4159790277481079,-0.6278928518295288,-0.7226089239120483,2023-10-21T15:31:40.620916Z,1697902300620,936
-0.4154469072818756,-0.6501085758209229,-0.7252694964408875,2023-10-21T15:31:40.629989Z,1697902300629,937
-0.4029422700405121,-0.7027877569198608,-0.7204804420471191,2023-10-21T15:31:40.641157Z,1697902300641,938
-0.3816577792167663,-0.7802101373672485,-0.7097051739692688,2023-10-21T15:31:40.652672Z,1697902300652,939
-0.3542539775371551,-0.8727977275848389,-0.6942739486694336,2023-10-21T15:31:40.661289Z,1697902300661,940
-0.3237905204296112,-0.9695091843605042,-0.6748518347740173,2023-10-21T15:31:40.670575Z,1697902300670,941
-0.293194055557251,-1.0605003833770752,-0.6515718698501587,2023-10-21T15:31:40.681547Z,1697902300681,942
-0.2643269300460815,-1.137922763824463,-0.6237689852714539,2023-10-21T15:31:40.690978Z,1697902300690,943
-0.2383864521980285,-1.1985836029052734,-0.5909110307693481,2023-10-21T15:31:40.703106Z,1697902300703,944
-0.2157716602087021,-1.2447444200515747,-0.5541952848434448,2023-10-21T15:31:40.711072Z,1697902300711,945
-0.1970146894454956,-1.2795977592468262,-0.5149520039558411,2023-10-21T15:31:40.722315Z,1697902300722,946
-0.1822485625743866,-1.3052722215652466,-0.4751765727996826,2023-10-21T15:31:40.731274Z,1697902300731,947
-0.1708081513643264,-1.3221668004989624,-0.4369974732398987,2023-10-21T15:31:40.742516Z,1697902300742,948
-0.1621613204479217,-1.333208084106445,-0.4020110666751861,2023-10-21T15:31:40.752357Z,1697902300752,949
-0.1560420244932174,-1.3435842990875244,-0.3712815642356872,2023-10-21T15:31:40.762519Z,1697902300762,950
-0.1516520977020263,-1.3564881086349487,-0.343877762556076,2023-10-21T15:31:40.771895Z,1697902300771,951
-0.1473951935768127,-1.371387243270874,-0.3180703222751617,2023-10-21T15:31:40.782736Z,1697902300782,952
-0.1411428749561309,-1.3876166343688965,-0.2918637692928314,2023-10-21T15:31:40.792218Z,1697902300792,953
-0.1308996975421905,-1.405974507331848,-0.2623315155506134,2023-10-21T15:31:40.803186Z,1697902300803,954
-0.1152023822069168,-1.426859974861145,-0.2272120863199234,2023-10-21T15:31:40.812375Z,1697902300812,955
-0.0933857634663581,-1.4496077299118042,-0.1853082180023193,2023-10-21T15:31:40.823569Z,1697902300823,956
-0.0659819617867469,-1.474484086036682,-0.1374180763959884,2023-10-21T15:31:40.835859Z,1697902300835,957
-0.0339221805334091,-1.5022869110107422,-0.0850049927830696,2023-10-21T15:31:40.843552Z,1697902300843,958
0.0017293660202994,-1.5322182178497314,-0.0300643630325794,2023-10-21T15:31:40.852982Z,1697902300852,959
0.0396423898637294,-1.5616174936294556,0.0255414061248302,2023-10-21T15:31:40.863784Z,1697902300863,960
0.0780875235795974,-1.5876909494400024,0.079417809844017,2023-10-21T15:31:40.873266Z,1697902300873,961
0.1158675178885459,-1.6101727485656738,0.1290373057126999,2023-10-21T15:31:40.886580Z,1697902300886,962
0.1513860374689102,-1.630526065826416,0.1726705431938171,2023-10-21T15:31:40.893465Z,1697902300893,963
0.1839779317378997,-1.6508793830871582,0.208987221121788,2023-10-21T15:31:40.904529Z,1697902300904,964
0.2127120196819305,-1.6721638441085815,0.2374552488327026,2023-10-21T15:31:40.913670Z,1697902300913,965
0.2377213090658188,-1.6937143802642822,0.2578085660934448,2023-10-21T15:31:40.924870Z,1697902300924,966
0.2587397694587707,-1.7152650356292725,0.2703132033348083,2023-10-21T15:31:40.935577Z,1697902300935,967
0.2756343185901642,-1.7372146844863892,0.2762994766235351,2023-10-21T15:31:40.944825Z,1697902300944,968
0.2881389856338501,-1.7584991455078125,0.2782948911190033,2023-10-21T15:31:40.954304Z,1697902300954,969
0.2965197563171386,-1.7761918306350708,0.2785609364509582,2023-10-21T15:31:40.965008Z,1697902300964,970
0.3009096682071686,-1.7852377891540527,0.2796251773834228,2023-10-21T15:31:40.974615Z,1697902300974,971
0.3019739091396332,-1.7816460132598877,0.2836160063743591,2023-10-21T15:31:40.986155Z,1697902300986,972
0.3003775775432586,-1.7630220651626587,0.2919968068599701,2023-10-21T15:31:40.994754Z,1697902300994,973
0.2967858016490936,-1.7284348011016846,0.3051665723323822,2023-10-21T15:31:41.005848Z,1697902301005,974
0.2911986112594604,-1.6770858764648438,0.321795105934143,2023-10-21T15:31:41.015014Z,1697902301014,975
0.2824187576770782,-1.6112369298934937,0.3398869335651397,2023-10-21T15:31:41.026274Z,1697902301026,976
0.2684507966041565,-1.538204550743103,0.3571805953979492,2023-10-21T15:31:41.035722Z,1697902301035,977
0.2475653886795044,-1.4643739461898804,0.3719467222690582,2023-10-21T15:31:41.046197Z,1697902301046,978
0.2194964438676834,-1.3922725915908811,0.3831210732460022,2023-10-21T15:31:41.055623Z,1697902301055,979
0.184776097536087,-1.3212356567382812,0.3905706405639648,2023-10-21T15:31:41.069384Z,1697902301069,980
0.1444685757160186,-1.2495334148406982,0.3948275446891784,2023-10-21T15:31:41.075893Z,1697902301075,981
0.1011013984680175,-1.1775652170181274,0.3974881172180176,2023-10-21T15:31:41.087221Z,1697902301087,982
0.0574681609869003,-1.1051979064941406,0.4008138179779053,2023-10-21T15:31:41.096105Z,1697902301096,983
0.0167615469545125,-1.0321654081344604,0.4071991741657257,2023-10-21T15:31:41.107275Z,1697902301107,984
-0.0182248577475547,-0.9570045471191406,0.4185065627098083,2023-10-21T15:31:41.119020Z,1697902301118,985
-0.0444314032793045,-0.8783848881721497,0.4358002245426178,2023-10-21T15:31:41.127287Z,1697902301127,986
-0.0607938654720783,-0.7961735129356384,0.459080159664154,2023-10-21T15:31:41.136697Z,1697902301136,987
-0.0681104138493537,-0.7106363773345947,0.4868830442428589,2023-10-21T15:31:41.147533Z,1697902301147,988
-0.0693076699972152,-0.6233699321746826,0.5170804262161255,2023-10-21T15:31:41.156982Z,1697902301156,989
-0.0685094967484474,-0.5362364649772644,0.5459475517272949,2023-10-21T15:31:41.169364Z,1697902301169,990
-0.0702388659119606,-0.451364517211914,0.5701586604118347,2023-10-21T15:31:41.177172Z,1697902301177,991
-0.0787526667118072,-0.3687540292739868,0.5865211486816406,2023-10-21T15:31:41.188234Z,1697902301188,992
-0.0975096374750137,-0.2877399027347564,0.5935716032981873,2023-10-21T15:31:41.197283Z,1697902301197,993
-0.1283721625804901,-0.2077899724245071,0.5911771059036255,2023-10-21T15:31:41.208613Z,1697902301208,994
-0.1709411740303039,-0.1308996975421905,0.5809339284896851,2023-10-21T15:31:41.218901Z,1697902301218,995
-0.2240194082260131,-0.0591975264251232,0.5648375153541565,2023-10-21T15:31:41.228536Z,1697902301228,996
-0.2838820815086365,0.0085138017311692,0.5454154014587402,2023-10-21T15:31:41.237972Z,1697902301237,997
-0.3458732068538666,0.0756930187344551,0.5257272720336914,2023-10-21T15:31:41.253232Z,1697902301253,998
-0.4048046767711639,0.1450006812810897,0.5086996555328369,2023-10-21T15:31:41.258267Z,1697902301258,999
0.285478413105011,0.4685251414775848,0.4085294604301452,2023-10-21T15:31:34.756772Z,1697902294756,1000
0.2880059480667114,0.4727820456027984,0.3962908685207367,2023-10-21T15:31:34.764485Z,1697902294764,1001
0.284547209739685,0.4880802929401397,0.3793962895870209,2023-10-21T15:31:34.773837Z,1697902294773,1002
0.2762994766235351,0.5134886503219604,0.3594420552253723,2023-10-21T15:31:34.784729Z,1697902294784,1003
0.2648590505123138,0.5472778081893921,0.3381575644016266,2023-10-21T15:31:34.794179Z,1697902294794,1004
0.2512901723384857,0.5859889984130859,0.3171391189098358,2023-10-21T15:31:34.807181Z,1697902294807,1005
0.2363910228013992,0.6241680979728699,0.2974509596824646,2023-10-21T15:31:34.814354Z,1697902294814,1006
0.2216248959302902,0.6586223840713501,0.2798912227153778,2023-10-21T15:31:34.825461Z,1697902294825,1007
0.208721175789833,0.6881546378135681,0.2645930051803589,2023-10-21T15:31:34.834625Z,1697902294834,1008
0.199542224407196,0.7120996713638306,0.2514232099056244,2023-10-21T15:31:34.845759Z,1697902294845,1009
0.1947532147169113,0.7276639938354492,0.2405149042606353,2023-10-21T15:31:34.856646Z,1697902294856,1010
0.1938220113515854,0.7299254536628723,0.2317350357770919,2023-10-21T15:31:34.865836Z,1697902294865,1011
0.1960835009813308,0.7156914472579956,0.2256157398223877,2023-10-21T15:31:34.875214Z,1697902294875,1012
0.2012715935707092,0.6862922310829163,0.2229551821947097,2023-10-21T15:31:34.886007Z,1697902294885,1013
0.208721175789833,0.6443883776664734,0.2241524308919906,2023-10-21T15:31:34.895474Z,1697902294895,1014
0.2176340520381927,0.5918422341346741,0.2293405383825302,2023-10-21T15:31:34.907012Z,1697902294906,1015
0.2060606032609939,0.5221354961395264,0.2159046977758407,2023-10-21T15:31:34.915671Z,1697902294915,1016
0.2200285643339157,0.4646673202514648,0.229074478149414,2023-10-21T15:31:34.926808Z,1697902294926,1017
0.2555470764636993,0.4226304292678833,0.2648590505123138,2023-10-21T15:31:34.935832Z,1697902294935,1018
0.2653911709785461,0.3744742572307586,0.274304062128067,2023-10-21T15:31:34.947200Z,1697902294947,1019
0.2499599009752273,0.3263180553913116,0.2579415738582611,2023-10-21T15:31:34.956690Z,1697902294956,1020
0.2543498277664184,0.2970518767833709,0.2555470764636993,2023-10-21T15:31:34.967139Z,1697902294967,1021
0.2582076489925384,0.2720425724983215,0.2535516619682312,2023-10-21T15:31:34.976511Z,1697902294976,1022
0.2502259612083435,0.2608681917190552,0.2269460260868072,2023-10-21T15:31:34.990779Z,1697902294990,1023
0.2547489106655121,0.265923261642456,0.1975468099117279,2023-10-21T15:31:34.996762Z,1697902294996,1024
0.2393176406621933,0.2528865039348602,0.1463309675455093,2023-10-21T15:31:35.007897Z,1697902295007,1025
0.2249506115913391,0.2304047644138336,0.0846059024333953,2023-10-21T15:31:35.016962Z,1697902295016,1026
0.2141753286123275,0.192491739988327,0.015963377431035,2023-10-21T15:31:35.028131Z,1697902295028,1027
0.2080560326576233,0.1360878050327301,-0.0542754866182804,2023-10-21T15:31:35.039812Z,1697902295039,1028
0.2063266634941101,0.0617250613868236,-0.121188648045063,2023-10-21T15:31:35.048214Z,1697902295048,1029
0.2080560326576233,-0.0230138711631298,-0.180652230978012,2023-10-21T15:31:35.057532Z,1697902295057,1030
0.2120468765497207,-0.106555551290512,-0.2297396212816238,2023-10-21T15:31:35.068388Z,1697902295068,1031
0.2161707431077957,-0.1765283644199371,-0.266854465007782,2023-10-21T15:31:35.077869Z,1697902295077,1032
0.2185652554035186,-0.2244184911251068,-0.2918637692928314,2023-10-21T15:31:35.090283Z,1697902295090,1033
0.2169689089059829,-0.2469002455472946,-0.3047674894332886,2023-10-21T15:31:35.098189Z,1697902295098,1034
0.2103175073862075,-0.243840605020523,-0.3062308132648468,2023-10-21T15:31:35.109163Z,1697902295109,1035
0.1991431415081024,-0.2172349691390991,-0.2974509596824646,2023-10-21T15:31:35.118249Z,1697902295118,1036
0.184510052204132,-0.1702760308980941,-0.2808224260807037,2023-10-21T15:31:35.129473Z,1697902295129,1037
0.1677484959363937,-0.1084179431200027,-0.258872777223587,2023-10-21T15:31:35.139754Z,1697902295139,1038
0.1504548341035843,-0.0384451374411582,-0.2343956083059311,2023-10-21T15:31:35.149586Z,1697902295149,1039
0.1335602700710296,0.0324588678777217,-0.2101844847202301,2023-10-21T15:31:35.158891Z,1697902295158,1040
0.1181290000677108,0.0983078032732009,-0.1891660392284393,2023-10-21T15:31:35.169712Z,1697902295169,1041
0.1053582951426506,0.1553768813610077,-0.1737347692251205,2023-10-21T15:31:35.179196Z,1697902295179,1042
0.095514215528965,0.2012715935707092,-0.1649549156427383,2023-10-21T15:31:35.190611Z,1697902295190,1043
0.0891288593411445,0.2343956083059311,-0.162959486246109,2023-10-21T15:31:35.199371Z,1697902295199,1044
0.0864683017134666,0.2546158730983734,-0.1674824506044387,2023-10-21T15:31:35.210528Z,1697902295210,1045
0.0877985805273056,0.2632627189159393,-0.1778586357831955,2023-10-21T15:31:35.223499Z,1697902295223,1046
0.0925875902175903,0.2625975608825683,-0.1928908228874206,2023-10-21T15:31:35.230578Z,1697902295230,1047
0.0996380895376205,0.2534186244010925,-0.2120468765497207,2023-10-21T15:31:35.239886Z,1697902295239,1048
0.1080188602209091,0.2366570830345153,-0.2339965254068374,2023-10-21T15:31:35.250857Z,1697902295250,1049
0.1167987138032913,0.2145744115114212,-0.2576755285263061,2023-10-21T15:31:35.260235Z,1697902295260,1050
0.1253125220537185,0.190097227692604,-0.2818866670131683,2023-10-21T15:31:35.273908Z,1697902295273,1051
0.1326290667057037,0.1656200438737869,-0.3054326474666595,2023-10-21T15:31:35.280578Z,1697902295280,1052
0.1382162570953369,0.1439364552497863,-0.3273822963237762,2023-10-21T15:31:35.291686Z,1697902295291,1053
0.1424731463193893,0.1299685090780258,-0.3469374179840088,2023-10-21T15:31:35.300642Z,1697902295300,1054
0.1456658244132995,0.1258446276187896,-0.3638319969177246,2023-10-21T15:31:35.311932Z,1697902295311,1055
0.1475282162427902,0.1297024488449096,-0.37819904088974,2023-10-21T15:31:35.323075Z,1697902295323,1056
0.1477942764759063,0.1384823024272918,-0.3897724747657776,2023-10-21T15:31:35.331873Z,1697902295331,1057
0.1471291333436966,0.1504548341035843,-0.3982862830162048,2023-10-21T15:31:35.341224Z,1697902295341,1058
0.1461979448795318,0.1637576520442962,-0.4030753076076507,2023-10-21T15:31:35.352113Z,1697902295352,1059
0.1450006812810897,0.173867791891098,-0.4042725563049316,2023-10-21T15:31:35.361536Z,1697902295361,1060
0.1436704099178314,0.1778586357831955,-0.4016119837760925,2023-10-21T15:31:35.373715Z,1697902295373,1061
0.1428722292184829,0.1761292666196823,-0.3957587480545044,2023-10-21T15:31:35.381687Z,1697902295381,1062
0.1434043496847152,0.1712072342634201,-0.3873779773712158,2023-10-21T15:31:35.392820Z,1697902295392,1063
0.1457988619804382,0.1662851870059967,-0.3768687546253204,2023-10-21T15:31:35.401889Z,1697902295401,1064
0.1500557512044906,0.1609640568494796,-0.3646301627159118,2023-10-21T15:31:35.413240Z,1697902295413,1065
0.1560420244932174,0.1524502635002136,-0.3503961563110351,2023-10-21T15:31:35.422985Z,1697902295422,1066
0.1636246293783188,0.1371520310640335,-0.3342997431755066,2023-10-21T15:31:35.433165Z,1697902295433,1067
0.1722714602947235,0.1136060431599617,-0.3159418702125549,2023-10-21T15:31:35.442596Z,1697902295442,1068
0.1819825172424316,0.0831425935029983,-0.2953225076198578,2023-10-21T15:31:35.457091Z,1697902295457,1069
0.1920926570892334,0.0481561906635761,-0.2720425724983215,2023-10-21T15:31:35.462808Z,1697902295462,1070
0.2028679251670837,0.0117064770311117,-0.2461020797491073,2023-10-21T15:31:35.473833Z,1697902295473,1071
0.2139092683792114,-0.0242111235857009,-0.2175010293722152,2023-10-21T15:31:35.483049Z,1697902295483,1072
0.2248175740242004,-0.058000274002552,-0.18717060983181,2023-10-21T15:31:35.494122Z,1697902295494,1073
0.234661653637886,-0.0881976634263992,-0.1563080847263336,2023-10-21T15:31:35.506428Z,1697902295506,1074
0.2425103187561035,-0.1144042089581489,-0.1267758309841156,2023-10-21T15:31:35.514163Z,1697902295514,1075
0.2480975091457367,-0.1360878050327301,-0.099771112203598,2023-10-21T15:31:35.523574Z,1697902295523,1076
0.2507580518722534,-0.1515190601348877,-0.0758260488510131,2023-10-21T15:31:35.534405Z,1697902295534,1077
0.2504920065402984,-0.1585695594549179,-0.0544085130095481,2023-10-21T15:31:35.543893Z,1697902295543,1078
0.2470332831144333,-0.1564411073923111,-0.0339221805334091,2023-10-21T15:31:35.556699Z,1697902295556,1079
0.2266799658536911,-0.1419410407543182,-0.0220826733857393,2023-10-21T15:31:35.564161Z,1697902295564,1080
0.2206937074661255,-0.1262437105178833,0.0014633096288889,2023-10-21T15:31:35.575173Z,1697902295575,1081
0.2155055999755859,-0.1128078699111938,0.0216835886240005,2023-10-21T15:31:35.584402Z,1697902295584,1082
0.2100514471530914,-0.0876655504107475,0.0558718256652355,2023-10-21T15:31:35.595457Z,1697902295595,1083
0.2052624374628067,-0.0662480220198631,0.0850049927830696,2023-10-21T15:31:35.605875Z,1697902295605,1084
0.2037991285324096,-0.0456286557018756,0.1261106878519058,2023-10-21T15:31:35.615419Z,1697902295615,1085
0.2177670896053314,-0.0248762648552656,0.1922256797552108,2023-10-21T15:31:35.624928Z,1697902295624,1086
0.2165698260068893,-0.0167615469545125,0.2272120863199234,2023-10-21T15:31:35.639260Z,1697902295639,1087
0.2147074341773986,-0.0119725335389375,0.2584736943244934,2023-10-21T15:31:35.645205Z,1697902295645,1088
0.2108496278524398,-0.0079816887155175,0.2841481268405914,2023-10-21T15:31:35.656602Z,1697902295656,1089
0.2044642716646194,-0.0034587320405989,0.303171157836914,2023-10-21T15:31:35.665389Z,1697902295665,1090
0.1858403235673904,-0.0009311970788985,0.2881389856338501,2023-10-21T15:31:35.676540Z,1697902295676,1091
0.1743999123573303,0.0063853515312075,0.2954555153846741,2023-10-21T15:31:35.689115Z,1697902295689,1092
0.1646888554096222,0.0127707030624151,0.3017078340053558,2023-10-21T15:31:35.696673Z,1697902295696,1093
0.1492575854063034,0.0214175321161746,0.2947903871536255,2023-10-21T15:31:35.706127Z,1697902295706,1094
0.1360878050327301,0.028867108747363,0.2888041138648987,2023-10-21T15:31:35.716797Z,1697902295716,1095
0.1170647740364074,0.0420368947088718,0.2700471580028534,2023-10-21T15:31:35.726310Z,1697902295726,1096
0.1008353382349014,0.053344290703535,0.2540837824344635,2023-10-21T15:31:35.739663Z,1697902295739,1097
0.0774223878979682,0.0814132317900657,0.2306708097457885,2023-10-21T15:31:35.746532Z,1697902295746,1098
0.0493534430861473,0.1347575187683105,0.216702863574028,2023-10-21T15:31:35.757522Z,1697902295757,1099
0.0222157016396522,0.1813173741102218,0.1966156065464019,2023-10-21T15:31:35.766755Z,1697902295766,1100
-0.0083807734772562,0.2369231432676315,0.1786568015813827,2023-10-21T15:31:35.777905Z,1697902295777,1101
-0.041903868317604,0.3011757433414459,0.162028282880783,2023-10-21T15:31:35.789306Z,1697902295789,1102
-0.0772893577814102,0.3732770085334778,0.1457988619804382,2023-10-21T15:31:35.797890Z,1697902295797,1103
-0.1144042089581489,0.4504333138465881,0.1287712454795837,2023-10-21T15:31:35.807277Z,1697902295807,1104
-0.1527163237333297,0.5307823419570923,0.1090830862522125,2023-10-21T15:31:35.818133Z,1697902295818,1105
-0.19102843105793,0.6139249205589294,0.0848719626665115,2023-10-21T15:31:35.827635Z,1697902295827,1106
-0.2288084179162979,0.6991959810256958,0.0542754866182804,2023-10-21T15:31:35.839792Z,1697902295839,1107
-0.2653911709785461,0.7830036878585815,0.0168945752084255,2023-10-21T15:31:35.847857Z,1697902295847,1108
-0.3005105853080749,0.8610912561416626,-0.0270047150552272,2023-10-21T15:31:35.858799Z,1697902295858,1109
-0.3332355320453644,0.9284034967422484,-0.0760921016335487,2023-10-21T15:31:35.868039Z,1697902295868,1110
-0.3621026277542114,0.9812156558036804,-0.1277070194482803,2023-10-21T15:31:35.879163Z,1697902295879,1111
-0.3855155706405639,1.0172662734985352,-0.1771934926509857,2023-10-21T15:31:35.889618Z,1697902295889,1112
-0.4017450213432312,1.0358902215957642,-0.2192303985357284,2023-10-21T15:31:35.899241Z,1697902295899,1113
-0.4098597466945648,1.034959077835083,-0.2486296147108078,2023-10-21T15:31:35.908644Z,1697902295908,1114
-0.4094606637954712,1.012743353843689,-0.2610012292861938,2023-10-21T15:31:35.923339Z,1697902295923,1115
-0.4004147350788116,0.9697751998901368,-0.2542167901992798,2023-10-21T15:31:35.928898Z,1697902295928,1116
-0.3831210732460022,0.9088483452796936,-0.2270790487527847,2023-10-21T15:31:35.939768Z,1697902295939,1117
-0.358643889427185,0.8319580554962158,-0.1818494796752929,2023-10-21T15:31:35.949113Z,1697902295949,1118
-0.329111635684967,0.7376410961151123,-0.1231840699911117,2023-10-21T15:31:35.960149Z,1697902295960,1119
-0.2966527938842773,0.6248332262039185,-0.0573351345956325,2023-10-21T15:31:35.972915Z,1697902295972,1120
-0.2624645531177521,0.4981904327869415,0.0093119703233242,2023-10-21T15:31:35.980163Z,1697902295980,1121
-0.2269460260868072,0.3678228259086609,0.0723673179745674,2023-10-21T15:31:35.989640Z,1697902295989,1122
-0.1907623708248138,0.2421112358570099,0.1283721625804901,2023-10-21T15:31:36.000401Z,1697902296000,1123
-0.1556429415941238,0.1243813186883926,0.1757301837205886,2023-10-21T15:31:36.009979Z,1697902296009,1124
-0.1237161830067634,0.0154312653467059,0.2140422910451889,2023-10-21T15:31:36.023155Z,1697902296023,1125
-0.0963123813271522,-0.0828765407204628,0.2441066652536392,2023-10-21T15:31:36.030168Z,1697902296030,1126
-0.0738306269049644,-0.1678815335035324,0.2677856683731079,2023-10-21T15:31:36.041274Z,1697902296041,1127
-0.0560048520565032,-0.2377213090658188,0.2870747447013855,2023-10-21T15:31:36.050400Z,1697902296050,1128
-0.0420368947088718,-0.2904004454612732,0.3038362860679626,2023-10-21T15:31:36.061595Z,1697902296061,1129
-0.0309955589473247,-0.3255198895931244,0.3194005787372589,2023-10-21T15:31:36.072748Z,1697902296072,1130
-0.0220826733857393,-0.3450750410556793,0.3344327807426452,2023-10-21T15:31:36.081578Z,1697902296081,1131
-0.0148991532623767,-0.3537218570709228,0.3487998247146606,2023-10-21T15:31:36.091006Z,1697902296090,1132
-0.0093119703233242,-0.3570475578308105,0.3615705072879791,2023-10-21T15:31:36.101813Z,1697902296101,1133
-0.0049220416694879,-0.3590429723262787,0.3718136847019195,2023-10-21T15:31:36.111385Z,1697902296111,1134
-0.0014633096288889,-0.3602402210235595,0.3784650862216949,2023-10-21T15:31:36.122960Z,1697902296122,1135
0.0014633096288889,-0.3590429723262787,0.3807265758514404,2023-10-21T15:31:36.131643Z,1697902296131,1136
0.0039908443577587,-0.3537218570709228,0.3783320784568786,2023-10-21T15:31:36.142783Z,1697902296142,1137
0.0062523232772946,-0.3444098830223083,0.3714146018028259,2023-10-21T15:31:36.151668Z,1697902296151,1138
0.0078486613929271,-0.3317722082138061,0.3606393337249756,2023-10-21T15:31:36.162911Z,1697902296162,1139
0.0085138017311692,-0.3156757950782776,0.3473365008831024,2023-10-21T15:31:36.172441Z,1697902296172,1140
0.0081147169694304,-0.2958545982837677,0.3328364491462707,2023-10-21T15:31:36.182905Z,1697902296182,1141
0.0071835201233625,-0.2640608847141266,0.3017078340053558,2023-10-21T15:31:36.192342Z,1697902296192,1142
0.0053211259655654,-0.2390515953302383,0.288405030965805,2023-10-21T15:31:36.206239Z,1697902296206,1143
0.0035917600616812,-0.2177670896053314,0.2770976424217224,2023-10-21T15:31:36.212661Z,1697902296212,1144
-0.0,-0.1927577853202819,0.2631296813488006,2023-10-21T15:31:36.223624Z,1697902296223,1145
-0.0030596475116908,-0.1714732944965362,0.2512901723384857,2023-10-21T15:31:36.232773Z,1697902296232,1146
-0.0070504918694496,-0.1540465950965881,0.2367901057004928,2023-10-21T15:31:36.243960Z,1697902296243,1147
-0.010376195423305,-0.1391474455595016,0.2245515137910843,2023-10-21T15:31:36.255653Z,1697902296255,1148
-0.0123716183006763,-0.134890541434288,0.2135101854801178,2023-10-21T15:31:36.263957Z,1697902296263,1149
