ACC_X,ACC_Y,ACC_Z,DATE,UNIX_TIMESTAMP,norm
-1.4459896087646484,1.2038030624389648,-0.2093185186386108,2023-10-20T11:59:31.172553Z,1697803171172,1.8931038017070891
-1.3127093315124512,1.152470588684082,-0.1647142767906189,2023-10-20T11:59:31.189448Z,1697803171189,1.7545726088709916
-1.2017545700073242,1.101914882659912,-0.1283380985260009,2023-10-20T11:59:31.210017Z,1697803171209,1.635512495425873
-1.1107244491577148,1.0557031631469729,-0.0983519554138183,2023-10-20T11:59:31.230308Z,1697803171230,1.53554260044095
-1.036919116973877,1.0158319473266602,-0.0727772414684295,2023-10-20T11:59:31.250069Z,1697803171250,1.4534140247125433
-0.9784674644470216,0.984389305114746,-0.0496932864189147,2023-10-20T11:59:31.272641Z,1697803171272,1.3888449538090233
-0.935382843017578,0.9648885726928712,-0.0269309878349304,2023-10-20T11:59:31.290204Z,1697803171290,1.3441265933053697
-0.9069809913635254,0.9596724510192872,-0.0017594052478671,2023-10-20T11:59:31.311007Z,1697803171310,1.3204502366416373
-0.8879523277282715,0.9649653434753418,0.028765469789505,2023-10-20T11:59:31.331304Z,1697803171331,1.3116573114494314
-0.8675203323364258,0.9701194763183594,0.0668191313743591,2023-10-20T11:59:31.351247Z,1697803171351,1.3031454721814193
-0.8311433792114258,0.9605045318603516,0.1124910116195678,2023-10-20T11:59:31.372331Z,1697803171372,1.2751558729137606
-0.7619514465332031,0.9183664321899414,0.1618727445602417,2023-10-20T11:59:31.392133Z,1697803171392,1.2042299182792247
-0.6433801651000977,0.8220782279968262,0.2028818130493164,2023-10-20T11:59:31.412615Z,1697803171412,1.063443312949406
-0.4607815742492676,0.6382741928100586,0.208817720413208,2023-10-20T11:59:31.432561Z,1697803171432,0.8144436412260421
-0.2127342224121093,0.3275361061096191,0.1353745460510254,2023-10-20T11:59:31.455499Z,1697803171455,0.41335459101025795
0.0791482925415039,-0.1390051841735839,-0.0695843696594238,2023-10-20T11:59:31.473164Z,1697803171473,0.17443875125747377
0.3740739822387695,-0.76678466796875,-0.4490947723388672,2023-10-20T11:59:31.493248Z,1697803171493,0.9641453136130551
0.6314859390258789,-1.5299859046936035,-1.0216450691223145,2023-10-20T11:59:31.513962Z,1697803171513,1.945093829873109
0.8313658237457275,-2.361449718475342,-1.7676334381103516,2023-10-20T11:59:31.534418Z,1697803171534,3.0646601569024754
0.9835004806518556,-3.162585735321045,-2.6239185333251958,2023-10-20T11:59:31.555891Z,1697803171555,4.225419529256951
1.1164894104003906,-3.837752342224121,-3.4939169883728027,2023-10-20T11:59:31.574310Z,1697803171574,5.308704885885352
1.249653697013855,-4.337601661682129,-4.300925254821777,2023-10-20T11:59:31.594394Z,1697803171594,6.2349322839507835
1.3814741373062134,-4.648892879486084,-4.984594821929932,2023-10-20T11:59:31.614931Z,1697803171614,6.954628770523488
1.518913745880127,-4.800466537475586,-5.547253608703613,2023-10-20T11:59:31.634863Z,1697803171634,7.491568630408567
1.649247646331787,-4.792178630828857,-5.990009307861328,2023-10-20T11:59:31.655918Z,1697803171655,7.846349809750329
1.7866146564483645,-4.626518249511719,-6.320217609405518,2023-10-20T11:59:31.675872Z,1697803171675,8.033791985976528
1.9110455513000488,-4.306900024414063,-6.523470401763916,2023-10-20T11:59:31.696566Z,1697803171696,8.04718267483294
1.99658465385437,-3.8558993339538574,-6.588422775268555,2023-10-20T11:59:31.716374Z,1697803171716,7.89060356495433
2.0250227451324463,-3.3331360816955566,-6.511275291442871,2023-10-20T11:59:31.739198Z,1697803171739,7.589941974637158
1.9905622005462649,-2.79699969291687,-6.34597110748291,2023-10-20T11:59:31.757451Z,1697803171757,7.2150463930198345
1.9161200523376465,-2.2996010780334477,-6.166634559631348,2023-10-20T11:59:31.777259Z,1697803171777,6.854711005221352
1.8264784812927248,-1.8526477813720703,-5.994997024536133,2023-10-20T11:59:31.797737Z,1697803171797,6.535160041547974
1.7586877346038818,-1.447840690612793,-5.843714714050293,2023-10-20T11:59:31.817435Z,1697803171817,6.272019361612985
1.7165579795837402,-1.0552536249160769,-5.662016868591309,2023-10-20T11:59:31.838500Z,1697803171838,6.009872422138732
1.704737901687622,-0.6701228618621826,-5.411797523498535,2023-10-20T11:59:31.858656Z,1697803171858,5.713383270776218
1.700291633605957,-0.2966873049736023,-5.057498931884766,2023-10-20T11:59:31.878932Z,1697803171878,5.343904045008523
1.7152838706970217,0.0567679479718208,-4.61669921875,2023-10-20T11:59:31.899250Z,1697803171899,4.925376435704904
1.766763687133789,0.3896090984344482,-4.132273674011231,2023-10-20T11:59:31.921620Z,1697803171921,4.510979371786549
1.8703036308288572,0.7230415344238281,-3.67441463470459,2023-10-20T11:59:31.939200Z,1697803171939,4.185946444918382
2.037174224853516,1.0780603885650637,-3.2721986770629883,2023-10-20T11:59:31.959309Z,1697803171959,4.002446402635936
2.2894949913024902,1.4980192184448242,-2.9467639923095703,2023-10-20T11:59:31.980240Z,1697803171980,4.021102699559099
2.679267883300781,2.04854679107666,-2.7025675773620605,2023-10-20T11:59:32.000163Z,1697803172000,4.3219083581129025
3.2246346473693848,2.785045623779297,-2.4853415489196777,2023-10-20T11:59:32.021591Z,1697803172021,4.932714298470342
3.8762359619140634,3.697400093078613,-2.208860158920288,2023-10-20T11:59:32.040545Z,1697803172040,5.794396938629501
4.542144775390625,4.705686569213867,-1.8262619972229004,2023-10-20T11:59:32.061077Z,1697803172061,6.790419584295856
5.134433269500732,5.705446720123291,-1.3616211414337158,2023-10-20T11:59:32.081139Z,1697803172081,7.795417846909866
5.611655235290527,6.610846519470215,-0.8630629777908325,2023-10-20T11:59:32.101106Z,1697803172101,8.714289637565889
5.973799705505371,7.372570514678955,-0.3858237266540527,2023-10-20T11:59:32.121562Z,1697803172121,9.496838361447393
6.218532562255859,7.968019008636475,0.0510654225945472,2023-10-20T11:59:32.141702Z,1697803172141,10.10752599933403
6.3667097091674805,8.370597839355469,0.436283528804779,2023-10-20T11:59:32.161978Z,1697803172161,10.525789472839378
6.399271011352539,8.550901412963867,0.7582422494888306,2023-10-20T11:59:32.182460Z,1697803172182,10.707171230529298
6.34173059463501,8.513321876525879,0.9976973533630372,2023-10-20T11:59:32.205027Z,1697803172204,10.662532359490003
6.233034133911133,8.289870262145996,1.1436798572540283,2023-10-20T11:59:32.222535Z,1697803172222,10.434589934137442
6.119380474090576,7.966072082519531,1.191220998764038,2023-10-20T11:59:32.242814Z,1697803172242,10.11553900088742
6.041633605957031,7.612728118896484,1.179471492767334,2023-10-20T11:59:32.263331Z,1697803172263,9.790103117082953
6.012486457824707,7.28563928604126,1.153916358947754,2023-10-20T11:59:32.283916Z,1697803172283,9.516409836449906
6.01871919631958,6.995776176452637,1.127826690673828,2023-10-20T11:59:32.305114Z,1697803172305,9.297196250449076
6.010470390319824,6.716132164001465,1.1045968532562256,2023-10-20T11:59:32.324048Z,1697803172323,9.08032597242356
5.954361438751221,6.405483245849609,1.0583524703979492,2023-10-20T11:59:32.344746Z,1697803172344,8.809355578460039
5.822127342224121,6.054647445678711,0.9699296951293944,2023-10-20T11:59:32.365038Z,1697803172364,8.455571305005432
5.637667655944824,5.682436466217041,0.8334285020828247,2023-10-20T11:59:32.388457Z,1697803172388,8.04785585479534
5.38214635848999,5.290038585662842,0.6615368127822876,2023-10-20T11:59:32.405863Z,1697803172405,7.5755949348334966
5.040384292602539,4.871923446655273,0.4722917079925537,2023-10-20T11:59:32.425355Z,1697803172425,7.025964086488226
4.617964744567871,4.411203861236572,0.2900788187980652,2023-10-20T11:59:32.445703Z,1697803172445,6.392844719573246
4.146572589874268,3.926713466644287,0.1171334087848663,2023-10-20T11:59:32.465940Z,1697803172465,5.711992920835577
3.6732754707336426,3.441767692565918,-0.0401507914066314,2023-10-20T11:59:32.488397Z,1697803172488,5.033917919427626
3.21114444732666,2.968213558197021,-0.1714354157447815,2023-10-20T11:59:32.506608Z,1697803172506,4.376200462779676
2.7695388793945312,2.513047218322754,-0.268102765083313,2023-10-20T11:59:32.526977Z,1697803172526,3.7493507462816766
2.3529019355773926,2.082183361053467,-0.3271199464797973,2023-10-20T11:59:32.547611Z,1697803172547,3.158898942175374
1.9601688385009768,1.6804313659667969,-0.3495746850967407,2023-10-20T11:59:32.567224Z,1697803172567,2.6054392934044324
1.5891351699829102,1.31126070022583,-0.3392373323440552,2023-10-20T11:59:32.588348Z,1697803172588,2.088022313120542
1.2465906143188477,0.9848237037658693,-0.3044838905334472,2023-10-20T11:59:32.608180Z,1697803172608,1.617583483719264
0.948017120361328,0.7146015167236328,-0.2569477558135986,2023-10-20T11:59:32.628258Z,1697803172628,1.2146661835333796
0.7069687843322754,0.5075860023498535,-0.2077312469482422,2023-10-20T11:59:32.648514Z,1697803172648,0.8947629198622573
0.5253329277038574,0.3592443466186523,-0.1640098094940185,2023-10-20T11:59:32.672085Z,1697803172672,0.6572141227314223
0.3979554176330566,0.2595605850219726,-0.1295795440673828,2023-10-20T11:59:32.688889Z,1697803172688,0.49247443584531364
0.3207826614379883,0.1999521255493164,-0.1071021556854248,2023-10-20T11:59:32.709405Z,1697803172709,0.392878149231277
0.286935806274414,0.1714344024658203,-0.096792459487915,2023-10-20T11:59:32.729213Z,1697803172729,0.3479808780448727
0.2879257202148437,0.1655430793762207,-0.0968379974365234,2023-10-20T11:59:32.750040Z,1697803172749,0.3459527846948399
0.3165721893310547,0.1760082244873047,-0.1048228740692138,2023-10-20T11:59:32.771789Z,1697803172771,0.37707384034584107
0.3678617477416992,0.1989541053771972,-0.118537425994873,2023-10-20T11:59:32.789876Z,1697803172789,0.4346908359506886
0.4375419616699219,0.231729507446289,-0.1358194351196289,2023-10-20T11:59:32.810398Z,1697803172810,0.5134086596459766
0.519989013671875,0.2715020179748535,-0.1541996002197265,2023-10-20T11:59:32.830856Z,1697803172830,0.6065306561187082
0.6073379516601562,0.3148112297058105,-0.1709365844726562,2023-10-20T11:59:32.854608Z,1697803172854,0.7051133340015748
0.6913919448852539,0.3585205078125,-0.1839046478271484,2023-10-20T11:59:32.871825Z,1697803172871,0.8002378992941876
0.764796257019043,0.3999781608581543,-0.1918196678161621,2023-10-20T11:59:32.891586Z,1697803172891,0.8841326986798488
0.8212108612060547,0.4367208480834961,-0.194115400314331,2023-10-20T11:59:32.912358Z,1697803172912,0.9501542855519577
0.8588218688964844,0.4680304527282715,-0.1915593147277832,2023-10-20T11:59:32.931963Z,1697803172931,0.9966556467681598
0.88018798828125,0.4949202537536621,-0.1858893632888794,2023-10-20T11:59:32.954514Z,1697803172954,1.0267579109381764
0.8902473449707031,0.5192980766296387,-0.179059624671936,2023-10-20T11:59:32.972901Z,1697803172972,1.0460751296184623
0.8939943313598633,0.5429892539978027,-0.1726124286651611,2023-10-20T11:59:32.993204Z,1697803172993,1.060121806676169
0.8945512771606445,0.5670046806335449,-0.1673307418823242,2023-10-20T11:59:33.013248Z,1697803173013,1.0722480461670134
0.8928670883178711,0.5915131568908691,-0.1632585525512695,2023-10-20T11:59:33.033268Z,1697803173033,1.0833987295346854
0.8895559310913086,0.6166067123413086,-0.1600072383880615,2023-10-20T11:59:33.054781Z,1697803173054,1.0941279214884594
0.884882926940918,0.6418042182922363,-0.1568095684051513,2023-10-20T11:59:33.074320Z,1697803173074,1.1043186540816217
0.8785300254821777,0.6660733222961426,-0.1528358459472656,2023-10-20T11:59:33.093882Z,1697803173093,1.1130262675043896
0.8694009780883789,0.6879668235778809,-0.1475676298141479,2023-10-20T11:59:33.116452Z,1697803173116,1.1184509897236599
0.854407787322998,0.7050638198852539,-0.140642762184143,2023-10-20T11:59:33.134345Z,1697803173134,1.1166503677087796
0.8294024467468262,0.7141342163085938,-0.1317909955978393,2023-10-20T11:59:33.154876Z,1697803173154,1.1023905678537806
0.7896728515625,0.7108535766601562,-0.1205945014953613,2023-10-20T11:59:33.174667Z,1697803173174,1.069317096906386
