ACC_X,ACC_Y,ACC_Z,DATE,UNIX_TIMESTAMP,norm
-1.4487547874450684,0.9688320159912108,-0.4573626518249511,2023-10-20T11:58:32.403889Z,1697803112403,1.801861954934104
-1.3603734970092771,0.9736995697021484,-0.4088422060012817,2023-10-20T11:58:32.424420Z,1697803112424,1.7221669062002651
-1.2915716171264648,0.981788158416748,-0.3690437078475952,2023-10-20T11:58:32.446897Z,1697803112446,1.6638084290193755
-1.2416939735412598,0.997161865234375,-0.3369201421737671,2023-10-20T11:58:32.464165Z,1697803112464,1.6277748282882285
-1.2100749015808103,1.0237412452697754,-0.3110973834991455,2023-10-20T11:58:32.485398Z,1697803112485,1.6152736569146209
-1.1971993446350098,1.0661263465881348,-0.28970468044281,2023-10-20T11:58:32.505153Z,1697803112505,1.6290612203211796
-1.20338773727417,1.128309726715088,-0.2695822715759277,2023-10-20T11:58:32.525386Z,1697803112525,1.6714961820984695
-1.225751876831055,1.2115678787231443,-0.2452068328857422,2023-10-20T11:58:32.546577Z,1697803112546,1.7408304854874324
-1.2545051574707031,1.3115382194519043,-0.2074553370475769,2023-10-20T11:58:32.565529Z,1697803112565,1.8267329876238587
-1.2738003730773926,1.4179677963256836,-0.1448060274124145,2023-10-20T11:58:32.586034Z,1697803112585,1.9115880433408723
-1.258616924285889,1.5085992813110352,-0.0476033985614776,2023-10-20T11:58:32.606249Z,1697803112606,1.9652619258576314
-1.1793408393859863,1.5458755493164062,0.0835036933422088,2023-10-20T11:58:32.626443Z,1697803112626,1.9461626078567364
-1.0100488662719729,1.4782233238220217,0.2253633737564087,2023-10-20T11:58:32.646756Z,1697803112646,1.8044754244875694
-0.7435388565063477,1.2451896667480469,0.3229405879974365,2023-10-20T11:58:32.667938Z,1697803112667,1.485812222552705
-0.4040982723236084,0.7952804565429688,0.2934374809265136,2023-10-20T11:58:32.687792Z,1697803112687,0.9390803871163619
-0.0502612590789794,0.1191902160644531,0.0566780567169189,2023-10-20T11:58:32.708066Z,1697803112708,0.14122642770707464
0.2564606666564941,-0.7449493408203125,-0.4294052124023437,2023-10-20T11:58:32.729426Z,1697803112729,0.8972794605744709
0.4843471050262451,-1.721489429473877,-1.1571712493896484,2023-10-20T11:58:32.748289Z,1697803112748,2.1300618005944334
0.6430907249450684,-2.711337089538574,-2.0725135803222656,2023-10-20T11:58:32.769025Z,1697803112768,3.4727837586348644
0.7708514928817749,-3.603240489959717,-3.072371482849121,2023-10-20T11:58:32.788427Z,1697803112788,4.797605713393683
0.9081075191497804,-4.325772285461426,-4.046205520629883,2023-10-20T11:58:32.808685Z,1697803112808,5.992390528593599
1.0580580234527588,-4.842462539672852,-4.902007579803467,2023-10-20T11:58:32.829764Z,1697803112829,6.971270224398007
1.2058942317962646,-5.152509689331055,-5.584972381591797,2023-10-20T11:58:32.849398Z,1697803112849,7.693793180224762
1.3344388008117676,-5.283297538757324,-6.1122002601623535,2023-10-20T11:58:32.870122Z,1697803112870,8.188586680037032
1.4394747018814087,-5.222349643707275,-6.490029811859131,2023-10-20T11:58:32.889962Z,1697803112889,8.453727590673024
1.5497348308563232,-5.004188537597656,-6.747509002685547,2023-10-20T11:58:32.913361Z,1697803112913,8.542391861013844
1.6447207927703855,-4.655584335327148,-6.886359691619873,2023-10-20T11:58:32.930168Z,1697803112930,8.473577862501868
1.709974765777588,-4.21495532989502,-6.898445129394531,2023-10-20T11:58:32.950560Z,1697803112950,8.263074932243667
1.7204101085662842,-3.7284669876098633,-6.808918952941895,2023-10-20T11:58:32.971681Z,1697803112971,7.951267466705229
1.6791660785675049,-3.2365002632141118,-6.674594879150391,2023-10-20T11:58:32.991532Z,1697803112991,7.6055735795518675
1.6146602630615234,-2.769681453704834,-6.541253089904785,2023-10-20T11:58:33.013149Z,1697803113013,7.284658887435659
1.5582218170166016,-2.340795516967773,-6.432563781738281,2023-10-20T11:58:33.032132Z,1697803113032,7.020345838305549
1.5409653186798096,-1.9369096755981443,-6.356110572814941,2023-10-20T11:58:33.052324Z,1697803113052,6.821021537764674
1.581496238708496,-1.527440071105957,-6.24791145324707,2023-10-20T11:58:33.072341Z,1697803113072,6.623488586197247
1.678877830505371,-1.1138759851455688,-6.057705879211426,2023-10-20T11:58:33.092512Z,1697803113092,6.383976112038571
1.796036720275879,-0.683566689491272,-5.737868309020996,2023-10-20T11:58:33.113281Z,1697803113113,6.051127502476613
1.927910327911377,-0.2408850789070129,-5.296648025512695,2023-10-20T11:58:33.133362Z,1697803113133,5.641750097254834
2.0653533935546875,0.2101190090179443,-4.781596183776856,2023-10-20T11:58:33.153785Z,1697803113153,5.212820417291194
2.219570636749268,0.666142463684082,-4.240533828735352,2023-10-20T11:58:33.174101Z,1697803113174,4.8324286591828285
2.409123420715332,1.1296963691711426,-3.727224826812744,2023-10-20T11:58:33.196600Z,1697803113196,4.579551774176911
2.670057773590088,1.6440508365631104,-3.2992706298828125,2023-10-20T11:58:33.214545Z,1697803113214,4.551625902545161
3.0553417205810547,2.279796600341797,-2.9660472869873047,2023-10-20T11:58:33.234444Z,1697803113234,4.830116155652777
3.5631208419799805,3.0780835151672363,-2.6570115089416504,2023-10-20T11:58:33.255126Z,1697803113255,5.406490397618847
4.1247172355651855,4.0109052658081055,-2.288495779037476,2023-10-20T11:58:33.275069Z,1697803113275,6.191757929322499
4.643498420715332,4.990313053131104,-1.8367438316345213,2023-10-20T11:58:33.296384Z,1697803113296,7.0596692454026435
5.049430847167969,5.925189018249512,-1.3393735885620115,2023-10-20T11:58:33.315126Z,1697803113315,7.899274548466684
5.342230796813965,6.751708984375,-0.8563089370727539,2023-10-20T11:58:33.335626Z,1697803113335,8.652067330518662
5.548821449279785,7.436659812927246,-0.435471773147583,2023-10-20T11:58:33.356309Z,1697803113356,9.288862379990503
5.701113700866699,7.966301918029785,-0.0785532891750335,2023-10-20T11:58:33.380060Z,1697803113380,9.796470502107136
5.792941093444824,8.292062759399414,0.2146723270416259,2023-10-20T11:58:33.396826Z,1697803113396,10.117438189874836
5.796977996826172,8.414372444152832,0.4468567371368408,2023-10-20T11:58:33.416982Z,1697803113416,10.227722056652198
5.751347064971924,8.365978240966797,0.611621618270874,2023-10-20T11:58:33.437741Z,1697803113437,10.17062761062597
5.686676502227783,8.199651718139648,0.697711706161499,2023-10-20T11:58:33.457825Z,1697803113457,10.002968537623964
5.65753984451294,7.983236312866211,0.7220954895019531,2023-10-20T11:58:33.479726Z,1697803113479,9.81128131363464
5.685367584228516,7.760833740234375,0.7208048105239868,2023-10-20T11:58:33.497639Z,1697803113497,9.64746103833704
5.756680011749268,7.559412956237793,0.7179360389709473,2023-10-20T11:58:33.518153Z,1697803113518,9.528878273787669
5.84046745300293,7.38369083404541,0.724716305732727,2023-10-20T11:58:33.538594Z,1697803113538,9.44220123308901
5.883213520050049,7.198037624359131,0.7468937635421753,2023-10-20T11:58:33.558849Z,1697803113558,9.326403232661963
5.825305938720703,6.956325531005859,0.7538342475891113,2023-10-20T11:58:33.579658Z,1697803113579,9.104554917504583
5.655256271362305,6.67308235168457,0.725570797920227,2023-10-20T11:58:33.599841Z,1697803113599,8.777152416925512
5.405797481536865,6.349421501159668,0.6509947776794434,2023-10-20T11:58:33.619449Z,1697803113619,8.364304753614906
5.071907997131348,5.980758666992188,0.5352331399917603,2023-10-20T11:58:33.639799Z,1697803113639,7.860038134660196
4.675726890563965,5.5681867599487305,0.3972327709197998,2023-10-20T11:58:33.662393Z,1697803113662,7.281821174891891
4.224430084228516,5.114194869995117,0.2427846193313598,2023-10-20T11:58:33.680656Z,1697803113680,6.6377513569132125
3.755525588989258,4.656950950622559,0.0819832384586334,2023-10-20T11:58:33.700789Z,1697803113700,5.983133448072643
3.310666084289551,4.2149763107299805,-0.065546914935112,2023-10-20T11:58:33.720999Z,1697803113720,5.360114888669601
2.893252372741699,3.783371925354004,-0.1860818862915039,2023-10-20T11:58:33.741225Z,1697803113741,4.766491255246162
2.50971794128418,3.366586685180664,-0.2775833010673523,2023-10-20T11:58:33.763021Z,1697803113762,4.208282612024873
2.168173789978028,2.975771903991699,-0.3426755666732788,2023-10-20T11:58:33.781996Z,1697803113781,3.6977861690650693
1.872768878936768,2.620763301849365,-0.3847155570983886,2023-10-20T11:58:33.801833Z,1697803113801,3.244020594587523
1.6232085227966309,2.307732582092285,-0.4076062440872192,2023-10-20T11:58:33.822122Z,1697803113822,2.8507154240907377
1.4147562980651855,2.0390028953552246,-0.4162039756774902,2023-10-20T11:58:33.842278Z,1697803113842,2.5164049633458934
1.2407407760620115,1.8127946853637693,-0.415520429611206,2023-10-20T11:58:33.862586Z,1697803113862,2.2356921684548547
1.0951838493347168,1.623941421508789,-0.4086456298828125,2023-10-20T11:58:33.882883Z,1697803113882,2.000900960856862
0.971987247467041,1.4621968269348145,-0.3966171741485595,2023-10-20T11:58:33.903382Z,1697803113903,1.8000233200618216
0.8641996383666992,1.3178644180297852,-0.3798604011535644,2023-10-20T11:58:33.924029Z,1697803113923,1.6210803692681819
0.7672677040100098,1.1849441528320312,-0.3587751388549804,2023-10-20T11:58:33.945429Z,1697803113945,1.4565410997318349
0.6785368919372559,1.059626579284668,-0.3336741924285888,2023-10-20T11:58:33.964412Z,1697803113964,1.3017523834966729
0.5959153175354004,0.9390668869018556,-0.3048722743988037,2023-10-20T11:58:33.984607Z,1697803113984,1.15321671313156
0.5179920196533203,0.8213224411010742,-0.272792100906372,2023-10-20T11:58:34.005121Z,1697803114005,1.008613808649111
0.443082332611084,0.7043595314025879,-0.2375681400299072,2023-10-20T11:58:34.025282Z,1697803114025,0.8653802193874217
0.3707833290100097,0.5884613990783691,-0.2000787258148193,2023-10-20T11:58:34.045991Z,1697803114045,0.7237393120459178
0.3018383979797363,0.4760861396789551,-0.1620287895202636,2023-10-20T11:58:34.065210Z,1697803114065,0.5865302716167216
0.2373442649841308,0.3704242706298828,-0.125394582748413,2023-10-20T11:58:34.085335Z,1697803114085,0.4574606450561475
0.1789479255676269,0.2751350402832031,-0.0921559333801269,2023-10-20T11:58:34.105791Z,1697803114105,0.3409022829400811
0.1275444030761718,0.1922926902770996,-0.0634493827819824,2023-10-20T11:58:34.125772Z,1697803114125,0.23931125687162327
0.0829100608825683,0.1220226287841796,-0.0395278930664062,2023-10-20T11:58:34.145892Z,1697803114145,0.1527286956050569
0.0446891784667968,0.0639686584472656,-0.020292043685913,2023-10-20T11:58:34.166362Z,1697803114166,0.08062802845494327
0.0132551193237304,0.0184040069580078,-0.0057063102722167,2023-10-20T11:58:34.187063Z,1697803114187,0.023387339252671228
-0.010289192199707,-0.0138306617736816,0.0041868686676025,2023-10-20T11:58:34.207639Z,1697803114207,0.017739350339294854
-0.0253686904907226,-0.0329785346984863,0.0097517967224121,2023-10-20T11:58:34.229213Z,1697803114229,0.04273466681031445
-0.0327377319335937,-0.041172981262207,0.0118951797485351,2023-10-20T11:58:34.248470Z,1697803114248,0.05393022139231257
-0.0335969924926757,-0.0409364700317382,0.0115556716918945,2023-10-20T11:58:34.268432Z,1697803114268,0.054204114525219935
-0.0284767150878906,-0.0336780548095703,0.0092864036560058,2023-10-20T11:58:34.288408Z,1697803114288,0.045070744067694235
-0.0180678367614746,-0.0207796096801757,0.0055961608886718,2023-10-20T11:58:34.308577Z,1697803114308,0.02809903771291189
-0.0029816627502441,-0.0033435821533203,0.0008772611618041992,2023-10-20T11:58:34.328855Z,1697803114328,0.004565023714966361
0.0160584449768066,0.0175890922546386,-0.0044958591461181,2023-10-20T11:58:34.349349Z,1697803114349,0.02423762717093087
0.0386977195739746,0.0415558815002441,-0.0103119611740112,2023-10-20T11:58:34.369705Z,1697803114369,0.0577125751525837
0.0654773712158203,0.0691652297973632,-0.0166298151016235,2023-10-20T11:58:34.390032Z,1697803114389,0.09668332795560243
0.0966582298278808,0.1007885932922363,-0.0234336853027343,2023-10-20T11:58:34.412726Z,1697803114412,0.14159905203833406
