GYR_X,GYR_Y,GYR_Z,DATE,UNIX_TIMESTAMP
0.15205118060112,1.8798208236694336,-0.8074808716773987,2023-10-21T15:38:54.787071Z,1697902734787
0.1628264635801315,2.094794273376465,-0.8516462445259094,2023-10-21T15:38:54.798312Z,1697902734798
0.1770604699850082,2.3244009017944336,-0.8875638246536255,2023-10-21T15:38:54.807131Z,1697902734807
0.1952853202819824,2.5607919692993164,-0.910976767539978,2023-10-21T15:38:54.816543Z,1697902734816
0.2189643383026123,2.794788360595703,-0.9198896884918212,2023-10-21T15:38:54.827343Z,1697902734827
0.2498268634080886,3.0136196613311768,-0.9143024682998656,2023-10-21T15:38:54.836852Z,1697902734836
0.2898683547973633,3.201588630676269,-0.8944813013076782,2023-10-21T15:38:54.848554Z,1697902734848
0.3400199711322784,3.348451614379883,-0.8620223999023438,2023-10-21T15:38:54.857091Z,1697902734857
0.400281697511673,3.453809976577759,-0.819586455821991,2023-10-21T15:38:54.867934Z,1697902734867
0.4694563448429107,3.5224523544311523,-0.771430253982544,2023-10-21T15:38:54.877252Z,1697902734877
0.5455484390258789,3.560365438461304,-0.7210125923156738,2023-10-21T15:38:54.888261Z,1697902734888
0.626429557800293,3.575397729873657,-0.670062780380249,2023-10-21T15:38:54.898292Z,1697902734898
0.7102373242378235,3.5760626792907715,-0.619113028049469,2023-10-21T15:38:54.908395Z,1697902734908
0.7947101593017578,3.5692782402038574,-0.5682962536811829,2023-10-21T15:38:54.917879Z,1697902734917
0.8770546317100525,3.559434175491333,-0.5180116295814514,2023-10-21T15:38:54.932438Z,1697902734932
0.954609990119934,3.556640625,-0.4701215028762817,2023-10-21T15:38:54.938158Z,1697902734938
1.025514006614685,3.5781912803649902,-0.4271534085273742,2023-10-21T15:38:54.948925Z,1697902734948
1.090032696723938,3.648430109024048,-0.3930981755256653,2023-10-21T15:38:54.958366Z,1697902734958
1.1501613855361938,3.797687768936157,-0.3726118505001068,2023-10-21T15:38:54.969295Z,1697902734969
1.2078956365585327,4.0527024269104,-0.3703503608703613,2023-10-21T15:38:54.981553Z,1697902734981
1.2642995119094849,4.431965827941895,-0.3895064294338226,2023-10-21T15:38:54.989392Z,1697902734989
1.320969581604004,4.955697536468506,-0.432740569114685,2023-10-21T15:38:54.998908Z,1697902734998
1.3747129440307615,5.343873977661133,-0.5017821788787842,2023-10-21T15:38:55.009738Z,1697902735009
1.4359058141708374,6.074464321136475,-0.5958331227302551,2023-10-21T15:38:55.019244Z,1697902735019
1.496965765953064,6.894716262817383,-0.7101042866706848,2023-10-21T15:38:55.031917Z,1697902735031
1.552438497543335,7.746362209320068,-0.8364810347557068,2023-10-21T15:38:55.039449Z,1697902735039
1.5956727266311646,8.56022834777832,-0.9648531675338744,2023-10-21T15:38:55.050465Z,1697902735050
1.6189526319503784,9.258493423461914,-1.0825830698013306,2023-10-21T15:38:55.059646Z,1697902735059
1.6145626306533811,9.759876251220703,-1.1765010356903076,2023-10-21T15:38:55.070792Z,1697902735070
1.5769157409667969,10.001588821411133,-1.235432505607605,2023-10-21T15:38:55.081545Z,1697902735081
1.5048145055770874,9.964341163635254,-1.2543224096298218,2023-10-21T15:38:55.090771Z,1697902735090
1.4038461446762085,9.681788444519045,-1.2356984615325928,2023-10-21T15:38:55.100270Z,1697902735100
1.2831895351409912,9.224571228027344,-1.187808394432068,2023-10-21T15:38:55.111018Z,1697902735110
1.1525559425354004,8.664655685424805,-1.1202300786972046,2023-10-21T15:38:55.120565Z,1697902735120
1.019527792930603,8.05179500579834,-1.040945291519165,2023-10-21T15:38:55.131885Z,1697902735131
0.8894262313842773,7.420576572418213,-0.9562063813209534,2023-10-21T15:38:55.140750Z,1697902735140
0.766907274723053,6.7978715896606445,-0.8704031705856323,2023-10-21T15:38:55.151843Z,1697902735151
0.6534342765808105,6.1987128257751465,-0.7860633730888367,2023-10-21T15:38:55.160959Z,1697902735160
0.5495392680168152,5.629884243011475,-0.7047831416130066,2023-10-21T15:38:55.172166Z,1697902735172
0.4546902179718017,5.095643520355225,-0.6277598738670349,2023-10-21T15:38:55.181535Z,1697902735181
0.3696852326393127,4.79872465133667,-0.5563237071037292,2023-10-21T15:38:55.192137Z,1697902735192
0.2942582666873932,4.294148921966553,-0.4896766245365143,2023-10-21T15:38:55.201617Z,1697902735201
0.2282763123512268,3.835068702697754,-0.4276854991912842,2023-10-21T15:38:55.215158Z,1697902735215
0.1713402569293975,3.4166951179504395,-0.3703503608703613,2023-10-21T15:38:55.221910Z,1697902735221
0.1242482960224151,3.0440831184387207,-0.3178042471408844,2023-10-21T15:38:55.232753Z,1697902735232
0.0877985805273056,2.72202205657959,-0.269781082868576,2023-10-21T15:38:55.242068Z,1697902735242
0.0609268918633461,2.4461216926574707,-0.2246845513582229,2023-10-21T15:38:55.253094Z,1697902735253
0.0415047816932201,2.205340623855591,-0.1803861707448959,2023-10-21T15:38:55.264700Z,1697902735264
0.0270047150552272,1.988371729850769,-0.1350235790014267,2023-10-21T15:38:55.273142Z,1697902735273
0.0146330967545509,1.7876323461532593,-0.0883306935429573,2023-10-21T15:38:55.282655Z,1697902735282
0.0019954221788793,1.5982002019882202,-0.0413717553019523,2023-10-21T15:38:55.293442Z,1697902735293
-0.0043899291194975,1.3953323364257812,-0.0167615469545125,2023-10-21T15:38:55.302954Z,1697902735302
-0.0215505603700876,1.2313085794448853,0.0292661935091018,2023-10-21T15:38:55.315495Z,1697902735315
-0.0361836589872837,1.0916290283203125,0.0685094967484474,2023-10-21T15:38:55.323232Z,1697902735323
-0.0585323870182037,0.9494219422340392,0.1049592122435569,2023-10-21T15:38:55.334176Z,1697902735334
-0.0965784415602684,0.8266369104385376,0.1587025821208953,2023-10-21T15:38:55.343343Z,1697902735343
-0.1243813186883926,0.6941409111022949,0.1809182912111282,2023-10-21T15:38:55.354483Z,1697902735354
-0.1563080847263336,0.5660347938537598,0.1987440586090088,2023-10-21T15:38:55.365052Z,1697902735365
-0.1906293481588363,0.4471076130867004,0.2120468765497207,2023-10-21T15:38:55.374516Z,1697902735374
-0.225216656923294,0.3417493104934692,0.2202946245670318,2023-10-21T15:38:55.383979Z,1697902735383
-0.2584736943244934,0.2496938407421112,0.2226891219615936,2023-10-21T15:38:55.398714Z,1697902735398
-0.289070188999176,0.1698769479990005,0.218166172504425,2023-10-21T15:38:55.404241Z,1697902735404
-0.3156757950782776,0.1045601293444633,0.2061936408281326,2023-10-21T15:38:55.415152Z,1697902735415
-0.3362951576709747,0.0595966130495071,0.1873036324977874,2023-10-21T15:38:55.424569Z,1697902735424
-0.3491989076137543,0.0377799943089485,0.1628264635801315,2023-10-21T15:38:55.435558Z,1697902735435
-0.3549191057682037,0.0353854894638061,0.1358217447996139,2023-10-21T15:38:55.448115Z,1697902735448
-0.3553181886672973,0.0435002073645591,0.1090830862522125,2023-10-21T15:38:55.455625Z,1697902735455
-0.3529236912727356,0.0538763999938964,0.0854040756821632,2023-10-21T15:38:55.464983Z,1697902735464
-0.3491989076137543,0.0623902045190334,0.0673122480511665,2023-10-21T15:38:55.475779Z,1697902735475
-0.3453410863876343,0.0662480220198631,0.0560048520565032,2023-10-21T15:38:55.485327Z,1697902735485
-0.3183363676071167,0.0618580915033817,0.04855527728796,2023-10-21T15:38:55.498245Z,1697902735498
-0.3201987743377685,0.0544085130095481,0.0525461211800575,2023-10-21T15:38:55.505534Z,1697902735505
-0.3476025760173797,0.0488213300704956,0.0639865398406982,2023-10-21T15:38:55.516544Z,1697902735516
-0.3490658700466156,0.043766263872385,0.0726333707571029,2023-10-21T15:38:55.525763Z,1697902735525
-0.3511943221092224,0.0399084463715553,0.0834086537361145,2023-10-21T15:38:55.536840Z,1697902735536
-0.3531897366046905,0.033789150416851,0.0957802683115005,2023-10-21T15:38:55.547783Z,1697902735547
-0.3545200228691101,0.0244771800935268,0.1096151992678642,2023-10-21T15:38:55.556871Z,1697902735556
-0.3538548946380615,0.017825772985816,0.1245143488049507,2023-10-21T15:38:55.566480Z,1697902735566
-0.3491989076137543,0.0224817581474781,0.1391474455595016,2023-10-21T15:38:55.577139Z,1697902735577
-0.3204648196697235,0.0266056302934885,0.1354226619005203,2023-10-21T15:38:55.586649Z,1697902735586
-0.3103546798229217,0.058000274002552,0.1471291333436966,2023-10-21T15:38:55.598299Z,1697902735598
-0.3017078340053558,0.0848719626665115,0.1569732129573822,2023-10-21T15:38:55.606822Z,1697902735606
-0.2941252589225769,0.106555551290512,0.1561750471591949,2023-10-21T15:38:55.617830Z,1697902735617
-0.2876068651676178,0.1251794844865799,0.1553768813610077,2023-10-21T15:38:55.626948Z,1697902735626
-0.2892031967639923,0.1283721625804901,0.1493906080722808,2023-10-21T15:38:55.638259Z,1697902735638
-0.3140794634819031,0.1411428749561309,0.153514489531517,2023-10-21T15:38:55.647618Z,1697902735647
-0.2918637692928314,0.1305006146430969,0.140211671590805,2023-10-21T15:38:55.658164Z,1697902735658
-0.2945243418216705,0.1340923756361007,0.1475282162427902,2023-10-21T15:38:55.667677Z,1697902735667
-0.2966527938842773,0.1371520310640335,0.1537805497646331,2023-10-21T15:38:55.681532Z,1697902735681
-0.2905334830284118,0.1468630731105804,0.1688127219676971,2023-10-21T15:38:55.687944Z,1697902735687
-0.285212367773056,0.154977798461914,0.181583434343338,2023-10-21T15:38:55.698881Z,1697902735698
-0.2692489922046661,0.1802531480789184,0.1970146894454956,2023-10-21T15:38:55.708145Z,1697902735708
-0.255680114030838,0.201936736702919,0.2101844847202301,2023-10-21T15:38:55.719337Z,1697902735719
-0.2393176406621933,0.2306708097457885,0.2230882048606872,2023-10-21T15:38:55.731281Z,1697902735731
-0.225216656923294,0.2552810311317444,0.2341295480728149,2023-10-21T15:38:55.739354Z,1697902735739
-0.2171019464731216,0.2696480751037597,0.2470332831144333,2023-10-21T15:38:55.748692Z,1697902735748
-0.2101844847202301,0.2820196747779846,0.2580746114253998,2023-10-21T15:38:55.759436Z,1697902735759
-0.2067257463932037,0.2880059480667114,0.2769646048545837,2023-10-21T15:38:55.769024Z,1697902735768
-0.2168358862400055,0.3170060813426971,0.3257859349250793,2023-10-21T15:38:55.781191Z,1697902735781
-0.2096523642539978,0.318203330039978,0.3473365008831024,2023-10-21T15:38:55.789273Z,1697902735789
-0.1992761790752411,0.3204648196697235,0.3730109333992004,2023-10-21T15:38:55.800228Z,1697902735800
-0.1825146228075027,0.3287125527858734,0.4018780589103699,2023-10-21T15:38:55.809372Z,1697902735809
-0.1568401902914047,0.3470704555511474,0.4315433204174042,2023-10-21T15:38:55.820526Z,1697902735820
-0.121188648045063,0.37819904088974,0.4585480391979217,2023-10-21T15:38:55.830876Z,1697902735830
-0.0756930187344551,0.4235616326332092,0.4796995222568512,2023-10-21T15:38:55.840501Z,1697902735840
-0.0227478146553039,0.4816949367523193,0.4924702048301697,2023-10-21T15:38:55.850069Z,1697902735849
0.0335230939090251,0.5480759739875793,0.4948647320270538,2023-10-21T15:38:55.864483Z,1697902735864
0.0871334373950958,0.615521252155304,0.4870160520076751,2023-10-21T15:38:55.870357Z,1697902735870
0.1318309009075164,0.6769802570343018,0.470254510641098,2023-10-21T15:38:55.881464Z,1697902735881
0.1618952602148056,0.7244713306427002,0.4479057788848877,2023-10-21T15:38:55.890528Z,1697902735890
0.173867791891098,0.7528063058853149,0.4235616326332092,2023-10-21T15:38:55.901605Z,1697902735901
0.168546661734581,0.7618522047996521,0.4014789760112762,2023-10-21T15:38:55.914227Z,1697902735914
0.1495236456394195,0.7534714341163635,0.3860476911067962,2023-10-21T15:38:55.921661Z,1697902735921
0.1223858967423439,0.7309896945953369,0.3803274929523468,2023-10-21T15:38:55.931056Z,1697902735931
0.0927206203341484,0.6986638307571411,0.3856486082077026,2023-10-21T15:38:55.941847Z,1697902735941
0.0658489316701889,0.6622141599655151,0.4020110666751861,2023-10-21T15:38:55.951378Z,1697902735951
0.046559851616621,0.6278928518295288,0.4284836649894714,2023-10-21T15:38:55.964701Z,1697902735964
0.0383121073246002,0.6010211706161499,0.4644012749195099,2023-10-21T15:38:55.971662Z,1697902735971
0.0429680943489074,0.5853238701820374,0.5084335803985596,2023-10-21T15:38:55.982647Z,1697902735982
0.0598626695573329,0.5812000036239624,0.5581861138343811,2023-10-21T15:38:55.991800Z,1697902735991
0.0876655504107475,0.588649570941925,0.611397385597229,2023-10-21T15:38:56.002982Z,1697902736002
0.1243813186883926,0.6066083908081055,0.6650077104568481,2023-10-21T15:38:56.014089Z,1697902736014
0.168280616402626,0.633613109588623,0.7155584096908569,2023-10-21T15:38:56.022909Z,1697902736022
0.2171019464731216,0.6678013205528259,0.7590586543083191,2023-10-21T15:38:56.032399Z,1697902736032
0.2695150375366211,0.708640992641449,0.7919166088104248,2023-10-21T15:38:56.043123Z,1697902736043
0.3241896033287048,0.7577283382415771,0.8102744817733765,2023-10-21T15:38:56.052739Z,1697902736052
0.3783320784568786,0.8136001825332642,0.810939610004425,2023-10-21T15:38:56.064567Z,1697902736064
0.4283506572246551,0.8717334866523743,0.7924486994743347,2023-10-21T15:38:56.072891Z,1697902736072
0.4715847969055176,0.9278713464736938,0.7555999159812927,2023-10-21T15:38:56.083970Z,1697902736083
0.5061721205711365,0.9800183773040771,0.7023886442184448,2023-10-21T15:38:56.093056Z,1697902736093
0.5301172137260437,1.0252479314804075,0.6357415318489075,2023-10-21T15:38:56.104280Z,1697902736104
0.5407594442367554,1.0578398704528809,0.559117317199707,2023-10-21T15:38:56.114162Z,1697902736114
0.5366355776786804,1.0728720426559448,0.4759747385978699,2023-10-21T15:38:56.124243Z,1697902736124
0.5192088484764099,1.0703445672988892,0.3905706405639648,2023-10-21T15:38:56.133721Z,1697902736133
0.4912729561328888,1.053183913230896,0.3064968585968017,2023-10-21T15:38:56.147917Z,1697902736147
0.455488383769989,1.0248489379882812,0.2268130034208297,2023-10-21T15:38:56.153955Z,1697902736153
0.4130524098873138,0.9866697788238524,0.1536475121974945,2023-10-21T15:38:56.165216Z,1697902736165
0.3642310798168182,0.9390457272529602,0.0883306935429573,2023-10-21T15:38:56.174284Z,1697902736174
0.3103546798229217,0.8834399580955505,0.0317937284708023,2023-10-21T15:38:56.185560Z,1697902736185
0.2546158730983734,0.8242424130439758,-0.0158303491771221,2023-10-21T15:38:56.197900Z,1697902736197
0.2008725106716156,0.765976071357727,-0.0552066825330257,2023-10-21T15:38:56.205399Z,1697902736205
0.1508539170026779,0.7099712491035461,-0.0880646333098411,2023-10-21T15:38:56.214758Z,1697902736214
0.1041610464453697,0.6562278866767883,-0.1175968870520591,2023-10-21T15:38:56.225704Z,1697902736225
0.0601287260651588,0.6054111123085022,-0.1469961106777191,2023-10-21T15:38:56.235108Z,1697902736235
0.017825772985816,0.5565897822380066,-0.1794549822807312,2023-10-21T15:38:56.247930Z,1697902736247
-0.0251423213630914,0.5053739547729492,-0.2163037806749344,2023-10-21T15:38:56.255264Z,1697902736255
-0.0717021748423576,0.4473736882209778,-0.2560791969299316,2023-10-21T15:38:56.266283Z,1697902736266
-0.1222528740763664,0.3823229074478149,-0.296120673418045,2023-10-21T15:38:56.275429Z,1697902736275
-0.1741338521242141,0.3140794634819031,-0.3340336978435516,2023-10-21T15:38:56.286716Z,1697902736286
-0.223487302660942,0.2471663057804107,-0.3686210215091705,2023-10-21T15:38:56.297241Z,1697902736297
-0.2687168717384338,0.183046743273735,-0.3998826146125793,2023-10-21T15:38:56.306689Z,1697902736306
-0.3096895515918731,0.121188648045063,-0.429547905921936,2023-10-21T15:38:56.316135Z,1697902736316
-0.3468043804168701,0.0619911178946495,-0.4606764912605285,2023-10-21T15:38:56.326814Z,1697902736326
-0.3799284100532532,0.0070504918694496,-0.496860146522522,2023-10-21T15:38:56.336418Z,1697902736336
-0.4102588295936584,-0.0432341508567333,-0.5406264066696167,2023-10-21T15:38:56.347630Z,1697902736347
-0.4389928877353668,-0.0912573114037513,-0.5921083092689514,2023-10-21T15:38:56.356587Z,1697902736356
-0.4657315611839294,-0.1391474455595016,-0.6485122442245483,2023-10-21T15:38:56.367686Z,1697902736367
-0.4882133305072784,-0.1854412406682968,-0.7046501040458679,2023-10-21T15:38:56.376886Z,1697902736376
-0.5035115480422974,-0.2256157398223877,-0.7548017501831055,2023-10-21T15:38:56.388092Z,1697902736388
-0.5090987086296082,-0.2563452422618866,-0.7937789559364319,2023-10-21T15:38:56.397692Z,1697902736397
-0.503644585609436,-0.2762994766235351,-0.8185222148895264,2023-10-21T15:38:56.407983Z,1697902736407
-0.4862178862094879,-0.2860105335712433,-0.8281002640724182,2023-10-21T15:38:56.417374Z,1697902736417
-0.4570847451686859,-0.2878729104995727,-0.822380006313324,2023-10-21T15:38:56.431120Z,1697902736431
-0.4169102311134338,-0.2834829986095428,-0.8022927641868591,2023-10-21T15:38:56.437697Z,1697902736437
-0.3671576976776123,-0.2735058665275574,-0.7699669599533081,2023-10-21T15:38:56.448654Z,1697902736448
-0.3090243935585022,-0.2570104002952575,-0.7269988656044006,2023-10-21T15:38:56.457851Z,1697902736457
-0.2445057481527328,-0.2341295480728149,-0.6757830381393433,2023-10-21T15:38:56.468961Z,1697902736468
-0.1759962439537048,-0.2073908895254135,-0.618713915348053,2023-10-21T15:38:56.480678Z,1697902736480
-0.106555551290512,-0.1802531480789184,-0.5588512420654297,2023-10-21T15:38:56.489094Z,1697902736489
-0.0384451374411582,-0.1536475121974945,-0.4989885985851288,2023-10-21T15:38:56.498508Z,1697902736498
0.0264726020395755,-0.1266427934169769,-0.441387414932251,2023-10-21T15:38:56.509280Z,1697902736509
0.0880646333098411,-0.0983078032732009,-0.3871119320392608,2023-10-21T15:38:56.518849Z,1697902736518
0.1465970277786255,-0.0691746398806572,-0.3361621499061584,2023-10-21T15:38:56.530838Z,1697902736530
0.2030009627342224,-0.0387111939489841,-0.2876068651676178,2023-10-21T15:38:56.539016Z,1697902736538
0.2592718601226806,-0.0050550699234008,-0.239982783794403,2023-10-21T15:38:56.550070Z,1697902736550
0.3159418702125549,0.0316606983542442,-0.1916935741901397,2023-10-21T15:38:56.559158Z,1697902736559
0.3728778958320617,0.0691746398806572,-0.1408768147230148,2023-10-21T15:38:56.570426Z,1697902736570
0.4300800263881683,0.1046931520104408,-0.0859361886978149,2023-10-21T15:38:56.580480Z,1697902736580
0.4884793758392334,0.1374180763959884,-0.0252753496170043,2023-10-21T15:38:56.590467Z,1697902736590
0.5503374934196472,0.1712072342634201,0.0425690077245235,2023-10-21T15:38:56.600050Z,1697902736599
0.6183148622512817,0.2112487107515335,0.1185280829668045,2023-10-21T15:38:56.610527Z,1697902736610
0.6944069266319275,0.2607351839542389,0.2027349025011062,2023-10-21T15:38:56.620125Z,1697902736620
0.7792789340019226,0.3203317821025848,0.2930610179901123,2023-10-21T15:38:56.631115Z,1697902736631
0.8712013959884644,0.3893733918666839,0.3847174048423767,2023-10-21T15:38:56.640277Z,1697902736640
0.9665825366973876,0.4665297269821167,0.4721169173717499,2023-10-21T15:38:56.651397Z,1697902736651
1.0594362020492554,0.5471447706222534,0.5490071773529053,2023-10-21T15:38:56.663648Z,1697902736663
1.142711877822876,0.6239020228385925,0.6104661822319031,2023-10-21T15:38:56.671390Z,1697902736671
1.2094919681549072,0.689617931842804,0.6540994048118591,2023-10-21T15:38:56.680833Z,1697902736680
1.2548545598983765,0.7388383746147156,0.6796408295631409,2023-10-21T15:38:56.691633Z,1697902736691
1.2774693965911863,0.7700999975204468,0.689617931842804,2023-10-21T15:38:56.701153Z,1697902736701
1.2793316841125488,0.7860633730888367,0.6877555251121521,2023-10-21T15:38:56.714178Z,1697902736714
1.2658958435058594,0.7925817370414734,0.6780444979667664,2023-10-21T15:38:56.721375Z,1697902736721
1.2436802387237549,0.7963064908981323,0.663677453994751,2023-10-21T15:38:56.732355Z,1697902736732
1.2185379266738892,0.8012285828590393,0.6453195810317993,2023-10-21T15:38:56.741563Z,1697902736741
1.1936615705490112,0.8080130219459534,0.6201772689819336,2023-10-21T15:38:56.752716Z,1697902736752
1.169849514961243,0.8138662576675415,0.5846587419509888,2023-10-21T15:38:56.763771Z,1697902736763
1.1467026472091677,0.8150634765625,0.5358374118804932,2023-10-21T15:38:56.772724Z,1697902736772
1.1231566667556765,0.8089441657066345,0.4737132489681244,2023-10-21T15:38:56.782226Z,1697902736782
1.098280429840088,0.7949762344360352,0.4008138179779053,2023-10-21T15:38:56.792918Z,1697902736792
1.0734041929244995,0.7756871581077576,0.3221941888332367,2023-10-21T15:38:56.802512Z,1697902736802
