ACC_X,ACC_Y,ACC_Z,DATE,UNIX_TIMESTAMP,norm
0.0971474647521972,0.115999698638916,-0.0380458831787109,2023-10-21T15:56:02.926759Z,1697903762926,0.1560161825547172
0.0720467567443847,0.0864224433898925,-0.0294277667999267,2023-10-21T15:56:02.947169Z,1697903762947,0.11629947264581462
0.0569677352905273,0.0683507919311523,-0.0240893363952636,2023-10-21T15:56:02.967215Z,1697903762967,0.0921816128613046
0.0518474578857421,0.0619525909423828,-0.0225105285644531,2023-10-21T15:56:02.988354Z,1697903762988,0.08386302111144739
0.0546331405639648,0.0647597312927246,-0.0241591930389404,2023-10-21T15:56:03.007901Z,1697903763007,0.08810374256114559
0.0609235763549804,0.0714178085327148,-0.0272490978240966,2023-10-21T15:56:03.028070Z,1697903763028,0.0977481399501997
0.0651702880859375,0.0753641128540039,-0.0293121337890625,2023-10-21T15:56:03.048464Z,1697903763048,0.10385623304714563
0.0626020431518554,0.0712599754333496,-0.0281958580017089,2023-10-21T15:56:03.071628Z,1697903763071,0.09895456691836353
0.0501761436462402,0.0560970306396484,-0.0225563049316406,2023-10-21T15:56:03.088962Z,1697903763088,0.0785704087424963
0.0268378257751464,0.0294017791748046,-0.0120167732238769,2023-10-21T15:56:03.109274Z,1697903763109,0.041582885297862276
-0.0066761970520019,-0.0071463584899902,0.0029716491699218,2023-10-21T15:56:03.129408Z,1697903763129,0.01022119100368009
-0.0477137565612793,-0.0497412681579589,0.0211014747619628,2023-10-21T15:56:03.149548Z,1697903763149,0.07208376072515052
-0.0926690101623535,-0.0937128067016601,0.0406568050384521,2023-10-21T15:56:03.171749Z,1697903763171,0.13792248322992082
-0.1373815536499023,-0.1342458724975586,0.0597178936004638,2023-10-21T15:56:03.190149Z,1697903763190,0.20115136684091425
-0.1779499053955078,-0.1673803329467773,0.0765180587768554,2023-10-21T15:56:03.210436Z,1697903763210,0.2560026523429445
-0.2105813026428222,-0.1899275779724121,0.0893948078155517,2023-10-21T15:56:03.230657Z,1697903763230,0.2973355033654642
-0.2316498756408691,-0.1995773315429687,0.0968670845031738,2023-10-21T15:56:03.250861Z,1697903763250,0.3207429004832176
-0.2379379272460937,-0.1950922012329101,0.0977287292480468,2023-10-21T15:56:03.271416Z,1697903763271,0.3228410270156315
-0.2262225151062011,-0.1758360862731933,0.0909163951873779,2023-10-21T15:56:03.291503Z,1697903763291,0.3006006428647762
-0.1941056251525879,-0.1424808502197265,0.0759749412536621,2023-10-21T15:56:03.311742Z,1697903763311,0.25248758007813077
-0.1415085792541504,-0.0977907180786132,0.0537025928497314,2023-10-21T15:56:03.332133Z,1697903763332,0.1801989762003186
-0.0702767372131347,-0.0456395149230957,0.0257742404937744,2023-10-21T15:56:03.354953Z,1697903763354,0.0876703860420974
0.017216682434082,0.0105032920837402,-0.0060937404632568,2023-10-21T15:56:03.372687Z,1697903763372,0.02106815064180813
0.1182575225830078,0.0677933692932128,-0.0404169559478759,2023-10-21T15:56:03.392996Z,1697903763392,0.1421770477105537
0.2302131652832031,0.1241798400878906,-0.0761210918426513,2023-10-21T15:56:03.413224Z,1697903763413,0.27242091472073654
0.3504514694213867,0.1781783103942871,-0.1124711036682128,2023-10-21T15:56:03.433250Z,1697903763433,0.40891746340174556
0.4754657745361328,0.2283487319946289,-0.1487398147583007,2023-10-21T15:56:03.454458Z,1697903763454,0.5480277170482649
0.6001977920532227,0.2730441093444824,-0.1840221881866455,2023-10-21T15:56:03.473850Z,1697903763473,0.684583552956311
0.7178964614868164,0.3104329109191894,-0.2171354293823242,2023-10-21T15:56:03.494119Z,1697903763494,0.8117214524023002
0.8226852416992188,0.3393795490264892,-0.2471473217010498,2023-10-21T15:56:03.514356Z,1697903763514,0.9236185813587379
0.9132318496704102,0.3604981899261474,-0.2742257118225097,2023-10-21T15:56:03.534496Z,1697903763534,1.0193876089187222
0.990680694580078,0.3750905990600586,-0.2989594936370849,2023-10-21T15:56:03.554863Z,1697903763554,1.1006897723485223
1.0558080673217771,0.3840208053588867,-0.3214936256408691,2023-10-21T15:56:03.575181Z,1697903763575,1.168572122420326
1.1089515686035156,0.3876988887786865,-0.3414793014526367,2023-10-21T15:56:03.595408Z,1697903763595,1.2233936910042518
1.1499919891357422,0.3862192630767822,-0.3582167625427246,2023-10-21T15:56:03.615642Z,1697903763615,1.2648976809270165
1.178813934326172,0.3796603679656982,-0.3710987567901611,2023-10-21T15:56:03.638108Z,1697903763638,1.2928490144083342
1.1948719024658203,0.3680298328399658,-0.3795483112335205,2023-10-21T15:56:03.656233Z,1697903763656,1.3066069576283141
1.198349952697754,0.3515186309814453,-0.3834147453308105,2023-10-21T15:56:03.676488Z,1697903763676,1.3063746874441762
1.1897830963134766,0.3303596973419189,-0.3828153610229492,2023-10-21T15:56:03.698004Z,1697903763697,1.2927756752570256
1.1711101531982422,0.3052046298980713,-0.3785600662231445,2023-10-21T15:56:03.716930Z,1697903763716,1.2680522784073616
1.143415451049805,0.2766084671020508,-0.371262788772583,2023-10-21T15:56:03.737752Z,1697903763737,1.233591178672728
1.1076183319091797,0.2450978755950927,-0.3614685535430908,2023-10-21T15:56:03.757550Z,1697903763757,1.190609446041411
1.064866065979004,0.2114191055297851,-0.349910020828247,2023-10-21T15:56:03.777868Z,1697903763777,1.1406466584059407
1.014307975769043,0.1762760877609253,-0.3370425701141357,2023-10-21T15:56:03.798109Z,1697903763798,1.0832781835217273
0.9530773162841796,0.1404578685760498,-0.3227434158325195,2023-10-21T15:56:03.821038Z,1697903763821,1.0159961102896131
0.8775997161865234,0.1049089431762695,-0.3062348365783691,2023-10-21T15:56:03.838574Z,1697903763838,0.935396666309651
0.784062385559082,0.0708219408988952,-0.2859914302825928,2023-10-21T15:56:03.858839Z,1697903763858,0.8375921859451462
0.6679182052612305,0.0397719144821167,-0.2590065002441406,2023-10-21T15:56:03.879134Z,1697903763879,0.7174823351621098
0.5270442962646484,0.0141360014677047,-0.2214360237121582,2023-10-21T15:56:03.899387Z,1697903763899,0.571847382926638
0.3638668060302734,-0.0032071769237518,-0.1688771247863769,2023-10-21T15:56:03.920989Z,1697903763920,0.4011593471310451
0.1902093887329101,-0.0092516839504241,-0.0993103981018066,2023-10-21T15:56:03.939975Z,1697903763939,0.21477374231782886
0.0281848907470703,-0.0026251673698425,-0.016824722290039,2023-10-21T15:56:03.960205Z,1697903763960,0.03292948299443691
-0.0925140380859375,0.0128681659698486,0.0640454292297363,2023-10-21T15:56:03.980474Z,1697903763980,0.11325305269004905
-0.1471114158630371,0.0263465642929077,0.1193575859069824,2023-10-21T15:56:04.000724Z,1697903764000,0.1912645901384008
-0.1446132659912109,0.0301141738891601,0.1380953788757324,2023-10-21T15:56:04.020908Z,1697903764020,0.2022132385292896
-0.1190710067749023,0.0264747142791748,0.134406566619873,2023-10-21T15:56:04.041219Z,1697903764041,0.18150465641711544
-0.0924057960510253,0.0200552940368652,0.1234326362609863,2023-10-21T15:56:04.061527Z,1697903764061,0.15548846149173176
-0.0572423934936523,0.0104682445526123,0.0901975631713867,2023-10-21T15:56:04.081773Z,1697903764081,0.1073400026036506
-0.0090603828430175,0.0009613037109375,0.0165920257568359,2023-10-21T15:56:04.104535Z,1697903764104,0.018929077124947586
0.0543818473815918,0.0010582283139228,-0.1130256652832031,2023-10-21T15:56:04.122306Z,1697903764122,0.12543247659402165
0.1257033348083496,0.0247750282287597,-0.290283203125,2023-10-21T15:56:04.142561Z,1697903764142,0.3173002811568025
0.2047462463378906,0.0874710083007812,-0.514470100402832,2023-10-21T15:56:04.162822Z,1697903764162,0.5605815613192353
0.291705846786499,0.2038922309875488,-0.7808370590209961,2023-10-21T15:56:04.183060Z,1697903764183,0.8581205367820228
0.3789317607879638,0.3758587837219238,-1.0612993240356443,2023-10-21T15:56:04.204863Z,1697903764204,1.1879458572819328
0.4663448333740234,0.6033554077148438,-1.3480167388916016,2023-10-21T15:56:04.223656Z,1697903764223,1.5487622089802358
0.5644147396087646,0.8897123336791992,-1.6469745635986328,2023-10-21T15:56:04.243926Z,1697903764243,1.9551668082620017
0.6829180717468262,1.2409300804138184,-1.967897891998291,2023-10-21T15:56:04.264172Z,1697903764264,2.4246456793778273
0.8140993118286133,1.641446590423584,-2.2863340377807617,2023-10-21T15:56:04.287160Z,1697903764287,2.929919441050882
0.941556453704834,2.0688729286193848,-2.582236289978028,2023-10-21T15:56:04.304632Z,1697903764304,3.4401610438418233
1.056870460510254,2.5154590606689453,-2.8463525772094727,2023-10-21T15:56:04.324978Z,1697903764324,3.942871092235664
1.1703083515167236,2.978269100189209,-3.0772767066955566,2023-10-21T15:56:04.345234Z,1697903764345,4.439520289439241
1.2871816158294678,3.4463601112365723,-3.266805648803711,2023-10-21T15:56:04.365469Z,1697903764365,4.919985129602299
1.4080166816711426,3.903116226196289,-3.401289463043213,2023-10-21T15:56:04.387215Z,1697903764387,5.365221082347843
1.5378727912902832,4.341785430908203,-3.475781917572021,2023-10-21T15:56:04.406009Z,1697903764405,5.770373765083016
1.6869611740112305,4.7639689445495605,-3.4929161071777344,2023-10-21T15:56:04.426278Z,1697903764426,6.143427466735133
1.8596434593200684,5.170574188232422,-3.4552712440490723,2023-10-21T15:56:04.446544Z,1697903764446,6.490917546985149
2.055375576019287,5.55845832824707,-3.364548683166504,2023-10-21T15:56:04.466738Z,1697903764466,6.814779203081585
2.2648110389709477,5.900030136108398,-3.213345527648926,2023-10-21T15:56:04.487067Z,1697903764487,7.089803532488986
2.4712114334106445,6.148575782775879,-2.9931015968322754,2023-10-21T15:56:04.507300Z,1697903764507,7.271212228653309
2.6690189838409424,6.292943954467773,-2.722450017929077,2023-10-21T15:56:04.527627Z,1697903764527,7.357753736725487
2.8688364028930664,6.336236000061035,-2.4271042346954346,2023-10-21T15:56:04.547871Z,1697903764547,7.366745816241416
3.0713415145874023,6.292460441589356,-2.1388189792633057,2023-10-21T15:56:04.570490Z,1697903764570,7.321389467461207
3.2525925636291504,6.156214714050293,-1.8673603534698489,2023-10-21T15:56:04.588362Z,1697903764588,7.208701178449279
3.3758115768432617,5.913747787475586,-1.6223435401916504,2023-10-21T15:56:04.608659Z,1697903764608,7.000036804090601
3.423830986022949,5.577029228210449,-1.4091622829437256,2023-10-21T15:56:04.628920Z,1697903764628,6.694147591204999
3.40958309173584,5.161771774291992,-1.233292818069458,2023-10-21T15:56:04.649141Z,1697903764649,6.307943871376008
3.3403306007385254,4.681260585784912,-1.0968751907348633,2023-10-21T15:56:04.670188Z,1697903764670,5.8544977904431
3.2278757095336914,4.16820764541626,-1.0004606246948242,2023-10-21T15:56:04.689701Z,1697903764689,5.366009507359165
3.1017627716064453,3.678267478942871,-0.9464068412780762,2023-10-21T15:56:04.709963Z,1697903764709,4.903699608172424
2.9766969680786133,3.232299327850342,-0.9233486652374268,2023-10-21T15:56:04.730280Z,1697903764730,4.490106517910896
2.8346824645996094,2.8243465423583984,-0.9146683216094972,2023-10-21T15:56:04.754054Z,1697903764754,4.104750443692806
2.664914131164551,2.444786071777344,-0.9023897647857666,2023-10-21T15:56:04.770747Z,1697903764770,3.7273386686518197
2.485487461090088,2.1035642623901367,-0.8863964080810547,2023-10-21T15:56:04.790991Z,1697903764790,3.3746598521184334
2.3296680450439453,1.8167505264282229,-0.8707058429718018,2023-10-21T15:56:04.811294Z,1697903764811,3.0799455093168997
2.2034120559692383,1.5745501518249512,-0.8578112125396729,2023-10-21T15:56:04.831494Z,1697903764831,2.840787381231011
2.080878257751465,1.358273983001709,-0.8414597511291504,2023-10-21T15:56:04.853649Z,1697903764853,2.623550466305619
1.9546899795532229,1.163745403289795,-0.8191876411437988,2023-10-21T15:56:04.872061Z,1697903764872,2.4178884736990347
1.833179473876953,0.9952096939086914,-0.7951867580413818,2023-10-21T15:56:04.892338Z,1697903764892,2.232333151314556
1.7204961776733398,0.8519883155822754,-0.7721455097198486,2023-10-21T15:56:04.912576Z,1697903764912,2.0693476932255295
1.614501953125,0.7307491302490234,-0.7504236698150635,2023-10-21T15:56:04.932816Z,1697903764932,1.9245120244422613
1.521286964416504,0.6313252449035645,-0.733302116394043,2023-10-21T15:56:04.953445Z,1697903764953,1.8029469173728077
1.4442415237426758,0.5513808727264404,-0.7224650382995605,2023-10-21T15:56:04.973401Z,1697903764973,1.7064027007937848
1.3837480545043943,0.4875953197479248,-0.7183623313903809,2023-10-21T15:56:04.993678Z,1697903764993,1.6335704188511129
1.3348884582519531,0.435910701751709,-0.7191414833068848,2023-10-21T15:56:05.013897Z,1697903765013,1.5776912907437786
1.2951478958129885,0.3937487602233886,-0.7235488891601562,2023-10-21T15:56:05.036807Z,1697903765036,1.534916660021372
1.2642326354980469,0.3593716621398926,-0.7308735847473145,2023-10-21T15:56:05.054387Z,1697903765054,1.5038644703193558
1.2405719757080078,0.33083176612854,-0.739616870880127,2023-10-21T15:56:05.074691Z,1697903765074,1.4817225111613541
1.2225360870361328,0.3065273761749267,-0.7479820251464844,2023-10-21T15:56:05.094980Z,1697903765094,1.4656161251816726
1.2063579559326172,0.284929871559143,-0.7530865669250488,2023-10-21T15:56:05.115198Z,1697903765115,1.4503875091959348
1.187490463256836,0.2647914886474609,-0.7518835067749023,2023-10-21T15:56:05.136627Z,1697903765136,1.4302366729133322
1.1631603240966797,0.2458223104476928,-0.7423853874206543,2023-10-21T15:56:05.155821Z,1697903765155,1.4016085799260254
1.1314220428466797,0.2281070947647094,-0.7229423522949219,2023-10-21T15:56:05.176032Z,1697903765175,1.3619083414323685
1.0866918563842771,0.2111126184463501,-0.690004825592041,2023-10-21T15:56:05.196321Z,1697903765196,1.304444091457922
1.0233879089355469,0.1941934823989868,-0.6410479545593262,2023-10-21T15:56:05.216486Z,1697903765216,1.2231011408736452
0.9370288848876952,0.1765365600585937,-0.5754914283752441,2023-10-21T15:56:05.236746Z,1697903765236,1.1137228884621964
0.8301839828491211,0.1580108404159546,-0.4973225593566894,2023-10-21T15:56:05.257082Z,1697903765257,0.9805623891998275
0.7086372375488281,0.1384695768356323,-0.412081241607666,2023-10-21T15:56:05.277328Z,1697903765277,0.8313552236167094
0.5785436630249023,0.1176042556762695,-0.3251786231994629,2023-10-21T15:56:05.297572Z,1697903765297,0.6740064302106764
0.4461603164672851,0.0952214002609252,-0.2414464950561523,2023-10-21T15:56:05.319803Z,1697903765319,0.516161363366864
0.3175764083862304,0.0715768337249755,-0.1648855209350586,2023-10-21T15:56:05.338103Z,1697903765338,0.3649181460322523
0.1988029479980468,0.0474178791046142,-0.0986981391906738,2023-10-21T15:56:05.358384Z,1697903765358,0.2269634113049844
0.0962181091308593,0.0242602825164794,-0.0455603599548339,2023-10-21T15:56:05.378652Z,1697903765378,0.10918897486335961
0.0186719894409179,0.0049529075622558,-0.008418321609497,2023-10-21T15:56:05.398867Z,1697903765398,0.02107231885016275
-0.0265693664550781,-0.0073568820953369,0.0113813877105712,2023-10-21T15:56:05.419960Z,1697903765419,0.029826011034116837
-0.0356721878051757,-0.0102016925811767,0.0144672393798828,2023-10-21T15:56:05.439478Z,1697903765439,0.03982311551854517
-0.012831687927246,-0.0037472248077392,0.0049023628234863,2023-10-21T15:56:05.459771Z,1697903765459,0.014238225664564648
0.034982681274414,0.0103194713592529,-0.0125231742858886,2023-10-21T15:56:05.480033Z,1697903765479,0.038563057094535676
0.1013698577880859,0.0299105644226074,-0.0338168144226074,2023-10-21T15:56:05.503116Z,1697903765503,0.11096876528892612
0.1833181381225586,0.0535871982574462,-0.0566577911376953,2023-10-21T15:56:05.520454Z,1697903765520,0.19921654770226047
0.2787389755249023,0.0799217224121093,-0.0793132781982421,2023-10-21T15:56:05.540785Z,1697903765540,0.30062184599350406
0.3829078674316406,0.1065788269042968,-0.0996544361114502,2023-10-21T15:56:05.561042Z,1697903765561,0.40976638212771194
0.4897651672363281,0.1308522224426269,-0.1158320903778076,2023-10-21T15:56:05.581305Z,1697903765581,0.5200089386899958
0.5930728912353516,0.1502091884613037,-0.1267173290252685,2023-10-21T15:56:05.603068Z,1697903765603,0.6247843916838518
0.6880674362182617,0.1628270149230957,-0.1321552991867065,2023-10-21T15:56:05.621797Z,1697903765621,0.7193152693192781
0.7718172073364258,0.1677813529968261,-0.1326344013214111,2023-10-21T15:56:05.642065Z,1697903765642,0.8009021590481162
0.8377523422241211,0.1638447046279907,-0.1281251907348632,2023-10-21T15:56:05.662366Z,1697903765662,0.8631860394129874
0.8775882720947266,0.1503416299819946,-0.118722915649414,2023-10-21T15:56:05.682531Z,1697903765682,0.8982532558939871
0.888941764831543,0.1285265684127807,-0.1058577299118042,2023-10-21T15:56:05.703639Z,1697903765703,0.9044016801354716
0.873748779296875,0.1008486747741699,-0.0914217233657836,2023-10-21T15:56:05.723121Z,1697903765723,0.8842880277543371
0.83770751953125,0.0703697800636291,-0.0771368741989135,2023-10-21T15:56:05.743464Z,1697903765743,0.8441894879626151
0.7819671630859375,0.0395151674747467,-0.0636777281761169,2023-10-21T15:56:05.763706Z,1697903765763,0.7855500911278019
0.7062559127807617,0.010726198554039,-0.0512976050376892,2023-10-21T15:56:05.786326Z,1697903765786,0.7081976489341166
0.6129608154296875,-0.0134035795927047,-0.040245234966278,2023-10-21T15:56:05.804142Z,1697903765804,0.6144268029111494
0.5082845687866211,-0.0307517647743225,-0.0308342576026916,2023-10-21T15:56:05.824561Z,1697903765824,0.5101466704245415
0.3994989395141601,-0.0401162505149841,-0.0232444405555725,2023-10-21T15:56:05.844831Z,1697903765844,0.40218033299138467
0.2941713333129883,-0.041444182395935,-0.0173673629760742,2023-10-21T15:56:05.865097Z,1697903765865,0.2975836334450393
0.1995973587036132,-0.0361281633377075,-0.0128459930419921,2023-10-21T15:56:05.886366Z,1697903765886,0.20324706473858317
0.1158628463745117,-0.0254960060119628,-0.0087164044380187,2023-10-21T15:56:05.905548Z,1697903765905,0.11895470229836588
0.0354681015014648,-0.0091300010681152,-0.0032883882522583,2023-10-21T15:56:05.925779Z,1697903765925,0.036771682595709225
-0.0527534484863281,0.0154206752777099,0.0062192678451538,2023-10-21T15:56:05.946076Z,1697903765946,0.05531186894103299
-0.1561441421508789,0.0504736900329589,0.0236936807632446,2023-10-21T15:56:05.966211Z,1697903765966,0.16580101634696828
-0.2769889831542969,0.0965926647186279,0.0540088415145874,2023-10-21T15:56:05.986514Z,1697903765986,0.29827838444655097
-0.4123106002807617,0.1514139175415039,0.1025166511535644,2023-10-21T15:56:06.006808Z,1697903766006,0.45103865609600363
-0.55615234375,0.2094597816467285,0.1745345592498779,2023-10-21T15:56:06.027087Z,1697903766027,0.619387715375969
-0.6951489448547363,0.2598354816436767,0.2718846797943115,2023-10-21T15:56:06.047336Z,1697903766047,0.7903592930816402
-0.8082785606384277,0.2871527671813965,0.3878288269042969,2023-10-21T15:56:06.069445Z,1697903766069,0.9413724779626951
-0.8769412040710449,0.2797055244445801,0.5071406364440918,2023-10-21T15:56:06.088Z,1697903766087,1.0509294367060569
-0.8984818458557129,0.2361845970153808,0.616797924041748,2023-10-21T15:56:06.108282Z,1697903766108,1.1151199353889325
-0.883995532989502,0.1616197824478149,0.7092370986938477,2023-10-21T15:56:06.128535Z,1697903766128,1.1448084200369681
-0.8193306922912598,0.0621967911720275,0.7551436424255371,2023-10-21T15:56:06.148770Z,1697903766148,1.115980799502518
