GYR_X,GYR_Y,GYR_Z,DATE,UNIX_TIMESTAMP
-0.001862394157797,-0.0037247883155941,-0.0025275349617004,2023-10-21T14:59:42.915420Z,1697900382915
0.019289081916213,-0.0989729464054107,0.2713774442672729,2023-10-21T14:59:42.924551Z,1697900382924
0.0135688716545701,-0.0979087203741073,0.2830839157104492,2023-10-21T14:59:42.935682Z,1697900382935
0.0105092236772179,-0.0876655504107475,0.2660562992095947,2023-10-21T14:59:42.946441Z,1697900382946
0.0093119703233242,-0.0554727390408515,0.2632627189159393,2023-10-21T14:59:42.955744Z,1697900382955
0.0083807734772562,-0.0279359128326177,0.2608681917190552,2023-10-21T14:59:42.965242Z,1697900382965
0.0061192950233817,0.0284680239856243,0.2507580518722534,2023-10-21T14:59:42.975991Z,1697900382975
0.0029266192577779,0.1090830862522125,0.2576755285263061,2023-10-21T14:59:42.986270Z,1697900382986
-0.00013302815204951912,0.1576383560895919,0.2531525790691376,2023-10-21T14:59:42.996604Z,1697900382996
-0.0019954221788793,0.1944871544837951,0.2526204586029053,2023-10-21T14:59:43.005674Z,1697900383005
-0.0023945067077875,0.193955048918724,0.2347946912050247,2023-10-21T14:59:43.016678Z,1697900383016
0.0022614786867052,0.1991431415081024,0.2375882863998413,2023-10-21T14:59:43.025816Z,1697900383025
0.0062523232772946,0.2035330682992935,0.2401158213615417,2023-10-21T14:59:43.036935Z,1697900383036
0.0053211259655654,0.173867791891098,0.2049963772296905,2023-10-21T14:59:43.046483Z,1697900383046
0.0045229573734104,0.1484594196081161,0.1750650554895401,2023-10-21T14:59:43.057002Z,1697900383056
0.0552066825330257,0.1447346359491348,0.1801201105117797,2023-10-21T14:59:43.066538Z,1697900383066
0.0985738635063171,0.1416749805212021,0.184510052204132,2023-10-21T14:59:43.080173Z,1697900383080
0.1233171001076698,0.1175968870520591,0.1539135724306106,2023-10-21T14:59:43.086785Z,1697900383086
0.1444685757160186,0.0971105545759201,0.1277070194482803,2023-10-21T14:59:43.097676Z,1697900383097
0.164422795176506,0.0728994309902191,0.0996380895376205,2023-10-21T14:59:43.106986Z,1697900383106
0.2023358196020126,0.0480231642723083,0.0694406926631927,2023-10-21T14:59:43.118045Z,1697900383118
0.2151065170764923,0.0343212634325027,0.0462937951087951,2023-10-21T14:59:43.129829Z,1697900383129
0.2264139205217361,0.0264726020395755,0.0251423213630914,2023-10-21T14:59:43.138124Z,1697900383138
0.2350607514381408,0.0242111235857009,0.0069174640811979,2023-10-21T14:59:43.147588Z,1697900383147
0.2395837008953094,0.0278028845787048,-0.0075826048851013,2023-10-21T14:59:43.158451Z,1697900383158
0.2232212424278259,0.0287340804934501,-0.0126376748085021,2023-10-21T14:59:43.167872Z,1697900383167
0.2246845513582229,0.0484222471714019,-0.0222157016396522,2023-10-21T14:59:43.180001Z,1697900383179
0.2422442585229873,0.0866013243794441,-0.0355185158550739,2023-10-21T14:59:43.188098Z,1697900383188
0.2386524975299835,0.1227849870920181,-0.0399084463715553,2023-10-21T14:59:43.199098Z,1697900383199
0.2333313822746276,0.1634915918111801,-0.0408396422863006,2023-10-21T14:59:43.208188Z,1697900383208
0.2244184911251068,0.2028679251670837,-0.0359176024794578,2023-10-21T14:59:43.219386Z,1697900383219
0.2112487107515335,0.2359919399023056,-0.0231468975543975,2023-10-21T14:59:43.229772Z,1697900383229
0.1887669414281845,0.2321341186761856,-0.0135688716545701,2023-10-21T14:59:43.239433Z,1697900383239
0.1705420911312103,0.2534186244010925,0.0168945752084255,2023-10-21T14:59:43.248953Z,1697900383248
0.154977798461914,0.2716434895992279,0.0429680943489074,2023-10-21T14:59:43.263586Z,1697900383263
0.1371520310640335,0.2834829986095428,0.0855370983481407,2023-10-21T14:59:43.269230Z,1697900383269
0.1218537837266922,0.2937261462211609,0.1218537837266922,2023-10-21T14:59:43.280226Z,1697900383280
0.1106794252991676,0.2977170050144195,0.1628264635801315,2023-10-21T14:59:43.289389Z,1697900383289
0.1011013984680175,0.3010427057743072,0.1976798325777053,2023-10-21T14:59:43.300528Z,1697900383300
0.1040280163288116,0.2994463741779327,0.2204276472330093,2023-10-21T14:59:43.312954Z,1697900383312
0.106422521173954,0.2979830503463745,0.2398497611284256,2023-10-21T14:59:43.320525Z,1697900383320
0.0909912586212158,0.2544828653335571,0.204863354563713,2023-10-21T14:59:43.329916Z,1697900383329
0.0776884406805038,0.2173680067062378,0.1749320179224014,2023-10-21T14:59:43.340761Z,1697900383340
0.0663810446858406,0.1857073009014129,0.1495236456394195,2023-10-21T14:59:43.350258Z,1697900383350
0.0566699914634227,0.1585695594549179,0.1277070194482803,2023-10-21T14:59:43.363491Z,1697900383363
0.1580374389886856,0.225216656923294,0.2109826505184173,2023-10-21T14:59:43.370451Z,1697900383370
0.2619324326515198,0.2829508781433105,0.3090243935585022,2023-10-21T14:59:43.381466Z,1697900383381
0.2610012292861938,0.2397167235612869,0.3187354505062103,2023-10-21T14:59:43.390684Z,1697900383390
0.2652581334114074,0.1943541318178177,0.3276483416557312,2023-10-21T14:59:43.401801Z,1697900383401
0.273638904094696,0.1452667415142059,0.3320382535457611,2023-10-21T14:59:43.413082Z,1697900383413
0.2849462926387787,0.091656394302845,0.329111635684967,2023-10-21T14:59:43.421878Z,1697900383421
0.2998454570770263,0.0367157682776451,0.3175382018089294,2023-10-21T14:59:43.431289Z,1697900383431
0.3191345334053039,-0.0146330967545509,0.2977170050144195,2023-10-21T14:59:43.442003Z,1697900383441
0.3421483933925628,-0.0605278089642524,0.2725746929645538,2023-10-21T14:59:43.451583Z,1697900383451
0.36662557721138,-0.1017665341496467,0.2454369366168975,2023-10-21T14:59:43.463415Z,1697900383463
0.3907036781311035,-0.1388813853263855,0.2188313156366348,2023-10-21T14:59:43.471809Z,1697900383471
0.4130524098873138,-0.1709411740303039,0.1946201920509338,2023-10-21T14:59:43.482607Z,1697900383482
0.4316763579845428,-0.1970146894454956,0.1732026487588882,2023-10-21T14:59:43.492058Z,1697900383492
0.4457773268222809,-0.2172349691390991,0.1551108211278915,2023-10-21T14:59:43.502854Z,1697900383502
0.4556214213371277,-0.2324001789093017,0.1399456113576889,2023-10-21T14:59:43.512483Z,1697900383512
0.4625388979911804,-0.2429094016551971,0.1279730796813964,2023-10-21T14:59:43.523087Z,1697900383523
0.4678600132465362,-0.2486296147108078,0.1195923089981079,2023-10-21T14:59:43.532626Z,1697900383532
0.4715847969055176,-0.2508910894393921,0.1157344952225685,2023-10-21T14:59:43.546837Z,1697900383546
0.4726490378379822,-0.251822292804718,0.117330826818943,2023-10-21T14:59:43.552853Z,1697900383552
0.4707866311073303,-0.2535516619682312,0.123982235789299,2023-10-21T14:59:43.564009Z,1697900383563
0.4675939679145813,-0.2551479935646057,0.1343584358692169,2023-10-21T14:59:43.573077Z,1697900383573
0.4642682373523712,-0.2551479935646057,0.1465970277786255,2023-10-21T14:59:43.584224Z,1697900383584
0.46001136302948,-0.2530195415019989,0.1601658910512924,2023-10-21T14:59:43.596197Z,1697900383596
0.4542911350727081,-0.2490286976099014,0.1743999123573303,2023-10-21T14:59:43.604262Z,1697900383604
0.4485709369182586,-0.2418451756238937,0.1881018131971359,2023-10-21T14:59:43.613668Z,1697900383613
0.4436488747596741,-0.2321341186761856,0.2008725106716156,2023-10-21T14:59:43.624494Z,1697900383624
0.4379286766052246,-0.2226891219615936,0.2136432081460952,2023-10-21T14:59:43.634025Z,1697900383633
0.4303460717201233,-0.2160377204418182,0.227611169219017,2023-10-21T14:59:43.646795Z,1697900383646
0.4216992557048797,-0.2133771628141403,0.2427763789892196,2023-10-21T14:59:43.654185Z,1697900383654
0.4134514927864074,-0.2149734944105148,0.2586067318916321,2023-10-21T14:59:43.665209Z,1697900383665
0.4066670536994934,-0.2218909561634063,0.274304062128067,2023-10-21T14:59:43.674303Z,1697900383674
0.4021441042423248,-0.2350607514381408,0.289070188999176,2023-10-21T14:59:43.685552Z,1697900383685
0.4009468555450439,-0.255014955997467,0.3021069467067718,2023-10-21T14:59:43.696252Z,1697900383696
0.4042725563049316,-0.2817536294460296,0.3128822147846222,2023-10-21T14:59:43.705632Z,1697900383705
0.411589115858078,-0.3151437044143677,0.3208639025688171,2023-10-21T14:59:43.714976Z,1697900383714
0.4216992557048797,-0.3542539775371551,0.325918972492218,2023-10-21T14:59:43.729617Z,1697900383729
0.4324745237827301,-0.3981532454490661,0.3275153040885925,2023-10-21T14:59:43.735288Z,1697900383735
0.4433828294277191,-0.4440479576587677,0.3235244750976562,2023-10-21T14:59:43.746578Z,1697900383746
0.4557544589042663,-0.4878142476081848,0.3104877173900604,2023-10-21T14:59:43.755486Z,1697900383755
0.4723829627037048,-0.5235987901687622,0.2832169234752655,2023-10-21T14:59:43.766614Z,1697900383766
0.4960619807243347,-0.5466126799583435,0.2367901057004928,2023-10-21T14:59:43.775577Z,1697900383775
0.5270575284957886,-0.5548604130744934,0.1688127219676971,2023-10-21T14:59:43.786868Z,1697900383786
0.5641723871231079,-0.5483420491218567,0.079417809844017,2023-10-21T14:59:43.796034Z,1697900383795
0.6059432029724121,-0.5283878445625305,-0.0296652782708406,2023-10-21T14:59:43.806878Z,1697900383806
0.6517049074172974,-0.4957959353923797,-0.1547117382287979,2023-10-21T14:59:43.816344Z,1697900383816
0.7003931999206543,-0.452029675245285,-0.2894692718982696,2023-10-21T14:59:43.829991Z,1697900383829
0.7488154768943787,-0.400015652179718,-0.4255570471286773,2023-10-21T14:59:43.836593Z,1697900383836
0.7941780686378479,-0.3428135514259338,-0.5545943379402161,2023-10-21T14:59:43.847597Z,1697900383847
0.8342195153236389,-0.2833499610424042,-0.6701958179473877,2023-10-21T14:59:43.856764Z,1697900383856
0.867343544960022,-0.2241524308919906,-0.7679715156555176,2023-10-21T14:59:43.867923Z,1697900383867
0.8918207287788391,-0.1674824506044387,-0.8451278209686279,2023-10-21T14:59:43.879244Z,1697900383879
0.9067198634147644,-0.1153354048728942,-0.9016647934913636,2023-10-21T14:59:43.887920Z,1697900383887
0.9133712649345398,-0.067445270717144,-0.940509021282196,2023-10-21T14:59:43.897317Z,1697900383897
0.9135043025016784,-0.0224817581474781,-0.9667155742645264,2023-10-21T14:59:43.908073Z,1697900383908
0.9092473983764648,0.0211514756083488,-0.9846743941307068,2023-10-21T14:59:43.917668Z,1697900383917
0.9015318155288696,0.0643856227397918,-0.9974451065063475,2023-10-21T14:59:43.929691Z,1697900383929
0.8907564878463745,0.1073537170886993,-1.0067570209503174,2023-10-21T14:59:43.937793Z,1697900383937
0.8765224814414978,0.1493906080722808,-1.0128763914108276,2023-10-21T14:59:43.948865Z,1697900383948
0.8589627742767334,0.1899642050266266,-1.015802979469299,2023-10-21T14:59:43.957993Z,1697900383957
0.8394076228141785,0.2294735610485077,-1.016202092170715,2023-10-21T14:59:43.969185Z,1697900383969
0.818256139755249,0.2679187059402466,-1.013275384902954,2023-10-21T14:59:43.979129Z,1697900383979
0.7949762344360352,0.3035702407360077,-1.0056928396224976,2023-10-21T14:59:43.989168Z,1697900383989
0.7690357565879822,0.3349649012088775,-0.9921239614486694,2023-10-21T14:59:43.998702Z,1697900383998
0.740966796875,0.3621026277542114,-0.9728348851203918,2023-10-21T14:59:44.013263Z,1697900384013
0.7106363773345947,0.3848504424095154,-0.9475595355033876,2023-10-21T14:59:44.018904Z,1697900384018
0.6756500005722046,0.400281697511673,-0.9144355058670044,2023-10-21T14:59:44.029873Z,1697900384029
0.6350764036178589,0.4069331288337707,-0.8731967806816101,2023-10-21T14:59:44.039085Z,1697900384039
0.5915762186050415,0.4075982570648193,-0.8277011513710022,2023-10-21T14:59:44.050234Z,1697900384050
0.5487411022186279,0.4068000912666321,-0.7831367254257202,2023-10-21T14:59:44.062511Z,1697900384062
0.507768452167511,0.4057358503341675,-0.7407007217407227,2023-10-21T14:59:44.070264Z,1697900384070
0.4667957723140716,0.4025431871414184,-0.6993290185928345,2023-10-21T14:59:44.079695Z,1697900384079
0.4250249564647674,0.3962908685207367,-0.6579572558403015,2023-10-21T14:59:44.090495Z,1697900384090
0.384983479976654,0.3896394670009613,-0.619113028049469,2023-10-21T14:59:44.100004Z,1697900384099
0.3489328324794769,0.3855155706405639,-0.58505779504776,2023-10-21T14:59:44.112830Z,1697900384112
0.3172721564769745,0.3840522766113281,-0.555924654006958,2023-10-21T14:59:44.120198Z,1697900384120
0.2873408198356628,0.3824559450149536,-0.5290529727935791,2023-10-21T14:59:44.131250Z,1697900384131
0.2568773627281189,0.3777999579906463,-0.5016491413116455,2023-10-21T14:59:44.140383Z,1697900384140
0.2254827171564102,0.3699512779712677,-0.4731811285018921,2023-10-21T14:59:44.151539Z,1697900384151
0.1940880715847015,0.3606393337249756,-0.4439149498939514,2023-10-21T14:59:44.162419Z,1697900384162
0.1628264635801315,0.3501301109790802,-0.4137175381183624,2023-10-21T14:59:44.171627Z,1697900384171
0.1308996975421905,0.337492436170578,-0.3817907869815826,2023-10-21T14:59:44.181027Z,1697900384180
0.0985738635063171,0.3229923546314239,-0.348666787147522,2023-10-21T14:59:44.191767Z,1697900384191
0.0662480220198631,0.3080931901931762,-0.3151437044143677,2023-10-21T14:59:44.201339Z,1697900384201
0.0333900675177574,0.2935931384563446,-0.2821527123451233,2023-10-21T14:59:44.212866Z,1697900384212
-0.0003990844707004726,0.2805563807487488,-0.2502259612083435,2023-10-21T14:59:44.221618Z,1697900384221
-0.0347203463315963,0.2712444067001343,-0.2212258130311966,2023-10-21T14:59:44.232584Z,1697900384232
-0.0690416097640991,0.2679187059402466,-0.1963495463132858,2023-10-21T14:59:44.241635Z,1697900384241
-0.1037619560956955,0.2712444067001343,-0.1742668747901916,2023-10-21T14:59:44.252928Z,1697900384252
-0.1407437920570373,0.2792260944843292,-0.1516520977020263,2023-10-21T14:59:44.262154Z,1697900384262
-0.1822485625743866,0.2889371514320373,-0.1249134317040443,2023-10-21T14:59:44.272881Z,1697900384272
-0.2286753952503204,0.2986482083797455,-0.0927206203341484,2023-10-21T14:59:44.282412Z,1697900384282
-0.2790930569171905,0.3082262277603149,-0.0556057691574096,2023-10-21T14:59:44.296118Z,1697900384296
-0.3327034115791321,0.3194005787372589,-0.0155642936006188,2023-10-21T14:59:44.302605Z,1697900384302
-0.3873779773712158,0.3352309465408325,0.0239450670778751,2023-10-21T14:59:44.313597Z,1697900384313
-0.440456211566925,0.3594420552253723,0.0582663305103778,2023-10-21T14:59:44.322809Z,1697900384322
