GYR_X,GYR_Y,GYR_Z,DATE,UNIX_TIMESTAMP
0.0022614786867052317,0.004389929119497538,-9.311970788985491E-4,2023-10-21T14:54:48.755994Z,1697900088755
-0.0029266192577779293,0.0015963378828018904,-0.004389929119497538,2023-10-21T14:54:48.762401Z,1697900088762
0.004389929119497538,-0.0023945067077875137,-9.311970788985491E-4,2023-10-21T14:54:48.775695Z,1697900088775
-0.004256900865584612,0.0018623941577970982,0.003325703786686063,2023-10-21T14:54:48.780710Z,1697900088780
-5.321126081980765E-4,0.004389929119497538,0.0018623941577970982,2023-10-21T14:54:48.791416Z,1697900088791
-0.003325703786686063,-0.0029266192577779293,0.0026605629827827215,2023-10-21T14:54:48.806031Z,1697900088806
3.990844707004726E-4,0.0031926757656037807,0.0018623941577970982,2023-10-21T14:54:48.811684Z,1697900088811
0.0027935912366956472,0.004123872611671686,-0.0035917600616812706,2023-10-21T14:54:48.822601Z,1697900088822
0.0023945067077875137,-0.0034587320405989885,0.004389929119497538,2023-10-21T14:54:48.831878Z,1697900088831
0.0015963378828018904,0.0027935912366956472,-0.0038578163366764784,2023-10-21T14:54:48.841457Z,1697900088841
-0.0039908443577587605,9.311970788985491E-4,-0.0019954221788793802,2023-10-21T14:54:48.853085Z,1697900088853
-0.0047890134155750275,0.003325703786686063,-0.0022614786867052317,2023-10-21T14:54:48.861703Z,1697900088861
-6.651407456956804E-4,-0.0011972533538937569,-0.004522957373410463,2023-10-21T14:54:48.873114Z,1697900088873
-0.002128450432792306,-0.0022614786867052317,0.0,2023-10-21T14:54:48.881811Z,1697900088881
0.0022614786867052317,-0.004123872611671686,0.003325703786686063,2023-10-21T14:54:48.892681Z,1697900088892
0.004655985161662102,-0.0023945067077875137,-0.003325703786686063,2023-10-21T14:54:48.902591Z,1697900088902
-0.0031926757656037807,0.0031926757656037807,-0.0014633096288889647,2023-10-21T14:54:48.912913Z,1697900088912
0.0034587320405989885,0.0019954221788793802,0.004123872611671686,2023-10-21T14:54:48.922513Z,1697900088922
-6.651407456956804E-4,-0.0035917600616812706,0.0026605629827827215,2023-10-21T14:54:48.936250Z,1697900088936
0.0039908443577587605,-0.0035917600616812706,7.981689414009452E-4,2023-10-21T14:54:48.942741Z,1697900088942
0.0013302814913913608,-0.0034587320405989885,0.004123872611671686,2023-10-21T14:54:48.953515Z,1697900088953
0.0038578163366764784,-0.0029266192577779293,0.001064225216396153,2023-10-21T14:54:48.962957Z,1697900088962
-0.0031926757656037807,-0.0039908443577587605,0.0039908443577587605,2023-10-21T14:54:48.973793Z,1697900088973
-0.0037247883155941963,0.001064225216396153,0.0018623941577970982,2023-10-21T14:54:48.985759Z,1697900088985
-0.0026605629827827215,-6.651407456956804E-4,-0.004256900865584612,2023-10-21T14:54:48.994074Z,1697900088994
-0.0038578163366764784,-0.004256900865584612,1.3302815204951912E-4,2023-10-21T14:54:49.003683Z,1697900089003
0.004123872611671686,0.004522957373410463,-0.002128450432792306,2023-10-21T14:54:49.014307Z,1697900089014
-0.0013302814913913608,-0.0027935912366956472,0.0017293660202994943,2023-10-21T14:54:49.023829Z,1697900089023
0.0031926757656037807,-0.0047890134155750275,-0.004123872611671686,2023-10-21T14:54:49.036122Z,1697900089036
-0.0019954221788793802,-0.004256900865584612,0.0014633096288889647,2023-10-21T14:54:49.044132Z,1697900089044
-0.0023945067077875137,-0.004922041669487953,0.004389929119497538,2023-10-21T14:54:49.054939Z,1697900089054
0.0017293660202994943,0.0034587320405989885,-0.0014633096288889647,2023-10-21T14:54:49.064208Z,1697900089064
0.0027935912366956472,0.004922041669487953,0.004389929119497538,2023-10-21T14:54:49.075067Z,1697900089075
0.0017293660202994943,0.001064225216396153,9.311970788985491E-4,2023-10-21T14:54:49.085375Z,1697900089085
-0.0014633096288889647,-0.0026605629827827215,-0.004123872611671686,2023-10-21T14:54:49.095425Z,1697900089095
-0.0039908443577587605,0.0026605629827827215,0.0015963378828018904,2023-10-21T14:54:49.104879Z,1697900089104
-0.0034587320405989885,0.004922041669487953,0.0026605629827827215,2023-10-21T14:54:49.118589Z,1697900089118
-0.001064225216396153,-0.0035917600616812706,-0.004123872611671686,2023-10-21T14:54:49.125152Z,1697900089125
-5.321126081980765E-4,0.0019954221788793802,-3.990844707004726E-4,2023-10-21T14:54:49.135974Z,1697900089135
6.651407456956804E-4,-0.002128450432792306,-0.0039908443577587605,2023-10-21T14:54:49.145308Z,1697900089145
0.0022614786867052317,-0.0039908443577587605,-9.311970788985491E-4,2023-10-21T14:54:49.156205Z,1697900089156
0.0029266192577779293,-0.003059647511690855,0.004522957373410463,2023-10-21T14:54:49.168348Z,1697900089168
-0.004389929119497538,0.004655985161662102,0.0039908443577587605,2023-10-21T14:54:49.176402Z,1697900089176
-0.0015963378828018904,0.0039908443577587605,-3.990844707004726E-4,2023-10-21T14:54:49.185854Z,1697900089185
-0.0019954221788793802,0.004389929119497538,-0.0019954221788793802,2023-10-21T14:54:49.196663Z,1697900089196
0.004922041669487953,-0.0025275349617004395,1.3302815204951912E-4,2023-10-21T14:54:49.206187Z,1697900089206
-0.0047890134155750275,-9.311970788985491E-4,0.0015963378828018904,2023-10-21T14:54:49.218537Z,1697900089218
-0.004922041669487953,-7.981689414009452E-4,0.0035917600616812706,2023-10-21T14:54:49.226436Z,1697900089226
0.004922041669487953,0.0047890134155750275,0.004922041669487953,2023-10-21T14:54:49.237234Z,1697900089237
-1.3302815204951912E-4,0.003325703786686063,2.6605630409903824E-4,2023-10-21T14:54:49.246601Z,1697900089246
-0.0017293660202994943,-0.004522957373410463,0.0023945067077875137,2023-10-21T14:54:49.257530Z,1697900089257
-0.0013302814913913608,9.311970788985491E-4,0.0019954221788793802,2023-10-21T14:54:49.272201Z,1697900089272
0.0025275349617004395,-3.990844707004726E-4,-0.0039908443577587605,2023-10-21T14:54:49.277756Z,1697900089277
-5.321126081980765E-4,-0.0031926757656037807,2.6605630409903824E-4,2023-10-21T14:54:49.289032Z,1697900089288
0.002128450432792306,-0.0022614786867052317,-0.0034587320405989885,2023-10-21T14:54:49.297999Z,1697900089297
-0.004522957373410463,0.0023945067077875137,-0.0027935912366956472,2023-10-21T14:54:49.307570Z,1697900089307
0.004389929119497538,0.0025275349617004395,0.0017293660202994943,2023-10-21T14:54:49.318964Z,1697900089318
0.0035917600616812706,0.0015963378828018904,0.0027935912366956472,2023-10-21T14:54:49.327880Z,1697900089327
-5.321126081980765E-4,0.0015963378828018904,-0.0027935912366956472,2023-10-21T14:54:49.339629Z,1697900089339
-0.0023945067077875137,-0.0011972533538937569,0.004389929119497538,2023-10-21T14:54:49.347945Z,1697900089347
0.004655985161662102,0.004123872611671686,-9.311970788985491E-4,2023-10-21T14:54:49.359050Z,1697900089358
0.003059647511690855,0.0026605629827827215,0.0038578163366764784,2023-10-21T14:54:49.368962Z,1697900089368
0.0027935912366956472,0.004123872611671686,-0.003059647511690855,2023-10-21T14:54:49.379053Z,1697900089379
7.981689414009452E-4,0.0029266192577779293,-0.0047890134155750275,2023-10-21T14:54:49.388788Z,1697900089388
-0.0034587320405989885,-0.004123872611671686,-0.0038578163366764784,2023-10-21T14:54:49.405547Z,1697900089405
-0.0023945067077875137,0.0027935912366956472,-0.0018623941577970982,2023-10-21T14:54:49.408850Z,1697900089408
-0.0039908443577587605,0.0047890134155750275,0.0039908443577587605,2023-10-21T14:54:49.420177Z,1697900089420
-0.0015963378828018904,-0.0026605629827827215,0.004256900865584612,2023-10-21T14:54:49.429125Z,1697900089429
0.004123872611671686,-0.0018623941577970982,0.004522957373410463,2023-10-21T14:54:49.440212Z,1697900089440
-0.001064225216396153,-0.0022614786867052317,0.004922041669487953,2023-10-21T14:54:49.452587Z,1697900089452
0.003325703786686063,-1.3302815204951912E-4,0.0026605629827827215,2023-10-21T14:54:49.460355Z,1697900089460
-0.0026605629827827215,0.004922041669487953,-9.311970788985491E-4,2023-10-21T14:54:49.469647Z,1697900089469
0.0027935912366956472,7.981689414009452E-4,-0.0011972533538937569,2023-10-21T14:54:49.480547Z,1697900089480
-0.0015963378828018904,2.6605630409903824E-4,-0.003059647511690855,2023-10-21T14:54:49.489992Z,1697900089489
-0.0011972533538937569,0.0011972533538937569,-0.0022614786867052317,2023-10-21T14:54:49.502534Z,1697900089502
0.004123872611671686,0.0023945067077875137,-0.004922041669487953,2023-10-21T14:54:49.510074Z,1697900089510
0.0031926757656037807,0.0011972533538937569,-0.004655985161662102,2023-10-21T14:54:49.521258Z,1697900089521
-0.003059647511690855,-0.004123872611671686,-0.005055069923400879,2023-10-21T14:54:49.530289Z,1697900089530
0.0034587320405989885,-0.004389929119497538,-0.0026605629827827215,2023-10-21T14:54:49.541531Z,1697900089541
0.003059647511690855,-0.0027935912366956472,0.0026605629827827215,2023-10-21T14:54:49.552553Z,1697900089552
0.0031926757656037807,-0.004256900865584612,-0.003059647511690855,2023-10-21T14:54:49.561475Z,1697900089561
0.0017293660202994943,-2.6605630409903824E-4,5.321126081980765E-4,2023-10-21T14:54:49.571098Z,1697900089570
-0.0025275349617004395,-0.0011972533538937569,9.311970788985491E-4,2023-10-21T14:54:49.586401Z,1697900089586
0.004389929119497538,-7.981689414009452E-4,0.0029266192577779293,2023-10-21T14:54:49.591303Z,1697900089591
-0.0039908443577587605,0.0035917600616812706,0.0015963378828018904,2023-10-21T14:54:49.602240Z,1697900089602
0.001064225216396153,0.0025275349617004395,-2.6605630409903824E-4,2023-10-21T14:54:49.611551Z,1697900089611
0.0013302814913913608,-0.003059647511690855,-0.0027935912366956472,2023-10-21T14:54:49.622594Z,1697900089622
-0.004922041669487953,-0.001064225216396153,-0.0022614786867052317,2023-10-21T14:54:49.631630Z,1697900089631
5.321126081980765E-4,-0.004123872611671686,0.0013302814913913608,2023-10-21T14:54:49.642941Z,1697900089642
7.981689414009452E-4,-0.0037247883155941963,-0.0039908443577587605,2023-10-21T14:54:49.652287Z,1697900089652
-0.004256900865584612,0.0011972533538937569,-0.0022614786867052317,2023-10-21T14:54:49.662916Z,1697900089662
0.0035917600616812706,9.311970788985491E-4,-0.0015963378828018904,2023-10-21T14:54:49.672430Z,1697900089672
-9.311970788985491E-4,0.0026605629827827215,-0.0035917600616812706,2023-10-21T14:54:49.686233Z,1697900089686
0.0038578163366764784,-9.311970788985491E-4,-9.311970788985491E-4,2023-10-21T14:54:49.692594Z,1697900089692
-0.003059647511690855,-1.3302815204951912E-4,-0.0011972533538937569,2023-10-21T14:54:49.703606Z,1697900089703
3.990844707004726E-4,0.0047890134155750275,-0.0037247883155941963,2023-10-21T14:54:49.712767Z,1697900089712
0.0018623941577970982,0.0037247883155941963,-6.651407456956804E-4,2023-10-21T14:54:49.723965Z,1697900089723
5.321126081980765E-4,0.0039908443577587605,6.651407456956804E-4,2023-10-21T14:54:49.735904Z,1697900089735
0.004522957373410463,-0.004123872611671686,0.004922041669487953,2023-10-21T14:54:49.743928Z,1697900089743
6.651407456956804E-4,0.0038578163366764784,-0.0018623941577970982,2023-10-21T14:54:49.753385Z,1697900089753
-0.0026605629827827215,7.981689414009452E-4,0.0034587320405989885,2023-10-21T14:54:49.764096Z,1697900089764
-2.6605630409903824E-4,9.311970788985491E-4,0.0023945067077875137,2023-10-21T14:54:49.773688Z,1697900089773
-0.0014633096288889647,-0.002128450432792306,-0.0034587320405989885,2023-10-21T14:54:49.785428Z,1697900089785
7.981689414009452E-4,0.0,-0.0029266192577779293,2023-10-21T14:54:49.793870Z,1697900089793
-0.0015963378828018904,0.0017293660202994943,-0.004922041669487953,2023-10-21T14:54:49.805251Z,1697900089805
-1.3302815204951912E-4,0.0019954221788793802,-0.004123872611671686,2023-10-21T14:54:49.813979Z,1697900089813
0.0014633096288889647,-0.004922041669487953,0.004389929119497538,2023-10-21T14:54:49.825215Z,1697900089825
0.0014633096288889647,-0.004922041669487953,0.0034587320405989885,2023-10-21T14:54:49.835469Z,1697900089835
0.0038578163366764784,0.004389929119497538,-0.0039908443577587605,2023-10-21T14:54:49.845187Z,1697900089845
-0.004256900865584612,-0.004389929119497538,0.004389929119497538,2023-10-21T14:54:49.854632Z,1697900089854
0.002128450432792306,0.004389929119497538,0.0,2023-10-21T14:54:49.869659Z,1697900089869
-0.0013302814913913608,-0.004389929119497538,-0.004389929119497538,2023-10-21T14:54:49.874948Z,1697900089874
0.0011972533538937569,0.0019954221788793802,-0.001064225216396153,2023-10-21T14:54:49.885960Z,1697900089885
5.321126081980765E-4,-0.004256900865584612,-0.0014633096288889647,2023-10-21T14:54:49.895113Z,1697900089895
0.0029266192577779293,0.004389929119497538,3.990844707004726E-4,2023-10-21T14:54:49.906271Z,1697900089906
-0.0035917600616812706,0.0035917600616812706,0.0013302814913913608,2023-10-21T14:54:49.918556Z,1697900089918
-0.0013302814913913608,0.004522957373410463,-0.0037247883155941963,2023-10-21T14:54:49.926296Z,1697900089926
-0.0026605629827827215,0.0018623941577970982,-0.0017293660202994943,2023-10-21T14:54:49.935772Z,1697900089935
0.004522957373410463,-0.0017293660202994943,0.004123872611671686,2023-10-21T14:54:49.946614Z,1697900089946
0.04403231665492058,-0.04842224717140198,0.1009683683514595,2023-10-21T14:54:49.955994Z,1697900089955
0.04616076871752739,-0.05188097804784775,0.10336287319660187,2023-10-21T14:54:49.969377Z,1697900089969
0.039376333355903625,-0.04429837316274643,0.08819766342639923,2023-10-21T14:54:49.976239Z,1697900089976
0.04935344308614731,-0.06212414801120758,0.08527104556560516,2023-10-21T14:54:49.987223Z,1697900089987
0.057867247611284256,-0.07742238789796829,0.08274351060390472,2023-10-21T14:54:49.996410Z,1697900089996
0.04935344308614731,-0.06611499190330505,0.07063794881105423,2023-10-21T14:54:50.007602Z,1697900090007
0.05108281224966049,-0.09351879358291626,0.04522957280278206,2023-10-21T14:54:50.019259Z,1697900090019
0.05241309106349945,-0.11679871380329132,0.02354598231613636,2023-10-21T14:54:50.027608Z,1697900090027
0.04483048617839813,-0.09977111220359802,0.02008725143969059,2023-10-21T14:54:50.037009Z,1697900090036
0.03831210732460022,-0.08527104556560516,0.017160631716251373,2023-10-21T14:54:50.047903Z,1697900090047
0.035651545971632004,-0.12877124547958374,-0.02953225001692772,2023-10-21T14:54:50.057350Z,1697900090057
0.03352309390902519,-0.16601912677288055,-0.06930766999721527,2023-10-21T14:54:50.069346Z,1697900090069
0.02860105223953724,-0.14180800318717957,-0.059197526425123215,2023-10-21T14:54:50.077466Z,1697900090077
0.025674432516098022,-0.16894575953483582,-0.08407378941774368,2023-10-21T14:54:50.088619Z,1697900090088
0.023146897554397583,-0.1920926570892334,-0.10522526502609253,2023-10-21T14:54:50.097695Z,1697900090097
0.01982119493186474,-0.1641567349433899,-0.08992703258991241,2023-10-21T14:54:50.108933Z,1697900090108
0.022215701639652252,-0.1859733611345291,-0.09910597652196884,2023-10-21T14:54:50.118908Z,1697900090118
0.02421112358570099,-0.2047303318977356,-0.10708766430616379,2023-10-21T14:54:50.128853Z,1697900090128
0.020619364455342293,-0.17479899525642395,-0.09139034152030945,2023-10-21T14:54:50.138332Z,1697900090138
0.023679010570049286,-0.18983116745948792,-0.08473893254995346,2023-10-21T14:54:50.152424Z,1697900090152
0.026206545531749725,-0.20260187983512878,-0.07888569682836533,2023-10-21T14:54:50.158614Z,1697900090158
0.02447718009352684,-0.1959504634141922,-0.06411956995725632,2023-10-21T14:54:50.169832Z,1697900090169
0.023146897554397583,-0.19023025035858154,-0.05148189514875412,2023-10-21T14:54:50.178785Z,1697900090178
0.01915605366230011,-0.18304674327373505,-0.035917602479457855,2023-10-21T14:54:50.189946Z,1697900090189
0.015830349177122116,-0.17692744731903076,-0.022481758147478104,2023-10-21T14:54:50.202219Z,1697900090202
0.009311970323324203,-0.17080815136432648,-0.008380773477256298,2023-10-21T14:54:50.210022Z,1697900090210
0.0037247883155941963,-0.16562004387378693,0.0037247883155941963,2023-10-21T14:54:50.219380Z,1697900090219
-0.004123872611671686,-0.16109709441661835,0.014899153262376785,2023-10-21T14:54:50.230229Z,1697900090230
-0.010775280185043812,-0.15723927319049835,0.02447718009352684,2023-10-21T14:54:50.239736Z,1697900090239
-0.018091829493641853,-0.15338145196437836,0.03166069835424423,2023-10-21T14:54:50.252544Z,1697900090252
-0.024344151839613914,-0.15005575120449066,0.03777999430894852,2023-10-21T14:54:50.259857Z,1697900090259
-0.02979830652475357,-0.1497897058725357,0.04070661589503288,2023-10-21T14:54:50.270979Z,1697900090270
-0.0345873199403286,-0.14952364563941956,0.0433671772480011,2023-10-21T14:54:50.280048Z,1697900090280
-0.038445137441158295,-0.15231724083423615,0.043766263872385025,2023-10-21T14:54:50.291466Z,1697900090291
-0.04177083820104599,-0.1547117382287979,0.04403231665492058,2023-10-21T14:54:50.302102Z,1697900090302
-0.044431403279304504,-0.15843652188777924,0.04243598133325577,2023-10-21T14:54:50.311331Z,1697900090311
-0.04669288173317909,-0.16149617731571198,0.040972672402858734,2023-10-21T14:54:50.320708Z,1697900090320
-0.04948647320270538,-0.16655124723911285,0.03618365898728371,2023-10-21T14:54:50.335769Z,1697900090335
-0.05174795165657997,-0.17094117403030396,0.032192811369895935,2023-10-21T14:54:50.340998Z,1697900090340
-0.05454154312610626,-0.17599624395370483,0.02288084290921688,2023-10-21T14:54:50.352114Z,1697900090352
-0.05680302157998085,-0.18025314807891846,0.014899153262376785,2023-10-21T14:54:50.361143Z,1697900090361
-0.0609268918633461,-0.18863391876220703,0.0014633096288889647,2023-10-21T14:54:50.372420Z,1697900090372
-0.06451865285634995,-0.19581744074821472,-0.009977111592888832,2023-10-21T14:54:50.385315Z,1697900090385
-0.07117006182670593,-0.2073908895254135,-0.023679010570049286,2023-10-21T14:54:50.392338Z,1697900090392
-0.07675724476575851,-0.21723496913909912,-0.03538548946380615,2023-10-21T14:54:50.401726Z,1697900090401
-0.08420681953430176,-0.2238863855600357,-0.04655985161662102,2023-10-21T14:54:50.412518Z,1697900090412
-0.09045914560556412,-0.2294735610485077,-0.05613787844777107,2023-10-21T14:54:50.422034Z,1697900090421
-0.09764266014099121,-0.2326662391424179,-0.06385350972414017,2023-10-21T14:54:50.435472Z,1697900090435
-0.1037619560956955,-0.23532679677009583,-0.07050491869449615,2023-10-21T14:54:50.442256Z,1697900090442
-0.11041336506605148,-0.2403818666934967,-0.07489485293626785,2023-10-21T14:54:50.453242Z,1697900090453
-0.11626660823822021,-0.24463877081871033,-0.07861963659524918,2023-10-21T14:54:50.462385Z,1697900090462
-0.12078956514596939,-0.24982686340808868,-0.0784866064786911,2023-10-21T14:54:50.473593Z,1697900090473
-0.12464737892150879,-0.2542167901992798,-0.0784866064786911,2023-10-21T14:54:50.485125Z,1697900090485
-0.12478040903806686,-0.25607919692993164,-0.07383062690496445,2023-10-21T14:54:50.493610Z,1697900090493
-0.12491343170404434,-0.25767552852630615,-0.06983978301286697,2023-10-21T14:54:50.503039Z,1697900090502
-0.12065653502941132,-0.25488194823265076,-0.06372048705816269,2023-10-21T14:54:50.513825Z,1697900090513
-0.1169317439198494,-0.2523544132709503,-0.05839935690164566,2023-10-21T14:54:50.523410Z,1697900090523
-0.11280786991119385,-0.24942778050899506,-0.053477317094802856,2023-10-21T14:54:50.535370Z,1697900090535
-0.1092161163687706,-0.24690024554729462,-0.04935344308614731,2023-10-21T14:54:50.543627Z,1697900090543
-0.10908308625221252,-0.24610207974910736,-0.0482892207801342,2023-10-21T14:54:50.554591Z,1697900090554
-0.10881702601909637,-0.24543693661689758,-0.04735802114009857,2023-10-21T14:54:50.563802Z,1697900090563
-0.11427118629217148,-0.246501162648201,-0.050683725625276566,2023-10-21T14:54:50.574943Z,1697900090574
-0.11879414319992065,-0.24743236601352692,-0.053477317094802856,2023-10-21T14:54:50.585133Z,1697900090585
-0.12943638861179352,-0.2503589689731598,-0.06119294837117195,2023-10-21T14:54:50.594950Z,1697900090594
-0.1383492797613144,-0.25275349617004395,-0.06784436106681824,2023-10-21T14:54:50.604405Z,1697900090604
-0.1509869545698166,-0.2562122344970703,-0.07715632766485214,2023-10-21T14:54:50.618718Z,1697900090618
-0.1618952602148056,-0.25927186012268066,-0.08500499278306961,2023-10-21T14:54:50.624637Z,1697900090624
-0.17546413838863373,-0.26153334975242615,-0.09298668056726456,2023-10-21T14:54:50.635905Z,1697900090635
-0.20885419845581055,-0.28348299860954285,-0.10961519926786423,2023-10-21T14:54:50.644912Z,1697900090644
-0.2233542650938034,-0.281620591878891,-0.11240878701210022,2023-10-21T14:54:50.656023Z,1697900090655
-0.23891855776309967,-0.27789580821990967,-0.11307393014431,2023-10-21T14:54:50.668152Z,1697900090668
-0.25541403889656067,-0.2717765271663666,-0.11161062121391296,2023-10-21T14:54:50.676081Z,1697900090676
-0.2728407382965088,-0.26419392228126526,-0.10828491300344467,2023-10-21T14:54:50.685441Z,1697900090685
-0.29119861125946045,-0.25714340806007385,-0.10402801632881165,2023-10-21T14:54:50.696299Z,1697900090696
-0.30982255935668945,-0.251822292804718,-0.09963808953762054,2023-10-21T14:54:50.705770Z,1697900090705
-0.3283134698867798,-0.24796447157859802,-0.09564723819494247,2023-10-21T14:54:50.718709Z,1697900090718
-0.34560713171958923,-0.2437075674533844,-0.09258759021759033,2023-10-21T14:54:50.725898Z,1697900090725
-0.36183658242225647,-0.2387855350971222,-0.09019308537244797,2023-10-21T14:54:50.737004Z,1697900090736
-0.377533882856369,-0.23359742760658264,-0.0883306935429573,2023-10-21T14:54:50.746147Z,1697900090746
-0.3933642506599426,-0.22907447814941406,-0.08646830171346664,2023-10-21T14:54:50.757356Z,1697900090757
-0.4093276262283325,-0.22428546845912933,-0.08261048048734665,2023-10-21T14:54:50.768260Z,1697900090768
-0.42449283599853516,-0.2184322327375412,-0.07542695850133896,2023-10-21T14:54:50.777334Z,1697900090777
-0.437529593706131,-0.21045053005218506,-0.06358745694160461,2023-10-21T14:54:50.786774Z,1697900090786
-0.4473736882209778,-0.19954222440719604,-0.04682590812444687,2023-10-21T14:54:50.801454Z,1697900090801
-0.4526948034763336,-0.18530821800231934,-0.02540837787091732,2023-10-21T14:54:50.807071Z,1697900090807
-0.45256176590919495,-0.16841363906860352,-3.990844707004726E-4,2023-10-21T14:54:50.818426Z,1697900090818
-0.44750669598579407,-0.15125301480293274,0.025807460770010948,2023-10-21T14:54:50.827240Z,1697900090827
-0.43819472193717957,-0.1360878050327301,0.05081675574183464,2023-10-21T14:54:50.838349Z,1697900090838
-0.42555704712867737,-0.12478040903806686,0.07236731797456741,2023-10-21T14:54:50.851667Z,1697900090851
-0.41079092025756836,-0.11759688705205917,0.08952794969081879,2023-10-21T14:54:50.858378Z,1697900090858
-0.3952266275882721,-0.11427118629217148,0.10203259438276291,2023-10-21T14:54:50.868437Z,1697900090868
-0.3799284100532532,-0.11373907327651978,0.11054639518260956,2023-10-21T14:54:50.878577Z,1697900090878
-0.36582741141319275,-0.11533540487289429,0.11560146510601044,2023-10-21T14:54:50.888160Z,1697900090888
-0.35318973660469055,-0.11733082681894302,0.11839505285024643,2023-10-21T14:54:50.901798Z,1697900090901
-0.3413502275943756,-0.11812900006771088,0.11945927888154984,2023-10-21T14:54:50.908377Z,1697900090908
-0.3303089141845703,-0.11733082681894302,0.11879414319992065,2023-10-21T14:54:50.919353Z,1697900090919
-0.3011757433414459,-0.1081518903374672,0.10934913903474808,2023-10-21T14:54:50.928566Z,1697900090928
-0.29385918378829956,-0.10961519926786423,0.10243167728185654,2023-10-21T14:54:50.939684Z,1697900090939
-0.2876068651676178,-0.11081244796514511,0.0965784415602684,2023-10-21T14:54:50.950881Z,1697900090950
-0.28401511907577515,-0.11879414319992065,0.07582604885101318,2023-10-21T14:54:50.959714Z,1697900090959
-0.28082242608070374,-0.1257116049528122,0.05800027400255203,2023-10-21T14:54:50.969146Z,1697900090969
-0.27962517738342285,-0.14194104075431824,0.02474323660135269,2023-10-21T14:54:50.979898Z,1697900090979
-0.29944637417793274,-0.1773265302181244,-0.022215701639652252,2023-10-21T14:54:50.989452Z,1697900090989
-0.29718488454818726,-0.19674864411354065,-0.05986266955733299,2023-10-21T14:54:51.001730Z,1697900091001
-0.2946573495864868,-0.21856525540351868,-0.09883991628885269,2023-10-21T14:54:51.009633Z,1697900091009
-0.2919968068599701,-0.24171215295791626,-0.13808321952819824,2023-10-21T14:54:51.020688Z,1697900091020
-0.289336234331131,-0.2651250958442688,-0.17639532685279846,2023-10-21T14:54:51.029784Z,1697900091029
-0.28680869936943054,-0.2870747447013855,-0.21257898211479187,2023-10-21T14:54:51.040997Z,1697900091040
-0.2849462926387787,-0.3063638210296631,-0.2453039139509201,2023-10-21T14:54:51.051261Z,1697900091051
-0.28361600637435913,-0.32126298546791077,-0.27310678362846375,2023-10-21T14:54:51.061014Z,1697900091060
-0.28188666701316833,-0.3299098312854767,-0.29399222135543823,2023-10-21T14:54:51.070597Z,1697900091070
-0.26033610105514526,-0.30796018242836,-0.2804233431816101,2023-10-21T14:54:51.081280Z,1697900091081
-0.255680114030838,-0.30490052700042725,-0.28574445843696594,2023-10-21T14:54:51.090760Z,1697900091090
-0.25168925523757935,-0.3023729920387268,-0.2902674376964569,2023-10-21T14:54:51.101783Z,1697900091101
-0.23918461799621582,-0.28840503096580505,-0.2739049792289734,2023-10-21T14:54:51.110928Z,1697900091110
-0.22840933501720428,-0.27643251419067383,-0.25980398058891296,2023-10-21T14:54:51.122124Z,1697900091122
-0.19515229761600494,-0.23612496256828308,-0.22189095616340637,2023-10-21T14:54:51.135064Z,1697900091135
-0.18251462280750275,-0.23027172684669495,-0.19674864411354065,2023-10-21T14:54:51.142095Z,1697900091142
-0.17187237739562988,-0.22521665692329407,-0.17519807815551758,2023-10-21T14:54:51.151818Z,1697900091151
-0.14673005044460297,-0.19235870242118835,-0.14965666830539703,2023-10-21T14:54:51.162327Z,1697900091162
-0.12278498709201813,-0.18091829121112823,-0.11892716586589813,2023-10-21T14:54:51.171805Z,1697900091171
-0.10229864716529846,-0.17134025692939758,-0.09272062033414841,2023-10-21T14:54:51.185479Z,1697900091185
-0.08739949762821198,-0.14633096754550934,-0.07915174961090088,2023-10-21T14:54:51.192036Z,1697900091192
-0.0746287927031517,-0.12491343170404434,-0.06757830083370209,2023-10-21T14:54:51.203094Z,1697900091203
-0.0477571077644825,-0.11985836178064346,-0.042169924825429916,2023-10-21T14:54:51.212160Z,1697900091212
-0.02474323660135269,-0.11546843498945236,-0.020486336201429367,2023-10-21T14:54:51.223397Z,1697900091223
-0.021151475608348846,-0.09870688617229462,-0.017426688224077225,2023-10-21T14:54:51.234691Z,1697900091234
-0.018091829493641853,-0.08420681953430176,-0.014899153262376785,2023-10-21T14:54:51.243437Z,1697900091243
-0.015431265346705914,-0.07196822762489319,-0.012770703062415123,2023-10-21T14:54:51.252809Z,1697900091252
-0.013169786892831326,-0.0614590048789978,-0.010908308438956738,2023-10-21T14:54:51.263609Z,1697900091263
0.005853238515555859,-0.0740966796875,-0.01569732278585434,2023-10-21T14:54:51.273130Z,1697900091273
0.022215701639652252,-0.08500499278306961,-0.019688166677951813,2023-10-21T14:54:51.284943Z,1697900091284
0.019023025408387184,-0.07250034064054489,-0.016894575208425522,2023-10-21T14:54:51.293295Z,1697900091293
0.016229433938860893,-0.061991117894649506,-0.014367040246725082,2023-10-21T14:54:51.304497Z,1697900091304
0.016229433938860893,-0.10735371708869934,-0.08247745782136917,2023-10-21T14:54:51.313462Z,1697900091313
0.01636246219277382,-0.14619794487953186,-0.14061075448989868,2023-10-21T14:54:51.324809Z,1697900091324
0.01396795641630888,-0.12478040903806686,-0.12012442201375961,2023-10-21T14:54:51.334704Z,1697900091334
0.011972533538937569,-0.10655555129051208,-0.10256470739841461,2023-10-21T14:54:51.344794Z,1697900091344
-0.0011972533538937569,-0.1678815335035324,-0.19355596601963043,2023-10-21T14:54:51.354207Z,1697900091354
-0.012371618300676346,-0.2201615869998932,-0.2712444067001343,2023-10-21T14:54:51.368670Z,1697900091368
-0.01050922367721796,-0.18810181319713593,-0.23173503577709198,2023-10-21T14:54:51.374443Z,1697900091374
-0.009045914746820927,-0.16056497395038605,-0.19781285524368286,2023-10-21T14:54:51.385753Z,1697900091385
-0.0070504918694496155,-0.19914314150810242,-0.25820764899253845,2023-10-21T14:54:51.394650Z,1697900091394
-0.005454154219478369,-0.2321341186761856,-0.30968955159187317,2023-10-21T14:54:51.405871Z,1697900091405
0.008912886492908001,-0.22801025211811066,-0.2995794117450714,2023-10-21T14:54:51.418001Z,1697900091417
0.02101844735443592,-0.2244184911251068,-0.29106560349464417,2023-10-21T14:54:51.425858Z,1697900091425
0.042835064232349396,-0.22707904875278473,-0.2805563807487488,2023-10-21T14:54:51.435197Z,1697900091435
0.07715632766485214,-0.24929475784301758,-0.28680869936943054,2023-10-21T14:54:51.446045Z,1697900091446
0.09977111220359802,-0.25275349617004395,-0.27417102456092834,2023-10-21T14:54:51.455585Z,1697900091455
0.12411526590585709,-0.25448286533355713,-0.2608681917190552,2023-10-21T14:54:51.467765Z,1697900091467
0.14952364563941956,-0.2523544132709503,-0.24556997418403625,2023-10-21T14:54:51.475665Z,1697900091475
0.17466595768928528,-0.24517089128494263,-0.22734510898590088,2023-10-21T14:54:51.486764Z,1697900091486
0.198078915476799,-0.233198344707489,-0.2052624374628067,2023-10-21T14:54:51.495907Z,1697900091495
0.21883131563663483,-0.21750102937221527,-0.17905589938163757,2023-10-21T14:54:51.507053Z,1697900091507
0.23625800013542175,-0.19954222440719604,-0.1492575854063034,2023-10-21T14:54:51.517617Z,1697900091517
0.2508910894393921,-0.18038617074489594,-0.11666569113731384,2023-10-21T14:54:51.527223Z,1697900091527
0.26379483938217163,-0.16109709441661835,-0.08274351060390472,2023-10-21T14:54:51.536518Z,1697900091536
0.27590039372444153,-0.14287222921848297,-0.04868830367922783,2023-10-21T14:54:51.550993Z,1697900091550
0.2880059480667114,-0.12597766518592834,-0.01569732278585434,2023-10-21T14:54:51.556818Z,1697900091556
0.3009096682071686,-0.11041336506605148,0.016096405684947968,2023-10-21T14:54:51.567802Z,1697900091567
0.31540974974632263,-0.09538118541240692,0.046293795108795166,2023-10-21T14:54:51.576982Z,1697900091576
0.3315061628818512,-0.08101414144039154,0.07542695850133896,2023-10-21T14:54:51.588127Z,1697900091588
0.348400741815567,-0.06784436106681824,0.10402801632881165,2023-10-21T14:54:51.600838Z,1697900091600
0.3654283285140991,-0.056403934955596924,0.13236300647258759,2023-10-21T14:54:51.608145Z,1697900091608
0.38165777921676636,-0.04616076871752739,0.1608310341835022,2023-10-21T14:54:51.617573Z,1697900091617
0.3972220718860626,-0.03525245934724808,0.18916603922843933,2023-10-21T14:54:51.628358Z,1697900091628
0.4117221236228943,-0.022348729893565178,0.21710194647312164,2023-10-21T14:54:51.637865Z,1697900091637
0.42449283599853516,-0.007316548377275467,0.24437271058559418,2023-10-21T14:54:51.651114Z,1697900091651
0.4347360134124756,0.008912886492908001,0.27097833156585693,2023-10-21T14:54:51.658071Z,1697900091658
0.4423186182975769,0.025541406124830246,0.29678580164909363,2023-10-21T14:54:51.669105Z,1697900091669
0.4472406506538391,0.04230295121669769,0.3216620683670044,2023-10-21T14:54:51.678275Z,1697900091678
0.4496351480484009,0.05906450003385544,0.3452080488204956,2023-10-21T14:54:51.689457Z,1697900091689
0.4496351480484009,0.07542695850133896,0.36702466011047363,2023-10-21T14:54:51.700720Z,1697900091700
0.4477727711200714,0.09045914560556412,0.38671284914016724,2023-10-21T14:54:51.709493Z,1697900091709
0.44431403279304504,0.10309682041406631,0.403873473405838,2023-10-21T14:54:51.718873Z,1697900091718
0.4396580457687378,0.11280786991119385,0.4182405173778534,2023-10-21T14:54:51.729632Z,1697900091729
0.4335387349128723,0.11972533911466599,0.4292818605899811,2023-10-21T14:54:51.739215Z,1697900091739
0.4263552129268646,0.12424829602241516,0.4364653527736664,2023-10-21T14:54:51.751201Z,1697900091751
0.418639600276947,0.1267758309841156,0.43939200043678284,2023-10-21T14:54:51.759389Z,1697900091759
0.41132304072380066,0.127840057015419,0.4384607970714569,2023-10-21T14:54:51.770472Z,1697900091770
0.40480467677116394,0.1273079365491867,0.43393781781196594,2023-10-21T14:54:51.779527Z,1697900091779
0.3990844488143921,0.12424829602241516,0.42608916759490967,2023-10-21T14:54:51.790765Z,1697900091790
0.3934972882270813,0.11666569113731384,0.4153138995170593,2023-10-21T14:54:51.800611Z,1697900091800
0.3876440227031708,0.1042940691113472,0.4013459384441376,2023-10-21T14:54:51.810740Z,1697900091810
0.38205686211586,0.08912885934114456,0.38445135951042175,2023-10-21T14:54:51.820282Z,1697900091820
0.3771347999572754,0.07289943099021912,0.3650292456150055,2023-10-21T14:54:51.835411Z,1697900091835
0.3720797300338745,0.05613787844777107,0.34321263432502747,2023-10-21T14:54:51.840509Z,1697900091840
0.3655613660812378,0.0389772467315197,0.3195336163043976,2023-10-21T14:54:51.851571Z,1697900091851
0.3569145202636719,0.0219496451318264,0.2946573495864868,2023-10-21T14:54:51.860708Z,1697900091860
0.3462722897529602,0.0055871824733912945,0.2695150375366211,2023-10-21T14:54:51.871882Z,1697900091871
0.3341667056083679,-0.009045914746820927,0.24543693661689758,2023-10-21T14:54:51.884048Z,1697900091884
0.30383628606796265,-0.01476612500846386,0.21670286357402802,2023-10-21T14:54:51.891847Z,1697900091891
0.29439130425453186,-0.023146897554397583,0.1975468099117279,2023-10-21T14:54:51.901185Z,1697900091901
0.28627657890319824,-0.030330419540405273,0.1810513138771057,2023-10-21T14:54:51.912035Z,1697900091912
0.2776297628879547,-0.032192811369895935,0.16668426990509033,2023-10-21T14:54:51.921574Z,1697900091921
0.2701801657676697,-0.03365612402558327,0.15431265532970428,2023-10-21T14:54:51.934346Z,1697900091934
0.2623315155506134,-0.03711485490202904,0.14446857571601868,2023-10-21T14:54:51.941754Z,1697900091941
0.25554707646369934,-0.04017450287938118,0.13595476746559143,2023-10-21T14:54:51.952822Z,1697900091952
0.25062504410743713,-0.04496351629495621,0.12930336594581604,2023-10-21T14:54:51.961943Z,1697900091961
0.246501162648201,-0.04908738657832146,0.12371618300676346,2023-10-21T14:54:51.973158Z,1697900091973
0.24503785371780396,-0.053211260586977005,0.1213216781616211,2023-10-21T14:54:51.983888Z,1697900091983
0.26100122928619385,-0.061991117894649506,0.12863822281360626,2023-10-21T14:54:51.993146Z,1697900091993
0.25767552852630615,-0.06345442682504654,0.13023455440998077,2023-10-21T14:54:52.002590Z,1697900092002
0.2551479935646057,-0.06505076587200165,0.13435843586921692,2023-10-21T14:54:52.013298Z,1697900092013
0.25288650393486023,-0.06664710491895676,0.14087681472301483,2023-10-21T14:54:52.022879Z,1697900092022
0.25115716457366943,-0.06717921793460846,0.14912456274032593,2023-10-21T14:54:52.034162Z,1697900092034
0.2502259612083435,-0.0658489316701889,0.1585695594549179,2023-10-21T14:54:52.043057Z,1697900092043
0.2496938407421112,-0.06278929114341736,0.16828061640262604,2023-10-21T14:54:52.054152Z,1697900092054
0.24902869760990143,-0.05879844352602959,0.1778586357831955,2023-10-21T14:54:52.067093Z,1697900092067
0.24769842624664307,-0.054807599633932114,0.18623940646648407,2023-10-21T14:54:52.074226Z,1697900092074
0.2453039139509201,-0.05094978213310242,0.1926247626543045,2023-10-21T14:54:52.083617Z,1697900092083
0.2419782131910324,-0.047224994748830795,0.19634954631328583,2023-10-21T14:54:52.094433Z,1697900092094
0.22255609929561615,-0.041903868317604065,0.18304674327373505,2023-10-21T14:54:52.103940Z,1697900092103
0.22056066989898682,-0.04150478169322014,0.1811843365430832,2023-10-21T14:54:52.117528Z,1697900092117
0.2189643383026123,-0.040972672402858734,0.17958800494670868,2023-10-21T14:54:52.124157Z,1697900092124
0.21337716281414032,-0.04908738657832146,0.16655124723911285,2023-10-21T14:54:52.135182Z,1697900092135
0.2085881382226944,-0.056004852056503296,0.1553768813610077,2023-10-21T14:54:52.144349Z,1697900092144
0.20020736753940582,-0.06957372277975082,0.13422539830207825,2023-10-21T14:54:52.155517Z,1697900092155
0.19302384555339813,-0.08114717155694962,0.11613357812166214,2023-10-21T14:54:52.166954Z,1697900092166
0.18397793173789978,-0.09484907239675522,0.09139034152030945,2023-10-21T14:54:52.175527Z,1697900092175
0.17626230418682098,-0.10642252117395401,0.07037189602851868,2023-10-21T14:54:52.184942Z,1697900092184
0.16761547327041626,-0.11733082681894302,0.04655985161662102,2023-10-21T14:54:52.195719Z,1697900092195
0.1602989286184311,-0.12650977075099945,0.026206545531749725,2023-10-21T14:54:52.205238Z,1697900092205
0.15245026350021362,-0.1378171592950821,0.005321125965565443,2023-10-21T14:54:52.217201Z,1697900092217
0.14566582441329956,-0.14752821624279022,-0.012504646554589272,2023-10-21T14:54:52.225420Z,1697900092225
0.14127589762210846,-0.1597668081521988,-0.030862530693411827,2023-10-21T14:54:52.236498Z,1697900092236
0.13741807639598846,-0.1701430082321167,-0.04642682522535324,2023-10-21T14:54:52.245587Z,1697900092245
0.1378171592950821,-0.18331278860569,-0.06079386547207832,2023-10-21T14:54:52.256841Z,1697900092256
0.13808321952819824,-0.19448715448379517,-0.07316548377275467,2023-10-21T14:54:52.266788Z,1697900092266
0.14287222921848297,-0.20379912853240967,-0.0823444277048111,2023-10-21T14:54:52.276793Z,1697900092276
0.14699611067771912,-0.21178081631660461,-0.09019308537244797,2023-10-21T14:54:52.286415Z,1697900092286
0.15378054976463318,-0.21750102937221527,-0.09285365045070648,2023-10-21T14:54:52.301306Z,1697900092301
0.1597668081521988,-0.2222900390625,-0.09511512517929077,2023-10-21T14:54:52.306546Z,1697900092306
0.16668426990509033,-0.22348730266094208,-0.09139034152030945,2023-10-21T14:54:52.317468Z,1697900092317
0.17253752052783966,-0.2244184911251068,-0.0883306935429573,2023-10-21T14:54:52.326731Z,1697900092326
0.17812469601631165,-0.21750102937221527,-0.07888569682836533,2023-10-21T14:54:52.337850Z,1697900092337
0.18291370570659637,-0.21164779365062714,-0.07090400159358978,2023-10-21T14:54:52.350002Z,1697900092349
0.18317976593971252,-0.19821195304393768,-0.05613787844777107,2023-10-21T14:54:52.358095Z,1697900092358
0.18344582617282867,-0.18677152693271637,-0.043500207364559174,2023-10-21T14:54:52.367335Z,1697900092367
0.17772561311721802,-0.16987694799900055,-0.024876264855265617,2023-10-21T14:54:52.378167Z,1697900092378
0.1729366034269333,-0.15564294159412384,-0.009045914746820927,2023-10-21T14:54:52.387671Z,1697900092387
0.16548702120780945,-0.13967956602573395,0.01050922367721796,2023-10-21T14:54:52.400639Z,1697900092400
0.15896864235401154,-0.12611068785190582,0.027137743309140205,2023-10-21T14:54:52.407856Z,1697900092407
0.15457871556282043,-0.11440420895814896,0.043766263872385025,2023-10-21T14:54:52.418823Z,1697900092418
0.15085391700267792,-0.10442709922790527,0.05800027400255203,2023-10-21T14:54:52.428010Z,1697900092427
0.1515190601348877,-0.0965784415602684,0.07090400159358978,2023-10-21T14:54:52.439141Z,1697900092439
0.15205118060112,-0.08979400247335434,0.08194534480571747,2023-10-21T14:54:52.450105Z,1697900092450
0.15444567799568176,-0.08407378941774368,0.0921885073184967,2023-10-21T14:54:52.459144Z,1697900092459
0.1564411073923111,-0.07915174961090088,0.10083533823490143,2023-10-21T14:54:52.468666Z,1697900092468
0.15577596426010132,-0.0730324536561966,0.10855097323656082,2023-10-21T14:54:52.479541Z,1697900092479
0.1552438586950302,-0.06784436106681824,0.11520238220691681,2023-10-21T14:54:52.488952Z,1697900092488
0.14699611067771912,-0.06159203499555588,0.11826203018426895,2023-10-21T14:54:52.500330Z,1697900092500
0.1399456113576889,-0.056403934955596924,0.12078956514596939,2023-10-21T14:54:52.509101Z,1697900092509
0.11945927888154984,-0.048156190663576126,0.10322984308004379,2023-10-21T14:54:52.520438Z,1697900092520
0.10682160407304764,-0.04044055938720703,0.11054639518260956,2023-10-21T14:54:52.529278Z,1697900092529
0.0960463285446167,-0.03392218053340912,0.11679871380329132,2023-10-21T14:54:52.540518Z,1697900092540
0.08194534480571747,-0.029000137001276016,0.09977111220359802,2023-10-21T14:54:52.550086Z,1697900092550
0.06997280567884445,-0.02474323660135269,0.08527104556560516,2023-10-21T14:54:52.560491Z,1697900092560
0.03631668537855148,-0.010775280185043812,0.0921885073184967,2023-10-21T14:54:52.570004Z,1697900092569
0.007582604885101318,0.0011972533538937569,0.09804175049066544,2023-10-21T14:54:52.583764Z,1697900092583
-0.015963377431035042,0.010376195423305035,0.09258759021759033,2023-10-21T14:54:52.590219Z,1697900092590
-0.03618365898728371,0.01822485774755478,0.08793161064386368,2023-10-21T14:54:52.601199Z,1697900092601
-0.060128726065158844,0.02953225001692772,0.08274351060390472,2023-10-21T14:54:52.610446Z,1697900092610
-0.08048202842473984,0.039110276848077774,0.07822055369615555,2023-10-21T14:54:52.621576Z,1697900092621
-0.1042940691113472,0.04895436018705368,0.07369759678840637,2023-10-21T14:54:52.633475Z,1697900092633
-0.14553280174732208,0.06398653984069824,0.07210125774145126,2023-10-21T14:54:52.641546Z,1697900092641
-0.16761547327041626,0.06744527071714401,0.06505076587200165,2023-10-21T14:54:52.651009Z,1697900092650
-0.18863391876220703,0.06890857964754105,0.056004852056503296,2023-10-21T14:54:52.661798Z,1697900092661
-0.2073908895254135,0.06904160976409912,0.04483048617839813,2023-10-21T14:54:52.671355Z,1697900092671
-0.22308820486068726,0.06771133095026016,0.03139464557170868,2023-10-21T14:54:52.683657Z,1697900092683
-0.23532679677009583,0.06398653984069824,0.015298237092792988,2023-10-21T14:54:52.691572Z,1697900092691
-0.2442396879196167,0.056669991463422775,-0.0031926757656037807,2023-10-21T14:54:52.702557Z,1697900092702
-0.24995990097522736,0.04549562931060791,-0.023945067077875137,2023-10-21T14:54:52.711714Z,1697900092711
-0.25288650393486023,0.03139464557170868,-0.04642682522535324,2023-10-21T14:54:52.722859Z,1697900092722
-0.2536846995353699,0.015431265346705914,-0.07063794881105423,2023-10-21T14:54:52.733223Z,1697900092733
-0.25381770730018616,-0.0013302814913913608,-0.09644541144371033,2023-10-21T14:54:52.742926Z,1697900092742
-0.2546158730983734,-0.018756968900561333,-0.12345012277364731,2023-10-21T14:54:52.752335Z,1697900092752
-0.2578085660934448,-0.03578457236289978,-0.15058787167072296,2023-10-21T14:54:52.767196Z,1697900092767
-0.26379483938217163,-0.05121583864092827,-0.1761292666196823,2023-10-21T14:54:52.772654Z,1697900092772
-0.2727077007293701,-0.06358745694160461,-0.19794589281082153,2023-10-21T14:54:52.783794Z,1697900092783
-0.28348299860954285,-0.07170217484235764,-0.21484047174453735,2023-10-21T14:54:52.792800Z,1697900092792
-0.2947903871536255,-0.0740966796875,-0.2256157398223877,2023-10-21T14:54:52.803971Z,1697900092803
-0.3047674894332886,-0.07050491869449615,-0.23013870418071747,2023-10-21T14:54:52.816507Z,1697900092816
-0.31261616945266724,-0.06252323091030121,-0.22814327478408813,2023-10-21T14:54:52.823984Z,1697900092823
-0.3187354505062103,-0.05374337360262871,-0.22109279036521912,2023-10-21T14:54:52.833359Z,1697900092833
-0.3231253921985626,-0.04682590812444687,-0.21098265051841736,2023-10-21T14:54:52.844212Z,1697900092844
-0.3248547613620758,-0.04150478169322014,-0.20127159357070923,2023-10-21T14:54:52.853703Z,1697900092853
-0.32352447509765625,-0.03711485490202904,-0.1942211091518402,2023-10-21T14:54:52.867011Z,1697900092866
-0.3195336163043976,-0.03392218053340912,-0.19062934815883636,2023-10-21T14:54:52.873943Z,1697900092873
-0.3135473430156708,-0.032458867877721786,-0.1899642050266266,2023-10-21T14:54:52.885073Z,1697900092885
-0.30556565523147583,-0.031261615455150604,-0.19062934815883636,2023-10-21T14:54:52.894139Z,1697900092894
-0.2792260944843292,-0.028334995731711388,-0.17706046998500824,2023-10-21T14:54:52.905332Z,1697900092905
-0.26858383417129517,-0.023945067077875137,-0.17772561311721802,2023-10-21T14:54:52.916939Z,1697900092916
-0.259537935256958,-0.02008725143969059,-0.17825771868228912,2023-10-21T14:54:52.925310Z,1697900092925
-0.2414460927248001,-0.007715632673352957,-0.16921180486679077,2023-10-21T14:54:52.934705Z,1697900092934
-0.22588180005550385,0.0027935912366956472,-0.16149617731571198,2023-10-21T14:54:52.945495Z,1697900092945
-0.19395504891872406,0.021151475608348846,-0.14207406342029572,2023-10-21T14:54:52.955012Z,1697900092954
-0.16655124723911285,0.03671576827764511,-0.12544554471969604,2023-10-21T14:54:52.967323Z,1697900092967
-0.14234012365341187,0.03139464557170868,-0.10708766430616379,2023-10-21T14:54:52.975221Z,1697900092975
-0.07981689274311066,0.0834086537361145,-0.05986266955733299,2023-10-21T14:54:52.986271Z,1697900092986
-0.026472602039575577,0.12797307968139648,-0.019555138424038887,2023-10-21T14:54:52.995384Z,1697900092995
0.01476612500846386,0.17306962609291077,0.031261615455150604,2023-10-21T14:54:53.006629Z,1697900093006
0.04988555610179901,0.21151475608348846,0.07449576258659363,2023-10-21T14:54:53.016561Z,1697900093016
0.07702329754829407,0.26326271891593933,0.1267758309841156,2023-10-21T14:54:53.026597Z,1697900093026
0.10003717243671417,0.30756109952926636,0.17134025692939758,2023-10-21T14:54:53.036053Z,1697900093036
0.1213216781616211,0.3546530604362488,0.20925328135490417,2023-10-21T14:54:53.050113Z,1697900093050
0.1602989286184311,0.4385938048362732,0.26472601294517517,2023-10-21T14:54:53.056288Z,1697900093056
0.18264764547348022,0.4586810767650604,0.2660562992095947,2023-10-21T14:54:53.067308Z,1697900093067
0.20872117578983307,0.4693233072757721,0.25647827982902527,2023-10-21T14:54:53.076496Z,1697900093076
0.2359919399023056,0.47278204560279846,0.24024884402751923,2023-10-21T14:54:53.087670Z,1697900093087
0.26259756088256836,0.47504353523254395,0.2222900390625,2023-10-21T14:54:53.099904Z,1697900093099
0.2892031967639923,0.48382338881492615,0.20885419845581055,2023-10-21T14:54:53.107699Z,1697900093107
0.31807032227516174,0.5072363615036011,0.207523912191391,2023-10-21T14:54:53.117056Z,1697900093117
0.35159340500831604,0.5511356592178345,0.22401940822601318,2023-10-21T14:54:53.127836Z,1697900093127
0.39110276103019714,0.6156542897224426,0.25927186012268066,2023-10-21T14:54:53.137395Z,1697900093137
0.4367314279079437,0.696801483631134,0.31155192852020264,2023-10-21T14:54:53.150174Z,1697900093150
0.4879472553730011,0.7888569235801697,0.3770017921924591,2023-10-21T14:54:53.157538Z,1697900093157
0.5434200167655945,0.8867656588554382,0.45149755477905273,2023-10-21T14:54:53.168586Z,1697900093168
0.6015533208847046,0.9893303513526917,0.5314474701881409,2023-10-21T14:54:53.177789Z,1697900093177
0.659553587436676,1.0965510606765747,0.6143240332603455,2023-10-21T14:54:53.188907Z,1697900093188
0.7140951156616211,1.2074965238571167,0.6990629434585571,2023-10-21T14:54:53.199896Z,1697900093199
0.7622513175010681,1.3193732500076294,0.7842009663581848,2023-10-21T14:54:53.208905Z,1697900093208
0.8029579520225525,1.4301856756210327,0.8661463260650635,2023-10-21T14:54:53.218433Z,1697900093218
0.8362149596214294,1.5388696193695068,0.9397108554840088,2023-10-21T14:54:53.233035Z,1697900093232
0.8608251810073853,1.6414343118667603,0.9995735287666321,2023-10-21T14:54:53.238709Z,1697900093238
0.8749261498451233,1.731494426727295,1.0414774417877197,2023-10-21T14:54:53.250062Z,1697900093250
0.8783848881721497,1.8049259185791016,1.0624958276748657,2023-10-21T14:54:53.258873Z,1697900093258
0.8729307055473328,1.8621280193328857,1.0624958276748657,2023-10-21T14:54:53.270104Z,1697900093270
0.8621554374694824,1.9064264297485352,1.0453351736068726,2023-10-21T14:54:53.282797Z,1697900093282
0.8493847250938416,1.9411468505859375,1.0172662734985352,2023-10-21T14:54:53.290012Z,1697900093289
0.8384764194488525,1.9686836004257202,0.9852064847946167,2023-10-21T14:54:53.299668Z,1697900093299
0.8324901461601257,1.9901010990142822,0.9551421403884888,2023-10-21T14:54:53.310311Z,1697900093310
0.8318250179290771,2.0047342777252197,0.929999828338623,2023-10-21T14:54:53.319776Z,1697900093319
0.8358159065246582,2.011784791946411,0.9105777144432068,2023-10-21T14:54:53.333797Z,1697900093333
0.8429993987083435,2.010986566543579,0.8948803544044495,2023-10-21T14:54:53.339995Z,1697900093339
0.8520452976226807,2.0023398399353027,0.8805133104324341,2023-10-21T14:54:53.350887Z,1697900093350
0.8609582185745239,1.9870414733886719,0.8645499348640442,2023-10-21T14:54:53.360178Z,1697900093360
0.8686738610267639,1.9666881561279297,0.845526933670044,2023-10-21T14:54:53.371355Z,1697900093371
0.8743940591812134,1.9430091381072998,0.8239763975143433,2023-10-21T14:54:53.382868Z,1697900093382
0.8774536848068237,1.916536569595337,0.8012285828590393,2023-10-21T14:54:53.391376Z,1697900093391
0.878650963306427,1.8870043754577637,0.7792789340019226,2023-10-21T14:54:53.400728Z,1697900093400
0.8799812197685242,1.8541463613510132,0.7601228356361389,2023-10-21T14:54:53.411579Z,1697900093411
0.8843711614608765,1.8158342838287354,0.7442924976348877,2023-10-21T14:54:53.421114Z,1697900093421
0.8928849697113037,1.767944097518921,0.7313888072967529,2023-10-21T14:54:53.433532Z,1697900093433
0.9055226445198059,1.7070173025131226,0.7194162607192993,2023-10-21T14:54:53.441273Z,1697900093441
0.9217520952224731,1.6310582160949707,0.7058473825454712,2023-10-21T14:54:53.452493Z,1697900093452
0.9413071870803833,1.5392687320709229,0.6870903968811035,2023-10-21T14:54:53.461405Z,1697900093461
0.9623256325721741,1.4312498569488525,0.6583563089370728,2023-10-21T14:54:53.472384Z,1697900093472
0.9828119874000549,1.3093961477279663,0.614590048789978,2023-10-21T14:54:53.481773Z,1697900093481
1.0006377696990967,1.1778312921524048,0.5516677498817444,2023-10-21T14:54:53.492579Z,1697900093492
1.0135414600372314,1.040546178817749,0.4679930508136749,2023-10-21T14:54:53.502076Z,1697900093502
1.0196608304977417,0.8994033336639404,0.36463016271591187,2023-10-21T14:54:53.513028Z,1697900093513
1.0177984237670898,0.7555999159812927,0.2458360195159912,2023-10-21T14:54:53.522329Z,1697900093522
1.0086194276809692,0.610998272895813,0.11679871380329132,2023-10-21T14:54:53.533184Z,1697900093533
0.9939863681793213,0.4681260585784912,-0.01556429360061884,2023-10-21T14:54:53.542550Z,1697900093542
0.9752293825149536,0.33017587661743164,-0.14313828945159912,2023-10-21T14:54:53.553512Z,1697900093553
0.9530136585235596,0.20127159357070923,-0.2596709430217743,2023-10-21T14:54:53.566123Z,1697900093566
0.9266741275787354,0.08513801544904709,-0.3615705072879791,2023-10-21T14:54:53.573674Z,1697900093573
0.8952794671058655,-0.016096405684947968,-0.44976818561553955,2023-10-21T14:54:53.583126Z,1697900093583
0.8574994802474976,-0.10163351148366928,-0.5281217694282532,2023-10-21T14:54:53.593905Z,1697900093593
0.8120038509368896,-0.17280356585979462,-0.6022184491157532,2023-10-21T14:54:53.603433Z,1697900093603
0.7573292851448059,-0.23253321647644043,-0.6756500005722046,2023-10-21T14:54:53.616421Z,1697900093616
0.6933427453041077,-0.28574445843696594,-0.7501457333564758,2023-10-21T14:54:53.623643Z,1697900093623
0.6221726536750793,-0.337093323469162,-0.825971782207489,2023-10-21T14:54:53.634600Z,1697900093634
0.5478099584579468,-0.38937339186668396,-0.901398777961731,2023-10-21T14:54:53.643880Z,1697900093643
0.47384628653526306,-0.44431403279304504,-0.9731009602546692,2023-10-21T14:54:53.654886Z,1697900093654
0.40307530760765076,-0.503644585609436,-1.0368213653564453,2023-10-21T14:54:53.665872Z,1697900093665
0.337093323469162,-0.5682962536811829,-1.0891014337539673,2023-10-21T14:54:53.675002Z,1697900093674
0.27736368775367737,-0.6381360292434692,-1.1279456615447998,2023-10-21T14:54:53.684407Z,1697900093684
0.22601483762264252,-0.711833655834198,-1.1521568298339844,2023-10-21T14:54:53.695285Z,1697900093695
0.18464307487010956,-0.7865954637527466,-1.160537600517273,2023-10-21T14:54:53.704745Z,1697900093704
0.15497779846191406,-0.8576325178146362,-1.152688980102539,2023-10-21T14:54:53.716206Z,1697900093716
0.13795019686222076,-0.9174951910972595,-1.1280786991119385,2023-10-21T14:54:53.724951Z,1697900093724
0.13262906670570374,-0.9603302478790283,-1.0861748456954956,2023-10-21T14:54:53.735983Z,1697900093735
0.1371520310640335,-0.9826789498329163,-1.0267112255096436,2023-10-21T14:54:53.745116Z,1697900093745
0.14965666830539703,-0.9833440780639648,-0.9511513113975525,2023-10-21T14:54:53.756215Z,1697900093756
0.16867969930171967,-0.9649862051010132,-0.8637517690658569,2023-10-21T14:54:53.765951Z,1697900093765
0.19275778532028198,-0.9338576197624207,-0.7694348096847534,2023-10-21T14:54:53.776292Z,1697900093776
0.2200285643339157,-0.8984721302986145,-0.6727233529090881,2023-10-21T14:54:53.785769Z,1697900093785
0.2496938407421112,-0.8653481006622314,-0.5774751901626587,2023-10-21T14:54:53.799438Z,1697900093799
0.2805563807487488,-0.8392745852470398,-0.48808029294013977,2023-10-21T14:54:53.806049Z,1697900093806
0.3100886344909668,-0.8251736164093018,-0.40746521949768066,2023-10-21T14:54:53.816885Z,1697900093816
0.3348318636417389,-0.8246415257453918,-0.33735939860343933,2023-10-21T14:54:53.826239Z,1697900093826
0.351859450340271,-0.8363479971885681,-0.2781618535518646,2023-10-21T14:54:53.837226Z,1697900093837
0.3606393337249756,-0.8569673299789429,-0.2282763123512268,2023-10-21T14:54:53.849268Z,1697900093849
0.36250171065330505,-0.8851693272590637,-0.18557427823543549,2023-10-21T14:54:53.857429Z,1697900093857
0.36143749952316284,-0.9233484268188477,-0.1476612538099289,2023-10-21T14:54:53.866802Z,1697900093866
0.36143749952316284,-0.975495457649231,-0.11214273422956467,2023-10-21T14:54:53.877651Z,1697900093877
0.36635953187942505,-1.0436058044433594,-0.07768844068050385,2023-10-21T14:54:53.887126Z,1697900093887
0.3791302442550659,-1.1247529983520508,-0.0433671772480011,2023-10-21T14:54:53.899479Z,1697900093899
0.4001486897468567,-1.216941475868225,-0.009311970323324203,2023-10-21T14:54:53.907357Z,1697900093907
0.4274194538593292,-1.3217676877975464,0.024344151839613914,2023-10-21T14:54:53.918294Z,1697900093918
0.4584150016307831,-1.4406949281692505,0.055073656141757965,2023-10-21T14:54:53.927513Z,1697900093927
0.49047479033470154,-1.5717276334762573,0.07941780984401703,2023-10-21T14:54:53.938570Z,1697900093938
0.521869421005249,-1.7099438905715942,0.09471604228019714,2023-10-21T14:54:53.949111Z,1697900093949
0.551401674747467,-1.8493573665618896,0.10056928545236588,2023-10-21T14:54:53.958704Z,1697900093958
0.5774751901626587,-1.9830507040023804,0.09870688617229462,2023-10-21T14:54:53.968136Z,1697900093968
0.5976954698562622,-2.101578712463379,0.09125731140375137,2023-10-21T14:54:53.982633Z,1697900093982
0.6090028882026672,-2.1957626342773438,0.08021597564220428,2023-10-21T14:54:53.988450Z,1697900093988
0.6092689633369446,-2.2578868865966797,0.0686425268650055,2023-10-21T14:54:53.999378Z,1697900093999
0.5996909141540527,-2.2820980548858643,0.0614590048789978,2023-10-21T14:54:54.008648Z,1697900094008
0.5834614634513855,-2.265336513519287,0.06491773575544357,2023-10-21T14:54:54.019761Z,1697900094019
0.5660347938537598,-2.2038774490356445,0.08686738461256027,2023-10-21T14:54:54.032425Z,1697900094032
0.5521998405456543,-2.0949273109436035,0.13582174479961395,2023-10-21T14:54:54.039825Z,1697900094039
0.5458145141601562,-1.9382201433181763,0.22029462456703186,2023-10-21T14:54:54.049164Z,1697900094049
0.5496723055839539,-1.7376136779785156,0.344542920589447,2023-10-21T14:54:54.060381Z,1697900094060
0.5665668845176697,-1.50454843044281,0.504176676273346,2023-10-21T14:54:54.069489Z,1697900094069
0.6014202833175659,-1.2548545598983765,0.6872234344482422,2023-10-21T14:54:54.082904Z,1697900094082
0.6602187156677246,-1.0084863901138306,0.8797151446342468,2023-10-21T14:54:54.089727Z,1697900094089
0.7481503486633301,-0.7847330570220947,1.0690141916275024,2023-10-21T14:54:54.100607Z,1697900094100
0.8681417107582092,-0.5979615449905396,1.2428820133209229,2023-10-21T14:54:54.109934Z,1697900094109
1.0204589366912842,-0.45482325553894043,1.3905432224273682,2023-10-21T14:54:54.120950Z,1697900094120
1.2015103101730347,-0.35638242959976196,1.5053465366363525,2023-10-21T14:54:54.132285Z,1697900094132
1.4070388078689575,-0.30330419540405273,1.582502841949463,2023-10-21T14:54:54.141092Z,1697900094141
1.6270673274993896,-0.29997849464416504,1.6044524908065796,2023-10-21T14:54:54.150519Z,1697900094150
1.840577483177185,-0.3513273596763611,1.5372732877731323,2023-10-21T14:54:54.161338Z,1697900094161
2.018968343734741,-0.45189663767814636,1.3558229207992554,2023-10-21T14:54:54.170806Z,1697900094170
2.1414871215820312,-0.5804018378257751,1.071009635925293,2023-10-21T14:54:54.182579Z,1697900094182
2.2058727741241455,-0.7021225690841675,0.7343153953552246,2023-10-21T14:54:54.190978Z,1697900094190
2.2207720279693604,-0.7831367254257202,0.41025882959365845,2023-10-21T14:54:54.202270Z,1697900094202
2.198822259902954,-0.7905862927436829,0.16123011708259583,2023-10-21T14:54:54.211263Z,1697900094211
2.1562533378601074,-0.6979987025260925,0.038445137441158295,2023-10-21T14:54:54.222451Z,1697900094222
2.1118218898773193,-0.49579593539237976,0.07250034064054489,2023-10-21T14:54:54.232190Z,1697900094232
2.081092357635498,-0.19661560654640198,0.26592326164245605,2023-10-21T14:54:54.242457Z,1697900094242
2.06752347946167,0.1585695594549179,0.5756128430366516,2023-10-21T14:54:54.251831Z,1697900094251
2.0630006790161133,0.5172134637832642,0.9280043840408325,2023-10-21T14:54:54.266501Z,1697900094266
2.055551052093506,0.8281002640724182,1.2435472011566162,2023-10-21T14:54:54.272130Z,1697900094272
2.0383903980255127,1.0542480945587158,1.464506983757019,2023-10-21T14:54:54.283853Z,1697900094283
2.0135140419006348,1.1844826936721802,1.572259783744812,2023-10-21T14:54:54.292353Z,1697900094292
1.9853121042251587,1.2279828786849976,1.5771818161010742,2023-10-21T14:54:54.303388Z,1697900094303
1.9563120603561401,1.2090928554534912,1.509204387664795,2023-10-21T14:54:54.315493Z,1697900094315
1.9251834154129028,1.1532210111618042,1.3979928493499756,2023-10-21T14:54:54.323426Z,1697900094323
1.8889997005462646,1.080986738204956,1.265496850013733,2023-10-21T14:54:54.332857Z,1697900094332
1.843770146369934,1.009151577949524,1.1294089555740356,2023-10-21T14:54:54.343677Z,1697900094343
1.7864350080490112,0.9503531455993652,1.0043625831604004,2023-10-21T14:54:54.353133Z,1697900094353
1.716861367225647,0.9137703776359558,0.9011327028274536,2023-10-21T14:54:54.365820Z,1697900094365
1.6371774673461914,0.9028620719909668,0.8250405788421631,2023-10-21T14:54:54.373434Z,1697900094373
1.5508421659469604,0.9156327843666077,0.7770174145698547,2023-10-21T14:54:54.384351Z,1697900094384
1.4626445770263672,0.9458301663398743,0.7530723810195923,2023-10-21T14:54:54.393592Z,1697900094393
1.3779056072235107,0.9853395223617554,0.7472191452980042,2023-10-21T14:54:54.404649Z,1697900094404
1.3006162643432617,1.0257800817489624,0.7530723810195923,2023-10-21T14:54:54.415457Z,1697900094415
1.232771873474121,1.0610325336456299,0.766907274723053,2023-10-21T14:54:54.424969Z,1697900094424
1.1757028102874756,1.087372064590454,0.7867285013198853,2023-10-21T14:54:54.434195Z,1697900094434
1.1307393312454224,1.1020052433013916,0.8121368885040283,2023-10-21T14:54:54.448796Z,1697900094448
1.0978813171386719,1.1047987937927246,0.8439306020736694,2023-10-21T14:54:54.454494Z,1697900094454
1.0759316682815552,1.0974822044372559,0.8822426795959473,2023-10-21T14:54:54.465916Z,1697900094465
1.0622297525405884,1.0853767395019531,0.9288025498390198,2023-10-21T14:54:54.474707Z,1697900094474
1.0525187253952026,1.0761977434158325,0.9873349666595459,2023-10-21T14:54:54.485638Z,1697900094485
1.0400141477584839,1.080055594444275,1.061830759048462,2023-10-21T14:54:54.494843Z,1697900094494
1.0180644989013672,1.1069272756576538,1.1536201238632202,2023-10-21T14:54:54.505930Z,1697900094505
0.9796193242073059,1.164528489112854,1.2608407735824585,2023-10-21T14:54:54.515329Z,1697900094515
0.9194905757904053,1.2576481103897095,1.3801671266555786,2023-10-21T14:54:54.526073Z,1697900094526
0.8360819220542908,1.3869515657424927,1.5062777996063232,2023-10-21T14:54:54.535660Z,1697900094535
0.7317878603935242,1.5479155778884888,1.6323884725570679,2023-10-21T14:54:54.548997Z,1697900094548
0.611796498298645,1.730696201324463,1.7491871118545532,2023-10-21T14:54:54.555784Z,1697900094555
0.4808967709541321,1.9249173402786255,1.846962809562683,2023-10-21T14:54:54.566605Z,1697900094566
0.3425475060939789,2.1233954429626465,1.9179998636245728,2023-10-21T14:54:54.575976Z,1697900094575
0.20007434487342834,2.323070526123047,1.9581743478775024,2023-10-21T14:54:54.586976Z,1697900094586
0.056004852056503296,2.5247414112091064,1.9678854942321777,2023-10-21T14:54:54.598680Z,1697900094598
-0.08606921136379242,2.728008270263672,1.9497935771942139,2023-10-21T14:54:54.607127Z,1697900094607
-0.2145744115114212,2.9139816761016846,1.9222568273544312,2023-10-21T14:54:54.616585Z,1697900094616
-0.3146115839481354,3.0490052700042725,1.9227888584136963,2023-10-21T14:54:54.627419Z,1697900094627
-0.38950642943382263,3.130418539047241,1.9775965213775635,2023-10-21T14:54:54.636890Z,1697900094636
-0.4609425365924835,3.199859142303467,2.0700511932373047,2023-10-21T14:54:54.648878Z,1697900094648
-0.5412915349006653,3.2944421768188477,2.136831283569336,2023-10-21T14:54:54.657112Z,1697900094657
-0.6175166964530945,3.401662826538086,2.1162118911743164,2023-10-21T14:54:54.668050Z,1697900094667
-0.6697967648506165,3.48972749710083,1.9858442544937134,2023-10-21T14:54:54.677247Z,1697900094677
-0.6908152103424072,3.557039737701416,1.7513155937194824,2023-10-21T14:54:54.688334Z,1697900094688
-0.679108738899231,3.6113152503967285,1.4252636432647705,2023-10-21T14:54:54.698633Z,1697900094698
-0.6318837404251099,3.6356594562530518,1.0276424884796143,2023-10-21T14:54:54.708460Z,1697900094708
-0.5539292097091675,3.6000077724456787,0.6052780747413635,2023-10-21T14:54:54.717882Z,1697900094717
-0.4626719057559967,3.495314598083496,0.21829919517040253,2023-10-21T14:54:54.732624Z,1697900094732
-0.37620362639427185,3.3372771739959717,-0.0960463285446167,2023-10-21T14:54:54.738133Z,1697900094738
-0.30210694670677185,3.143721342086792,-0.3376254439353943,2023-10-21T14:54:54.749092Z,1697900094749
-0.23851947486400604,2.923027515411377,-0.525993287563324,2023-10-21T14:54:54.758394Z,1697900094758
-0.18211553990840912,2.6789209842681885,-0.6772463321685791,2023-10-21T14:54:54.769404Z,1697900094769
-0.13316118717193604,2.420048236846924,-0.7983019351959229,2023-10-21T14:54:54.781878Z,1697900094781
-0.09245456755161285,2.1553220748901367,-0.8904904723167419,2023-10-21T14:54:54.789493Z,1697900094789
-0.05999569594860077,1.8919264078140259,-0.9575366377830505,2023-10-21T14:54:54.798934Z,1697900094798
-0.03485337644815445,1.6350489854812622,-1.0050276517868042,2023-10-21T14:54:54.809759Z,1697900094809
-0.016495490446686745,1.3884148597717285,-1.0380187034606934,2023-10-21T14:54:54.819281Z,1697900094819
-0.004522957373410463,1.15468430519104,-1.0594362020492554,2023-10-21T14:54:54.832247Z,1697900094832
0.002128450432792306,0.9345227479934692,-1.0722068548202515,2023-10-21T14:54:54.839513Z,1697900094839
0.005188097711652517,0.726333737373352,-1.0801886320114136,2023-10-21T14:54:54.850362Z,1697900094850
0.0070504918694496155,0.5266584753990173,-1.0879042148590088,2023-10-21T14:54:54.859638Z,1697900094859
0.009578026831150055,0.3315061628818512,-1.0994776487350464,2023-10-21T14:54:54.870682Z,1697900094870
0.013302815146744251,0.13914744555950165,-1.116904377937317,2023-10-21T14:54:54.881657Z,1697900094881
0.01822485774755478,-0.04922041669487953,-1.1403173208236694,2023-10-21T14:54:54.890812Z,1697900094890
0.022348729893565178,-0.22894145548343658,-1.1674550771713257,2023-10-21T14:54:54.900256Z,1697900094900
0.022082673385739326,-0.3933642506599426,-1.195124864578247,2023-10-21T14:54:54.911066Z,1697900094911
0.014899153262376785,-0.5361034274101257,-1.218803882598877,2023-10-21T14:54:54.920582Z,1697900094920
3.990844707004726E-4,-0.6531682014465332,-1.2351664304733276,2023-10-21T14:54:54.931917Z,1697900094931
-0.02101844735443592,-0.7440264821052551,-1.2423498630523682,2023-10-21T14:54:54.940746Z,1697900094940
-0.049752529710531235,-0.811870813369751,-1.2395563125610352,2023-10-21T14:54:54.951716Z,1697900094951
-0.08580315858125687,-0.8609582185745239,-1.2269186973571777,2023-10-21T14:54:54.960918Z,1697900094960
-0.1273079365491867,-0.8956785202026367,-1.2047029733657837,2023-10-21T14:54:54.972005Z,1697900094971
-0.172404482960701,-0.9185593724250793,-1.1734412908554077,2023-10-21T14:54:54.981800Z,1697900094981
-0.21936342120170593,-0.9311970472335815,-1.1333998441696167,2023-10-21T14:54:54.992122Z,1697900094992
-0.266854465007782,-0.933724582195282,-1.0853767395019531,2023-10-21T14:54:55.001580Z,1697900095001
-0.31474462151527405,-0.9250777959823608,-1.0311012268066406,2023-10-21T14:54:55.015494Z,1697900095015
-0.36369895935058594,-0.9043253660202026,-0.9735000133514404,2023-10-21T14:54:55.021802Z,1697900095021
-0.4137175381183624,-0.8713343739509583,-0.9160318374633789,2023-10-21T14:54:55.032666Z,1697900095032
-0.4638691544532776,-0.8283662796020508,-0.8629536032676697,2023-10-21T14:54:55.042015Z,1697900095041
-0.5126904845237732,-0.7787467837333679,-0.818256139755249,2023-10-21T14:54:55.053019Z,1697900095052
-0.559117317199707,-0.726466715335846,-0.7853981852531433,2023-10-21T14:54:55.065064Z,1697900095065
-0.6015533208847046,-0.6743196845054626,-0.7663751840591431,2023-10-21T14:54:55.073200Z,1697900095073
-0.6395993828773499,-0.6247001886367798,-0.7609210014343262,2023-10-21T14:54:55.082619Z,1697900095082
-0.6732555031776428,-0.5797367095947266,-0.7679715156555176,2023-10-21T14:54:55.093485Z,1697900095093
-0.7026547193527222,-0.541424572467804,-0.7851321697235107,2023-10-21T14:54:55.102935Z,1697900095102
-0.7279300689697266,-0.5114932656288147,-0.8100084066390991,2023-10-21T14:54:55.115293Z,1697900095115
-0.7489485144615173,-0.4907408654689789,-0.8394076228141785,2023-10-21T14:54:55.123181Z,1697900095123
-0.7650449275970459,-0.4790343642234802,-0.8700041174888611,2023-10-21T14:54:55.134087Z,1697900095134
-0.7759532332420349,-0.47610774636268616,-0.8986051678657532,2023-10-21T14:54:55.143343Z,1697900095143
-0.7824715971946716,-0.4819609820842743,-0.9226832389831543,2023-10-21T14:54:55.154381Z,1697900095154
-0.7851321697235107,-0.4961950182914734,-0.941839337348938,2023-10-21T14:54:55.164929Z,1697900095164
-0.7836688160896301,-0.5177455544471741,-0.9564723968505859,2023-10-21T14:54:55.174593Z,1697900095174
-0.7787467837333679,-0.5456814765930176,-0.9672476649284363,2023-10-21T14:54:55.183939Z,1697900095183
-0.7711641788482666,-0.5792045593261719,-0.9738991260528564,2023-10-21T14:54:55.194777Z,1697900095194
-0.7617192268371582,-0.6172506213188171,-0.977756917476654,2023-10-21T14:54:55.204283Z,1697900095204
-0.7506778836250305,-0.6587554216384888,-0.9809495806694031,2023-10-21T14:54:55.215346Z,1697900095215
-0.7384392619132996,-0.7031868100166321,-0.985472559928894,2023-10-21T14:54:55.224421Z,1697900095224
-0.7256685495376587,-0.7500126957893372,-0.9923900365829468,2023-10-21T14:54:55.235637Z,1697900095235
-0.7122327089309692,-0.7983019351959229,-1.0014358758926392,2023-10-21T14:54:55.248209Z,1697900095248
-0.6987968683242798,-0.8460590243339539,-1.0114130973815918,2023-10-21T14:54:55.255685Z,1697900095255
-0.685893177986145,-0.8900913596153259,-1.0212571620941162,2023-10-21T14:54:55.264953Z,1697900095264
-0.6743196845054626,-0.9266741275787354,-1.0295048952102661,2023-10-21T14:54:55.275934Z,1697900095275
-0.6656728982925415,-0.9528806805610657,-1.0352250337600708,2023-10-21T14:54:55.285307Z,1697900095285
-0.6622141599655151,-0.9660504460334778,-1.038151741027832,2023-10-21T14:54:55.298567Z,1697900095298
-0.6648747324943542,-0.9657843708992004,-1.0386837720870972,2023-10-21T14:54:55.305502Z,1697900095305
-0.6728563904762268,-0.9538118243217468,-1.037353515625,2023-10-21T14:54:55.316578Z,1697900095316
-0.6840307712554932,-0.9333255290985107,-1.0352250337600708,2023-10-21T14:54:55.325740Z,1697900095325
-0.6969344615936279,-0.9089813828468323,-1.0336287021636963,2023-10-21T14:54:55.336945Z,1697900095336
-0.7106363773345947,-0.8851693272590637,-1.0334956645965576,2023-10-21T14:54:55.349382Z,1697900095349
-0.7239391803741455,-0.8650820851325989,-1.0354911088943481,2023-10-21T14:54:55.357264Z,1697900095357
-0.7359117269515991,-0.8496508002281189,-1.0393489599227905,2023-10-21T14:54:55.366359Z,1697900095366
-0.7461549043655396,-0.837811291217804,-1.04453706741333,2023-10-21T14:54:55.377420Z,1697900095377
-0.7553338408470154,-0.8281002640724182,-1.0503902435302734,2023-10-21T14:54:55.386629Z,1697900095386
-0.7643797397613525,-0.819187343120575,-1.0566426515579224,2023-10-21T14:54:55.398746Z,1697900095398
-0.7743569016456604,-0.8100084066390991,-1.0632940530776978,2023-10-21T14:54:55.406862Z,1697900095406
-0.7865954637527466,-0.7992331385612488,-1.0707435607910156,2023-10-21T14:54:55.418005Z,1697900095417
-0.8024258017539978,-0.7857972979545593,-1.0796564817428589,2023-10-21T14:54:55.426990Z,1697900095426
-0.8222470283508301,-0.7694348096847534,-1.0906977653503418,2023-10-21T14:54:55.438346Z,1697900095438
-0.8460590243339539,-0.7508108615875244,-1.1038676500320435,2023-10-21T14:54:55.447865Z,1697900095447
-0.8730637431144714,-0.7311227321624756,-1.1188998222351074,2023-10-21T14:54:55.458311Z,1697900095458
-0.9021969437599182,-0.7119666934013367,-1.1345970630645752,2023-10-21T14:54:55.467650Z,1697900095467
-0.9314631223678589,-0.6949390769004822,-1.1493632793426514,2023-10-21T14:54:55.481986Z,1697900095481
-0.9584678411483765,-0.6817692518234253,-1.1618678569793701,2023-10-21T14:54:55.487922Z,1697900095487
-0.9820138216018677,-0.6739206314086914,-1.1710468530654907,2023-10-21T14:54:55.499018Z,1697900095498
-1.0018349885940552,-0.6724573373794556,-1.17729914188385,2023-10-21T14:54:55.508123Z,1697900095508
-1.0180644989013672,-0.6765812039375305,-1.1820881366729736,2023-10-21T14:54:55.519401Z,1697900095519
-1.0316333770751953,-0.6848289370536804,-1.1866111755371094,2023-10-21T14:54:55.531352Z,1697900095531
-1.0442709922790527,-0.6953381299972534,-1.1911340951919556,2023-10-21T14:54:55.539437Z,1697900095539
-1.0571746826171875,-0.7065125107765198,-1.194592833518982,2023-10-21T14:54:55.548676Z,1697900095548
-1.0700784921646118,-0.7171547412872314,-1.1947258710861206,2023-10-21T14:54:55.559694Z,1697900095559
-1.0812528133392334,-0.7265997529029846,-1.1898038387298584,2023-10-21T14:54:55.568995Z,1697900095568
-1.0887024402618408,-0.7343153953552246,-1.1782302856445312,2023-10-21T14:54:55.581910Z,1697900095581
-1.0913629531860352,-0.7408337593078613,-1.1596064567565918,2023-10-21T14:54:55.589252Z,1697900095589
-1.089234471321106,-0.7468200325965881,-1.1347301006317139,2023-10-21T14:54:55.600278Z,1697900095600
-1.0827161073684692,-0.752274215221405,-1.1058629751205444,2023-10-21T14:54:55.609460Z,1697900095609
-1.0723398923873901,-0.7574623227119446,-1.0752665996551514,2023-10-21T14:54:55.620655Z,1697900095620
-1.0589040517807007,-0.7626503705978394,-1.0450692176818848,2023-10-21T14:54:55.631521Z,1697900095631
-1.0444040298461914,-0.7687696814537048,-1.0166010856628418,2023-10-21T14:54:55.640575Z,1697900095640
-1.0297709703445435,-0.7759532332420349,-0.9899954795837402,2023-10-21T14:54:55.650039Z,1697900095650
-1.0150047540664673,-0.7842009663581848,-0.9652522802352905,2023-10-21T14:54:55.660790Z,1697900095660
-0.9994404911994934,-0.7935129404067993,-0.9423714280128479,2023-10-21T14:54:55.670345Z,1697900095670
-0.9824128746986389,-0.804554283618927,-0.9221511483192444,2023-10-21T14:54:55.681803Z,1697900095681
-0.9637889862060547,-0.8177240490913391,-0.9049904942512512,2023-10-21T14:54:55.690561Z,1697900095690
-0.9438347220420837,-0.8322241306304932,-0.8908895254135132,2023-10-21T14:54:55.701624Z,1697900095701
-0.9229493141174316,-0.8468571901321411,-0.8797151446342468,2023-10-21T14:54:55.714606Z,1697900095714
-0.9019308686256409,-0.8613572716712952,-0.8712013959884644,2023-10-21T14:54:55.721727Z,1697900095721
-0.8805133104324341,-0.8753252625465393,-0.864150881767273,2023-10-21T14:54:55.731216Z,1697900095731
-0.8580315709114075,-0.8878298997879028,-0.8567013144493103,2023-10-21T14:54:55.741975Z,1697900095741
-0.8339534997940063,-0.8979400396347046,-0.8469902276992798,2023-10-21T14:54:55.751435Z,1697900095751
-0.8072148561477661,-0.9047244787216187,-0.8332883715629578,2023-10-21T14:54:55.764935Z,1697900095764
-0.7766183614730835,-0.9072520136833191,-0.8150634765625,2023-10-21T14:54:55.771574Z,1697900095771
-0.7410998344421387,-0.904192328453064,-0.7913844585418701,2023-10-21T14:54:55.782565Z,1697900095782
-0.700526237487793,-0.8948803544044495,-0.7621182799339294,2023-10-21T14:54:55.791838Z,1697900095791
-0.6556957364082336,-0.8799812197685242,-0.726865828037262,2023-10-21T14:54:55.803118Z,1697900095803
-0.5862550735473633,-0.80734783411026,-0.655961811542511,2023-10-21T14:54:55.814459Z,1697900095814
-0.5379658341407776,-0.7904532551765442,-0.6143240332603455,2023-10-21T14:54:55.823221Z,1697900095823
-0.5102959871292114,-0.8215818405151367,-0.5986266732215881,2023-10-21T14:54:55.832437Z,1697900095832
-0.4598783254623413,-0.7897881269454956,-0.548209011554718,2023-10-21T14:54:55.843406Z,1697900095843
-0.41185516119003296,-0.7577283382415771,-0.500052809715271,2023-10-21T14:54:55.852725Z,1697900095852
-0.36742374300956726,-0.7262006998062134,-0.45615354180336,2023-10-21T14:54:55.865242Z,1697900095865
-0.3211299479007721,-0.6586223840713501,-0.4034743905067444,2023-10-21T14:54:55.872898Z,1697900095872
-0.28734081983566284,-0.6340121626853943,-0.3719467222690582,2023-10-21T14:54:55.883980Z,1697900095883
-0.2584736943244934,-0.6128606796264648,-0.34494200348854065,2023-10-21T14:54:55.893081Z,1697900095893
-0.2365240603685379,-0.5817320942878723,-0.3221941888332367,2023-10-21T14:54:55.904263Z,1697900095904
-0.21776708960533142,-0.5552595257759094,-0.30277207493782043,2023-10-21T14:54:55.914391Z,1697900095914
-0.1859733611345291,-0.474112331867218,-0.2586067318916321,2023-10-21T14:54:55.924313Z,1697900095924
-0.1861063838005066,-0.4616076946258545,-0.2523544132709503,2023-10-21T14:54:55.933721Z,1697900095933
-0.18623940646648407,-0.45083239674568176,-0.24716630578041077,2023-10-21T14:54:55.948229Z,1697900095948
-0.159101665019989,-0.38498347997665405,-0.21111567318439484,2023-10-21T14:54:55.953997Z,1697900095953
-0.13582174479961395,-0.3288455903530121,-0.18025314807891846,2023-10-21T14:54:55.964944Z,1697900095964
-0.11600054800510406,-0.28082242608070374,-0.15391357243061066,2023-10-21T14:54:55.974193Z,1697900095974
-0.09910597652196884,-0.2398497611284256,-0.13143181800842285,2023-10-21T14:54:55.985329Z,1697900095985
-0.08460590243339539,-0.20486335456371307,-0.11227575689554214,2023-10-21T14:54:55.997620Z,1697900095997
-0.07223428785800934,-0.17493201792240143,-0.09591329842805862,2023-10-21T14:54:56.005314Z,1697900096005
-0.061725061386823654,-0.14939060807228088,-0.08194534480571747,2023-10-21T14:54:56.014787Z,1697900096014
-0.04083964228630066,-0.17546413838863373,-0.1009683683514595,2023-10-21T14:54:56.025610Z,1697900096025
-0.02288084290921688,-0.19781285524368286,-0.11733082681894302,2023-10-21T14:54:56.035098Z,1697900096035
0.0055871824733912945,-0.17094117403030396,-0.10655555129051208,2023-10-21T14:54:56.047950Z,1697900096047
0.029931334778666496,-0.14792729914188385,-0.09737660735845566,2023-10-21T14:54:56.055290Z,1697900096055
0.05494062602519989,-0.11919322609901428,-0.08859674632549286,2023-10-21T14:54:56.066306Z,1697900096066
0.07622513175010681,-0.09471604228019714,-0.08114717155694962,2023-10-21T14:54:56.075515Z,1697900096075
0.09804175049066544,-0.06598196178674698,-0.0740966796875,2023-10-21T14:54:56.086653Z,1697900096086
0.11653266102075577,-0.04150478169322014,-0.06797738373279572,2023-10-21T14:54:56.097453Z,1697900096097
0.13755111396312714,-0.018756968900561333,-0.05972963944077492,2023-10-21T14:54:56.106672Z,1697900096106
0.17812469601631165,0.009977111592888832,-0.05108281224966049,2023-10-21T14:54:56.116118Z,1697900096116
0.20113857090473175,0.028334995731711388,-0.03817908093333244,2023-10-21T14:54:56.126851Z,1697900096126
0.22894145548343658,0.04762407764792442,-0.021417532116174698,2023-10-21T14:54:56.136400Z,1697900096136
0.2608681917190552,0.06983978301286697,1.3302815204951912E-4,2023-10-21T14:54:56.148002Z,1697900096147
0.2942582666873932,0.09631238132715225,0.02633957378566265,2023-10-21T14:54:56.156622Z,1697900096156
0.32578593492507935,0.127840057015419,0.056669991463422775,2023-10-21T14:54:56.167680Z,1697900096167
0.35265764594078064,0.16548702120780945,0.09019308537244797,2023-10-21T14:54:56.176736Z,1697900096176
0.37301093339920044,0.20951934158802032,0.12637674808502197,2023-10-21T14:54:56.188012Z,1697900096187
0.3869788944721222,0.2584736943244934,0.1646888554096222,2023-10-21T14:54:56.197562Z,1697900096197
0.39589178562164307,0.30915743112564087,0.20340004563331604,2023-10-21T14:54:56.208046Z,1697900096208
0.40147897601127625,0.3589099645614624,0.23971672356128693,2023-10-21T14:54:56.217473Z,1697900096217
0.4050707221031189,0.4049376845359802,0.2711113691329956,2023-10-21T14:54:56.231500Z,1697900096231
0.40813037753105164,0.44524523615837097,0.2969188392162323,2023-10-21T14:54:56.237660Z,1697900096237
0.41252028942108154,0.47876831889152527,0.3167400360107422,2023-10-21T14:54:56.248641Z,1697900096248
0.4199698865413666,0.5051078796386719,0.33017587661743164,2023-10-21T14:54:56.257899Z,1697900096257
0.4307451546192169,0.5245299935340881,0.33682727813720703,2023-10-21T14:54:56.268975Z,1697900096268
0.4428507089614868,0.5387639999389648,0.33682727813720703,2023-10-21T14:54:56.280835Z,1697900096280
0.45375901460647583,0.5503374934196472,0.33124008774757385,2023-10-21T14:54:56.289005Z,1697900096288
0.46120861172676086,0.5609797239303589,0.3215290307998657,2023-10-21T14:54:56.298442Z,1697900096298
0.46400219202041626,0.5718880295753479,0.30796018242836,2023-10-21T14:54:56.309252Z,1697900096309
0.4617407023906708,0.5839936137199402,0.2909325659275055,2023-10-21T14:54:56.318792Z,1697900096318
0.45375901460647583,0.5975624322891235,0.27137744426727295,2023-10-21T14:54:56.331237Z,1697900096331
0.44072225689888,0.6121955513954163,0.2514232099056244,2023-10-21T14:54:56.338950Z,1697900096338
0.42622220516204834,0.6278928518295288,0.23240017890930176,2023-10-21T14:54:56.349958Z,1697900096349
0.41451573371887207,0.6437232494354248,0.21470743417739868,2023-10-21T14:54:56.359128Z,1697900096359
0.40759825706481934,0.6568930149078369,0.1975468099117279,2023-10-21T14:54:56.370345Z,1697900096370
0.4057358503341675,0.6652737855911255,0.18038617074489594,2023-10-21T14:54:56.380672Z,1697900096380
0.4078643023967743,0.6693976521492004,0.16335856914520264,2023-10-21T14:54:56.390323Z,1697900096390
0.4127863645553589,0.6712600588798523,0.14739519357681274,2023-10-21T14:54:56.399803Z,1697900096399
0.41970381140708923,0.6729894280433655,0.13356027007102966,2023-10-21T14:54:56.414431Z,1697900096414
0.42781853675842285,0.6784435510635376,0.12358315289020538,2023-10-21T14:54:56.420085Z,1697900096420
0.4368644654750824,0.6917464137077332,0.11985836178064346,2023-10-21T14:54:56.431060Z,1697900096431
0.44591036438941956,0.7151593565940857,0.12464737892150879,2023-10-21T14:54:56.440270Z,1697900096440
0.45415809750556946,0.7489485144615173,0.13967956602573395,2023-10-21T14:54:56.451412Z,1697900096451
0.46080952882766724,0.7916505336761475,0.16389068961143494,2023-10-21T14:54:56.464061Z,1697900096464
0.46466732025146484,0.8416691422462463,0.1942211091518402,2023-10-21T14:54:56.471460Z,1697900096471
0.4633370637893677,0.8970088362693787,0.22641392052173615,2023-10-21T14:54:56.480804Z,1697900096480
0.45482325553894043,0.9567384719848633,0.25607919692993164,2023-10-21T14:54:56.491681Z,1697900096491
0.4384607970714569,1.0209910869598389,0.28015729784965515,2023-10-21T14:54:56.501171Z,1697900096501
0.415047824382782,1.089234471321106,0.2974509596824646,2023-10-21T14:54:56.514571Z,1697900096514
0.38711193203926086,1.1593403816223145,0.3083592653274536,2023-10-21T14:54:56.521354Z,1697900096521
0.35864388942718506,1.22878098487854,0.315010666847229,2023-10-21T14:54:56.532415Z,1697900096532
0.3346988260746002,1.2948960065841675,0.3199326992034912,2023-10-21T14:54:56.541587Z,1697900096541
0.3194005787372589,1.355157732963562,0.32525384426116943,2023-10-21T14:54:56.552709Z,1697900096552
0.31487762928009033,1.408236026763916,0.33177220821380615,2023-10-21T14:54:56.563936Z,1697900096563
0.32073086500167847,1.4535986185073853,0.33988693356513977,2023-10-21T14:54:56.572712Z,1697900096572
0.3337676227092743,1.493373990058899,0.3501301109790802,2023-10-21T14:54:56.582165Z,1697900096582
0.34999707341194153,1.5330164432525635,0.36356595158576965,2023-10-21T14:54:56.592963Z,1697900096592
0.3655613660812378,1.5802414417266846,0.3819238245487213,2023-10-21T14:54:56.602478Z,1697900096602
0.3771347999572754,1.6402370929718018,0.40799733996391296,2023-10-21T14:54:56.614325Z,1697900096614
0.3825889527797699,1.7131365537643433,0.44497916102409363,2023-10-21T14:54:56.622650Z,1697900096622
0.3835201561450958,1.7966781854629517,0.49539685249328613,2023-10-21T14:54:56.633698Z,1697900096633
0.3841853141784668,1.8867383003234863,0.559117317199707,2023-10-21T14:54:56.642830Z,1697900096642
0.3884422183036804,1.9765323400497437,0.6326819062232971,2023-10-21T14:54:56.654006Z,1697900096653
0.3974881172180176,2.0556840896606445,0.7089070081710815,2023-10-21T14:54:56.663912Z,1697900096663
0.4117221236228943,2.1136844158172607,0.7795449495315552,2023-10-21T14:54:56.673990Z,1697900096673
0.4308781921863556,2.1434826850891113,0.8376782536506653,2023-10-21T14:54:56.683650Z,1697900096683
0.45535537600517273,2.1422853469848633,0.8789169788360596,2023-10-21T14:54:56.697673Z,1697900096697
0.4852867126464844,2.109959602355957,0.9012657403945923,2023-10-21T14:54:56.703702Z,1697900096703
0.5202730894088745,2.0475692749023438,0.9047244787216187,2023-10-21T14:54:56.714696Z,1697900096714
0.5588512420654297,1.957775354385376,0.8911556005477905,2023-10-21T14:54:56.723958Z,1697900096723
0.5994248390197754,1.8444353342056274,0.8630866408348083,2023-10-21T14:54:56.735054Z,1697900096735
0.6406635642051697,1.7140676975250244,0.8234442472457886,2023-10-21T14:54:56.747247Z,1697900096747
0.680971086025238,1.5734570026397705,0.7738247513771057,2023-10-21T14:54:56.755080Z,1697900096755
0.7183520197868347,1.430052638053894,0.7148932814598083,2023-10-21T14:54:56.764519Z,1697900096764
0.7502787709236145,1.289707899093628,0.6469159126281738,2023-10-21T14:54:56.775333Z,1697900096775
0.7754210829734802,1.1568127870559692,0.5706907510757446,2023-10-21T14:54:56.784837Z,1697900096784
0.793645977973938,1.0332297086715698,0.4874151349067688,2023-10-21T14:54:56.797568Z,1697900096797
0.8064166307449341,0.9168300032615662,0.39881840348243713,2023-10-21T14:54:56.805037Z,1697900096805
0.8163937926292419,0.8024258017539978,0.3058317303657532,2023-10-21T14:54:56.816090Z,1697900096816
0.825971782207489,0.6852279901504517,0.20818905532360077,2023-10-21T14:54:56.825274Z,1697900096825
0.8362149596214294,0.563640296459198,0.10495921224355698,2023-10-21T14:54:56.836422Z,1697900096836
0.8465911746025085,0.44112133979797363,-0.0027935912366956472,2023-10-21T14:54:56.847135Z,1697900096847
0.8545728325843811,0.3244556486606598,-0.11294090002775192,2023-10-21T14:54:56.856355Z,1697900096856
0.8549719452857971,0.22202397882938385,-0.22242307662963867,2023-10-21T14:54:56.865894Z,1697900096865
0.8427333235740662,0.1415419578552246,-0.3288455903530121,2023-10-21T14:54:56.876962Z,1697900096876
0.8147974610328674,0.08859674632549286,-0.43061211705207825,2023-10-21T14:54:56.886213Z,1697900096886
0.771430253982544,0.06425260007381439,-0.5267914533615112,2023-10-21T14:54:56.897463Z,1697900096897
0.7160905599594116,0.06425260007381439,-0.6164524555206299,2023-10-21T14:54:56.906365Z,1697900096906
0.6538333892822266,0.08101414144039154,-0.69773268699646,2023-10-21T14:54:56.917454Z,1697900096917
0.5918422341346741,0.10642252117395401,-0.7686366438865662,2023-10-21T14:54:56.926554Z,1697900096926
0.5354382991790771,0.1332942098379135,-0.827302098274231,2023-10-21T14:54:56.937708Z,1697900096937
0.4867500066757202,0.15404659509658813,-0.8717334866523743,2023-10-21T14:54:56.947098Z,1697900096947
0.44591036438941956,0.16216132044792175,-0.9002014994621277,2023-10-21T14:54:56.957783Z,1697900096957
0.4126533269882202,0.15444567799568176,-0.9140364527702332,2023-10-21T14:54:56.967287Z,1697900096967
0.38604769110679626,0.1306336522102356,-0.9180272817611694,2023-10-21T14:54:56.980721Z,1697900096980
0.3644971251487732,0.091656394302845,-0.9182933568954468,2023-10-21T14:54:56.987413Z,1697900096987
0.3458732068538666,0.03924330323934555,-0.9193575382232666,2023-10-21T14:54:56.998360Z,1697900096998
0.32857954502105713,-0.02514232136309147,-0.9229493141174316,2023-10-21T14:54:57.007646Z,1697900097007
0.3107537627220154,-0.0993720293045044,-0.929600715637207,2023-10-21T14:54:57.018748Z,1697900097018
0.29106560349464417,-0.18238160014152527,-0.9375824332237244,2023-10-21T14:54:57.030348Z,1697900097030
0.26871687173843384,-0.27097833156585693,-0.9442338347434998,2023-10-21T14:54:57.038777Z,1697900097038
0.24517089128494263,-0.36024022102355957,-0.9466283321380615,2023-10-21T14:54:57.048224Z,1697900097048
0.2222900390625,-0.44497916102409363,-0.9423714280128479,2023-10-21T14:54:57.058993Z,1697900097058
0.20100553333759308,-0.521869421005249,-0.930531919002533,2023-10-21T14:54:57.068562Z,1697900097068
0.1811843365430832,-0.5894477367401123,-0.9116419553756714,2023-10-21T14:54:57.080696Z,1697900097080
0.16349159181118011,-0.6458516716957092,-0.8868986964225769,2023-10-21T14:54:57.088734Z,1697900097088
0.14952364563941956,-0.689617931842804,-0.8584306836128235,2023-10-21T14:54:57.099843Z,1697900097099
0.1394135057926178,-0.7231410145759583,-0.8283662796020508,2023-10-21T14:54:57.108943Z,1697900097108
0.1316978633403778,-0.7516090869903564,-0.7984349727630615,2023-10-21T14:54:57.120092Z,1697900097120
0.12478040903806686,-0.7802101373672485,-0.7707651257514954,2023-10-21T14:54:57.130228Z,1697900097130
0.11759688705205917,-0.8124029040336609,-0.7470861077308655,2023-10-21T14:54:57.140040Z,1697900097140
0.1092161163687706,-0.8503159284591675,-0.7287282347679138,2023-10-21T14:54:57.149573Z,1697900097149
0.09857386350631714,-0.8926188945770264,-0.7152923941612244,2023-10-21T14:54:57.164472Z,1697900097164
0.08593618869781494,-0.9351879358291626,-0.7057143449783325,2023-10-21T14:54:57.169849Z,1697900097169
0.0730324536561966,-0.9721697568893433,-0.6972005367279053,2023-10-21T14:54:57.180782Z,1697900097180
0.06185809150338173,-0.9985092878341675,-0.685494065284729,2023-10-21T14:54:57.190051Z,1697900097190
0.05427548661828041,-1.0116790533065796,-0.6662049889564514,2023-10-21T14:54:57.201196Z,1697900097201
0.05188097804784775,-1.0116790533065796,-0.6352094411849976,2023-10-21T14:54:57.213521Z,1697900097213
0.05680302157998085,-0.9987753629684448,-0.5914431810379028,2023-10-21T14:54:57.221153Z,1697900097221
0.07037189602851868,-0.9742981791496277,-0.5361034274101257,2023-10-21T14:54:57.230590Z,1697900097230
0.09192245453596115,-0.9415732622146606,-0.47278204560279846,2023-10-21T14:54:57.241359Z,1697900097241
0.11706477403640747,-0.9079171419143677,-0.4056028425693512,2023-10-21T14:54:57.250949Z,1697900097250
0.14180800318717957,-0.8803803324699402,-0.3397538959980011,2023-10-21T14:54:57.263848Z,1697900097263
0.16375765204429626,-0.863219678401947,-0.27909305691719055,2023-10-21T14:54:57.271084Z,1697900097271
0.18091829121112823,-0.8584306836128235,-0.22601483762264252,2023-10-21T14:54:57.282107Z,1697900097282
0.19249173998832703,-0.8680086731910706,-0.1805192083120346,2023-10-21T14:54:57.291335Z,1697900097291
0.19901011884212494,-0.8939492106437683,-0.14180800318717957,2023-10-21T14:54:57.302469Z,1697900097302
0.2031339854001999,-0.9347888231277466,-0.10895005613565445,2023-10-21T14:54:57.313287Z,1697900097313
0.20832209289073944,-0.9869358539581299,-0.07994992285966873,2023-10-21T14:54:57.322458Z,1697900097322
0.21750102937221527,-1.0471975803375244,-0.05201400816440582,2023-10-21T14:54:57.331908Z,1697900097331
0.23253321647644043,-1.114243745803833,-0.02261478640139103,2023-10-21T14:54:57.342818Z,1697900097342
0.2551479935646057,-1.1878083944320679,0.00944499857723713,2023-10-21T14:54:57.352258Z,1697900097352
0.2874738276004791,-1.2674921751022339,0.0433671772480011,2023-10-21T14:54:57.363899Z,1697900097363
0.32964375615119934,-1.3528963327407837,0.07715632766485214,2023-10-21T14:54:57.372402Z,1697900097372
0.38006141781806946,-1.4441536664962769,0.1086840033531189,2023-10-21T14:54:57.383579Z,1697900097383
0.43606626987457275,-1.5396678447723389,0.13515660166740417,2023-10-21T14:54:57.392587Z,1697900097392
0.4956628978252411,-1.6367783546447754,0.1531154066324234,2023-10-21T14:54:57.403829Z,1697900097403
0.5553925633430481,-1.732425570487976,0.16123011708259583,2023-10-21T14:54:57.413351Z,1697900097413
0.6098010540008545,-1.823416829109192,0.16043195128440857,2023-10-21T14:54:57.423781Z,1697900097423
0.652237057685852,-1.9064264297485352,0.15165209770202637,2023-10-21T14:54:57.433250Z,1697900097433
0.6776453852653503,-1.9786607027053833,0.1332942098379135,2023-10-21T14:54:57.447021Z,1697900097446
0.681902289390564,-2.0419821739196777,0.1009683683514595,2023-10-21T14:54:57.453504Z,1697900097453
0.6628792881965637,-2.099982500076294,0.04868830367922783,2023-10-21T14:54:57.464484Z,1697900097464
0.6225717663764954,-2.152794599533081,-0.02381203882396221,2023-10-21T14:54:57.473689Z,1697900097473
0.5680302381515503,-2.1937673091888428,-0.10668858140707016,2023-10-21T14:54:57.484821Z,1697900097484
0.5156171321868896,-2.2094645500183105,-0.18038617074489594,2023-10-21T14:54:57.496650Z,1697900097496
0.48448851704597473,-2.1871159076690674,-0.22481757402420044,2023-10-21T14:54:57.504815Z,1697900097504
0.48502063751220703,-2.1216659545898438,-0.22840933501720428,2023-10-21T14:54:57.514269Z,1697900097514
0.5128235220909119,-2.0172388553619385,-0.18956512212753296,2023-10-21T14:54:57.525031Z,1697900097525
0.5577870607376099,-1.8818162679672241,-0.1146702691912651,2023-10-21T14:54:57.534598Z,1697900097534
0.6147230863571167,-1.7215173244476318,-0.011706477031111717,2023-10-21T14:54:57.546988Z,1697900097546
0.6828334927558899,-1.541796326637268,0.1125418171286583,2023-10-21T14:54:57.554799Z,1697900097554
0.7601228356361389,-1.3486393690109253,0.2535516619682312,2023-10-21T14:54:57.565797Z,1697900097565
0.8453938961029053,-1.1435099840164185,0.411589115858078,2023-10-21T14:54:57.574974Z,1697900097574
0.9422383904457092,-0.9224172234535217,0.5919752717018127,2023-10-21T14:54:57.586107Z,1697900097586
1.0571746826171875,-0.6795077919960022,0.807746946811676,2023-10-21T14:54:57.596496Z,1697900097596
1.1992487907409668,-0.41451573371887207,1.073803186416626,2023-10-21T14:54:57.606119Z,1697900097606
1.378570795059204,-0.14686307311058044,1.383625864982605,2023-10-21T14:54:57.615614Z,1697900097615
1.5938103199005127,0.0862022414803505,1.6926501989364624,2023-10-21T14:54:57.630286Z,1697900097630
1.8146370649337769,0.2387855350971222,1.9189311265945435,2023-10-21T14:54:57.635896Z,1697900097635
1.9976837635040283,0.27842792868614197,1.9809222221374512,2023-10-21T14:54:57.646939Z,1697900097646
2.116744041442871,0.2052624374628067,1.849224328994751,2023-10-21T14:54:57.656104Z,1697900097656
2.1746110916137695,0.04908738657832146,1.5588239431381226,2023-10-21T14:54:57.667445Z,1697900097667
2.181661605834961,-0.13595476746559143,1.1892716884613037,2023-10-21T14:54:57.679986Z,1697900097679
2.1398909091949463,-0.2919968068599701,0.8211827874183655,2023-10-21T14:54:57.687232Z,1697900097687
2.0604729652404785,-0.3695521950721741,0.5279887318611145,2023-10-21T14:54:57.696623Z,1697900097696
1.969614863395691,-0.33403369784355164,0.37434121966362,2023-10-21T14:54:57.707496Z,1697900097707
1.8941878080368042,-0.17905589938163757,0.39096975326538086,2023-10-21T14:54:57.716982Z,1697900097716
1.8412426710128784,0.07037189602851868,0.5543283224105835,2023-10-21T14:54:57.730170Z,1697900097730
1.7989397048950195,0.3599741756916046,0.790054202079773,2023-10-21T14:54:57.737178Z,1697900097737
1.7558386325836182,0.633213996887207,1.0189956426620483,2023-10-21T14:54:57.748205Z,1697900097748
1.7099438905715942,0.8497838377952576,1.1875423192977905,2023-10-21T14:54:57.757339Z,1697900097757
1.66817307472229,0.9913257956504822,1.2753409147262573,2023-10-21T14:54:57.768502Z,1697900097768
1.641567349433899,1.0590370893478394,1.2902400493621826,2023-10-21T14:54:57.779785Z,1697900097779
1.63837468624115,1.064624309539795,1.2537903785705566,2023-10-21T14:54:57.788468Z,1697900097788
1.66098952293396,1.0240507125854492,1.189936876296997,2023-10-21T14:54:57.797972Z,1697900097797
1.7058199644088745,0.9503531455993652,1.1137117147445679,2023-10-21T14:54:57.808768Z,1697900097808
1.7642194032669067,0.8535086512565613,1.0308351516723633,2023-10-21T14:54:57.818290Z,1697900097818
1.8254122734069824,0.7444255352020264,0.9427705407142639,2023-10-21T14:54:57.830069Z,1697900097830
1.8784905672073364,0.6362736225128174,0.8545728325843811,2023-10-21T14:54:57.838507Z,1697900097838
1.9145411252975464,0.5431539416313171,0.7754210829734802,2023-10-21T14:54:57.849510Z,1697900097849
1.9289082288742065,0.47770410776138306,0.7166226506233215,2023-10-21T14:54:57.858633Z,1697900097858
1.9199953079223633,0.4491030275821686,0.6884207129478455,2023-10-21T14:54:57.869840Z,1697900097869
1.889664888381958,0.4605434536933899,0.6978656649589539,2023-10-21T14:54:57.879697Z,1697900097879
1.840577483177185,0.5114932656288147,0.7469530701637268,2023-10-21T14:54:57.889813Z,1697900097889
1.7773891687393188,0.5966312885284424,0.8303617238998413,2023-10-21T14:54:57.899382Z,1697900097899
1.705021858215332,0.7065125107765198,0.9378484487533569,2023-10-21T14:54:57.913441Z,1697900097913
1.6281315088272095,0.8286323547363281,1.0579729080200195,2023-10-21T14:54:57.919641Z,1697900097919
1.5503101348876953,0.9496879577636719,1.179560661315918,2023-10-21T14:54:57.930881Z,1697900097930
1.4746171236038208,1.059170126914978,1.2935657501220703,2023-10-21T14:54:57.939842Z,1697900097939
1.4045112133026123,1.1498953104019165,1.3934699296951294,2023-10-21T14:54:57.950846Z,1697900097950
1.34198796749115,1.219602108001709,1.4779428243637085,2023-10-21T14:54:57.963023Z,1697900097962
1.2867813110351562,1.271083950996399,1.5504430532455444,2023-10-21T14:54:57.970850Z,1697900097970
1.2347673177719116,1.3128548860549927,1.6174893379211426,2023-10-21T14:54:57.980355Z,1697900097980
1.180092692375183,1.3564881086349487,1.686397910118103,2023-10-21T14:54:57.991298Z,1697900097991
1.1157071590423584,1.4166167974472046,1.7635542154312134,2023-10-21T14:54:58.000699Z,1697900098000
1.034959077835083,1.5072089433670044,1.8541463613510132,2023-10-21T14:54:58.013350Z,1697900098013
0.9335915446281433,1.6378426551818848,1.9591056108474731,2023-10-21T14:54:58.020840Z,1697900098020
0.8094763159751892,1.8111783266067505,2.074307918548584,2023-10-21T14:54:58.031895Z,1697900098031
0.6646086573600769,2.020697593688965,2.1899094581604004,2023-10-21T14:54:58.041070Z,1697900098041
0.5039106607437134,2.2552263736724854,2.2928731441497803,2023-10-21T14:54:58.052223Z,1697900098052
0.337492436170578,2.497337579727173,2.371891975402832,2023-10-21T14:54:58.062941Z,1697900098062
0.18145039677619934,2.718696355819702,2.4237728118896484,2023-10-21T14:54:58.072166Z,1697900098072
0.055073656141757965,2.882187843322754,2.464479446411133,2023-10-21T14:54:58.081739Z,1697900098081
-0.03272492438554764,2.9645323753356934,2.519287109375,2023-10-21T14:54:58.096101Z,1697900098096
-0.09471604228019714,2.981160879135132,2.587397575378418,2023-10-21T14:54:58.101987Z,1697900098101
-0.15324842929840088,2.9745094776153564,2.6279711723327637,2023-10-21T14:54:58.113121Z,1697900098113
-0.21936342120170593,2.9765048027038574,2.5832736492156982,2023-10-21T14:54:58.122189Z,1697900098122
-0.2870747447013855,2.9908719062805176,2.42350697517395,2023-10-21T14:54:58.133263Z,1697900098133
-0.348666787147522,3.020803213119507,2.1542580127716064,2023-10-21T14:54:58.146079Z,1697900098146
-0.4022771418094635,3.0809319019317627,1.7922883033752441,2023-10-21T14:54:58.153307Z,1697900098153
-0.4451121985912323,3.169794797897339,1.3631395101547241,2023-10-21T14:54:58.162851Z,1697900098162
-0.4710526764392853,3.254267692565918,0.9063208103179932,2023-10-21T14:54:58.173594Z,1697900098173
-0.4763738214969635,3.2892541885375977,0.4769059121608734,2023-10-21T14:54:58.183066Z,1697900098183
-0.46466732025146484,3.254267692565918,0.12025745213031769,2023-10-21T14:54:58.196610Z,1697900098196
-0.4419195353984833,3.154629707336426,-0.1552438586950302,2023-10-21T14:54:58.203252Z,1697900098203
-0.4122542440891266,3.0029776096343994,-0.37301093339920044,2023-10-21T14:54:58.214242Z,1697900098214
-0.37633663415908813,2.8111510276794434,-0.5656356811523438,2023-10-21T14:54:58.223537Z,1697900098223
-0.3348318636417389,2.5875306129455566,-0.7513430118560791,2023-10-21T14:54:58.234578Z,1697900098234
-0.2918637692928314,2.3428919315338135,-0.9280043840408325,2023-10-21T14:54:58.246149Z,1697900098246
-0.2530195415019989,2.091069459915161,-1.0840463638305664,2023-10-21T14:54:58.254663Z,1697900098254
-0.22308820486068726,1.8444353342056274,-1.2092258930206299,2023-10-21T14:54:58.264052Z,1697900098264
-0.20379912853240967,1.6113699674606323,-1.2999510765075684,2023-10-21T14:54:58.274822Z,1697900098274
-0.19448715448379517,1.3951992988586426,-1.3600798845291138,2023-10-21T14:54:58.284377Z,1697900098284
-0.19289082288742065,1.1957900524139404,-1.396795630455017,2023-10-21T14:54:58.296414Z,1697900098296
-0.19728074967861176,1.010880947113037,-1.4176809787750244,2023-10-21T14:54:58.304545Z,1697900098304
-0.2068587690591812,0.837279200553894,-1.4283232688903809,2023-10-21T14:54:58.315605Z,1697900098315
-0.21989554166793823,0.671393096446991,-1.4316489696502686,2023-10-21T14:54:58.324884Z,1697900098324
-0.23426257073879242,0.5100299119949341,-1.4285893440246582,2023-10-21T14:54:58.335881Z,1697900098335
-0.2502259612083435,0.3545200228691101,-1.417414903640747,2023-10-21T14:54:58.345931Z,1697900098345
-0.27031320333480835,0.21058356761932373,-1.394667148590088,2023-10-21T14:54:58.355868Z,1697900098355
-0.29718488454818726,0.08487196266651154,-1.3583505153656006,2023-10-21T14:54:58.365399Z,1697900098365
-0.3299098312854767,-0.021417532116174698,-1.3101942539215088,2023-10-21T14:54:58.379925Z,1697900098379
-0.3654283285140991,-0.11161062121391296,-1.2559187412261963,2023-10-21T14:54:58.385660Z,1697900098385
-0.4012129008769989,-0.1887669414281845,-1.2019093036651611,2023-10-21T14:54:58.396553Z,1697900098396
-0.4361993074417114,-0.2531525790691376,-1.152688980102539,2023-10-21T14:54:58.405832Z,1697900098405
-0.4710526764392853,-0.30436840653419495,-1.1106520891189575,2023-10-21T14:54:58.416873Z,1697900098416
-0.5060390830039978,-0.3424144685268402,-1.0767298936843872,2023-10-21T14:54:58.429168Z,1697900098429
-0.5416906476020813,-0.3671576976776123,-1.0517206192016602,2023-10-21T14:54:58.436988Z,1697900098436
-0.5790715217590332,-0.3776669204235077,-1.0361562967300415,2023-10-21T14:54:58.446417Z,1697900098446
-0.6189799904823303,-0.37354305386543274,-1.0315003395080566,2023-10-21T14:54:58.457212Z,1697900098457
-0.6598196625709534,-0.3573136031627655,-1.0425416231155396,2023-10-21T14:54:58.466737Z,1697900098466
-0.6991959810256958,-0.3320382535457611,-1.0769959688186646,2023-10-21T14:54:58.479769Z,1697900098479
-0.7369759678840637,-0.30037757754325867,-1.1389870643615723,2023-10-21T14:54:58.486882Z,1697900098486
-0.7738247513771057,-0.2651250958442688,-1.2250562906265259,2023-10-21T14:54:58.497934Z,1697900098497
-0.8096093535423279,-0.23186807334423065,-1.3257585763931274,2023-10-21T14:54:58.507127Z,1697900098507
-0.8431324362754822,-0.20699180662631989,-1.4320480823516846,2023-10-21T14:54:58.518290Z,1697900098518
-0.8737289309501648,-0.19568441808223724,-1.5412641763687134,2023-10-21T14:54:58.529272Z,1697900098529
-0.9009996652603149,-0.2003403902053833,-1.6567325592041016,2023-10-21T14:54:58.538442Z,1697900098538
-0.9252107739448547,-0.2222900390625,-1.7807148694992065,2023-10-21T14:54:58.547745Z,1697900098547
-0.9467613697052002,-0.26219847798347473,-1.9105503559112549,2023-10-21T14:54:58.558482Z,1697900098558
-0.9665825366973877,-0.31913453340530396,-2.0423812866210938,2023-10-21T14:54:58.568095Z,1697900098568
-0.9866697788238525,-0.38897430896759033,-2.1758084297180176,2023-10-21T14:54:58.579576Z,1697900098579
-1.0092846155166626,-0.466396689414978,-2.3068411350250244,2023-10-21T14:54:58.588310Z,1697900098588
-1.0350919961929321,-0.5458145141601562,-2.423107862472534,2023-10-21T14:54:58.599315Z,1697900098599
-1.0616977214813232,-0.6235029697418213,-2.508511781692505,2023-10-21T14:54:58.608368Z,1697900098608
-1.085642695426941,-0.6986638307571411,-2.553741455078125,2023-10-21T14:54:58.619649Z,1697900098619
-1.1034685373306274,-0.7747559547424316,-2.5626542568206787,2023-10-21T14:54:58.629128Z,1697900098629
-1.1117162704467773,-0.8578985333442688,-2.5476222038269043,2023-10-21T14:54:58.639580Z,1697900098639
-1.1087896823883057,-0.9528806805610657,-2.5202183723449707,2023-10-21T14:54:58.649099Z,1697900098649
-1.0952208042144775,-1.059569239616394,-2.4858970642089844,2023-10-21T14:54:58.662800Z,1697900098662
-1.0734041929244995,-1.1722440719604492,-2.4425299167633057,2023-10-21T14:54:58.669398Z,1697900098669
-1.0454682111740112,-1.281460165977478,-2.386392116546631,2023-10-21T14:54:58.680317Z,1697900098680
-1.0143396854400635,-1.3761762380599976,-2.313359498977661,2023-10-21T14:54:58.689482Z,1697900098689
-0.9840092658996582,-1.4461489915847778,-2.220905065536499,2023-10-21T14:54:58.700616Z,1697900098700
-0.9589999318122864,-1.4847272634506226,-2.1094274520874023,2023-10-21T14:54:58.712441Z,1697900098712
-0.9422383904457092,-1.4896492958068848,-1.9829176664352417,2023-10-21T14:54:58.720727Z,1697900098720
-0.9334585666656494,-1.4661033153533936,-1.8486921787261963,2023-10-21T14:54:58.730102Z,1697900098730
-0.9301328659057617,-1.4247314929962158,-1.7143337726593018,2023-10-21T14:54:58.740846Z,1697900098740
-0.9277383089065552,-1.3772404193878174,-1.5855625867843628,2023-10-21T14:54:58.750441Z,1697900098750
-0.9221511483192444,-1.3321439027786255,-1.4655711650848389,2023-10-21T14:54:58.762792Z,1697900098762
-0.9097795486450195,-1.2931666374206543,-1.3546257019042969,2023-10-21T14:54:58.770576Z,1697900098770
-0.8890271186828613,-1.2611068487167358,-1.2516618967056274,2023-10-21T14:54:58.781651Z,1697900098781
-0.8601600527763367,-1.2345012426376343,-1.1552164554595947,2023-10-21T14:54:58.790791Z,1697900098790
-0.8246415257453918,-1.2106891870498657,-1.0643582344055176,2023-10-21T14:54:58.801988Z,1697900098801
-0.785531222820282,-1.1867440938949585,-0.9784220457077026,2023-10-21T14:54:58.812275Z,1697900098812
-0.7456228137016296,-1.1596064567565918,-0.8966097235679626,2023-10-21T14:54:58.821979Z,1697900098821
-0.7069116234779358,-1.1274136304855347,-0.8189213275909424,2023-10-21T14:54:58.831446Z,1697900098831
-0.6719251871109009,-1.0898996591567993,-0.7469530701637268,2023-10-21T14:54:58.846018Z,1697900098845
-0.6425259709358215,-1.0478627681732178,-0.6816362738609314,2023-10-21T14:54:58.851745Z,1697900098851
-0.6195120811462402,-1.0018349885940552,-0.622704803943634,2023-10-21T14:54:58.862715Z,1697900098862
-0.6018193364143372,-0.9516834020614624,-0.5684292912483215,2023-10-21T14:54:58.871930Z,1697900098871
-0.5882505178451538,-0.8958115577697754,-0.5161492228507996,2023-10-21T14:54:58.883043Z,1697900098883
-0.5769430994987488,-0.8332883715629578,-0.46360310912132263,2023-10-21T14:54:58.895645Z,1697900098895
-0.5670990347862244,-0.7630494832992554,-0.4087955057621002,2023-10-21T14:54:58.903021Z,1697900098903
-0.5573879480361938,-0.6852279901504517,-0.34986403584480286,2023-10-21T14:54:58.912460Z,1697900098912
-0.5460805892944336,-0.6006221175193787,-0.28561145067214966,2023-10-21T14:54:58.923305Z,1697900098923
-0.5321125984191895,-0.5124244689941406,-0.21776708960533142,2023-10-21T14:54:58.932803Z,1697900098932
-0.5157501697540283,-0.4248919188976288,-0.15005575120449066,2023-10-21T14:54:58.946026Z,1697900098946
-0.49872255325317383,-0.3429465889930725,-0.08739949762821198,2023-10-21T14:54:58.953038Z,1697900098952
-0.4823600649833679,-0.2689829170703888,-0.033390067517757416,2023-10-21T14:54:58.964015Z,1697900098963
-0.4677269756793976,-0.2041982114315033,0.00971105508506298,2023-10-21T14:54:58.973187Z,1697900098973
-0.455488383769989,-0.1487254798412323,0.040972672402858734,2023-10-21T14:54:58.984356Z,1697900098984
-0.44591036438941956,-0.10203259438276291,0.06159203499555588,2023-10-21T14:54:58.995629Z,1697900098995
-0.43819472193717957,-0.061991117894649506,0.0746287927031517,2023-10-21T14:54:59.004384Z,1697900099004
-0.4320754408836365,-0.02633957378566265,0.0834086537361145,2023-10-21T14:54:59.013799Z,1697900099013
-0.42781853675842285,0.006252323277294636,0.09019308537244797,2023-10-21T14:54:59.024555Z,1697900099024
-0.42555704712867737,0.03644971549510956,0.0960463285446167,2023-10-21T14:54:59.034114Z,1697900099034
-0.4243597984313965,0.06558287888765335,0.10123442113399506,2023-10-21T14:54:59.045827Z,1697900099045
-0.42302951216697693,0.09524815529584885,0.10562435537576675,2023-10-21T14:54:59.054276Z,1697900099054
-0.422497421503067,0.1251794844865799,0.1081518903374672,2023-10-21T14:54:59.065394Z,1697900099065
-0.4232955873012543,0.15338145196437836,0.10775279998779297,2023-10-21T14:54:59.074440Z,1697900099074
-0.4254240393638611,0.17719349265098572,0.10402801632881165,2023-10-21T14:54:59.085725Z,1697900099085
-0.4279515743255615,0.19501927495002747,0.09764266014099121,2023-10-21T14:54:59.095533Z,1697900099095
-0.429813951253891,0.20606060326099396,0.08806463330984116,2023-10-21T14:54:59.105678Z,1697900099105
-0.4307451546192169,0.20872117578983307,0.07343153655529022,2023-10-21T14:54:59.115187Z,1697900099115
-0.43061211705207825,0.20127159357070923,0.050683725625276566,2023-10-21T14:54:59.129099Z,1697900099129
-0.4291488230228424,0.18304674327373505,0.01822485774755478,2023-10-21T14:54:59.135434Z,1697900099135
-0.4274194538593292,0.15604202449321747,-0.022747814655303955,2023-10-21T14:54:59.146356Z,1697900099146
-0.42608916759490967,0.12438131868839264,-0.06824344396591187,2023-10-21T14:54:59.155585Z,1697900099155
-0.42449283599853516,0.09152337163686752,-0.11280786991119385,2023-10-21T14:54:59.166734Z,1697900099166
-0.42023593187332153,0.05959661304950714,-0.1515190601348877,2023-10-21T14:54:59.178787Z,1697900099178
-0.41092395782470703,0.02886710874736309,-0.1811843365430832,2023-10-21T14:54:59.186746Z,1697900099186
-0.39429545402526855,-7.981689414009452E-4,-0.2003403902053833,2023-10-21T14:54:59.196209Z,1697900099196
-0.35598334670066833,-0.014367040246725082,-0.1920926570892334,2023-10-21T14:54:59.206931Z,1697900099206
-0.3237905204296112,-0.046958938241004944,-0.19501927495002747,2023-10-21T14:54:59.216484Z,1697900099216
-0.29625368118286133,-0.07489485293626785,-0.1975468099117279,2023-10-21T14:54:59.229219Z,1697900099229
-0.24729932844638824,-0.11187667399644852,-0.1915605366230011,2023-10-21T14:54:59.236664Z,1697900099236
-0.19621652364730835,-0.17147329449653625,-0.1975468099117279,2023-10-21T14:54:59.247774Z,1697900099247
-0.14673005044460297,-0.2036661058664322,-0.19076237082481384,2023-10-21T14:54:59.256887Z,1697900099256
-0.10083533823490143,-0.23240017890930176,-0.1838449090719223,2023-10-21T14:54:59.268121Z,1697900099268
-0.05959661304950714,-0.2563452422618866,-0.17639532685279846,2023-10-21T14:54:59.278772Z,1697900099278
-0.02381203882396221,-0.274570107460022,-0.1690787822008133,2023-10-21T14:54:59.288073Z,1697900099288
0.006784435827285051,-0.2882719933986664,-0.162959486246109,2023-10-21T14:54:59.297554Z,1697900099297
0.034055206924676895,-0.29878121614456177,-0.1575053334236145,2023-10-21T14:54:59.312117Z,1697900099312
0.06079386547207832,-0.3068959414958954,-0.15218420326709747,2023-10-21T14:54:59.317815Z,1697900099317
0.08859674632549286,-0.31368038058280945,-0.14646399021148682,2023-10-21T14:54:59.329053Z,1697900099329
0.1174638569355011,-0.3194005787372589,-0.1410098373889923,2023-10-21T14:54:59.337955Z,1697900099337
0.14726217091083527,-0.3244556486606598,-0.13595476746559143,2023-10-21T14:54:59.349068Z,1697900099349
0.1778586357831955,-0.3288455903530121,-0.1306336522102356,2023-10-21T14:54:59.358178Z,1697900099358
0.20898722112178802,-0.33124008774757385,-0.12384921312332153,2023-10-21T14:54:59.369407Z,1697900099369
0.23971672356128693,-0.32964375615119934,-0.11440420895814896,2023-10-21T14:54:59.378669Z,1697900099378
0.2683177888393402,-0.3211299479007721,-0.10083533823490143,2023-10-21T14:54:59.389351Z,1697900099389
0.2923958897590637,-0.30370327830314636,-0.08101414144039154,2023-10-21T14:54:59.398866Z,1697900099398
0.311152845621109,-0.2755013108253479,-0.0526791475713253,2023-10-21T14:54:59.412441Z,1697900099412
0.32458868622779846,-0.2365240603685379,-0.015165209770202637,2023-10-21T14:54:59.419110Z,1697900099419
0.3320382535457611,-0.1882348358631134,0.029266193509101868,2023-10-21T14:54:59.430080Z,1697900099430
0.33390066027641296,-0.13316118717193604,0.07689027488231659,2023-10-21T14:54:59.439277Z,1697900099439
0.3315061628818512,-0.0740966796875,0.12384921312332153,2023-10-21T14:54:59.450417Z,1697900099450
0.32631805539131165,-0.015431265346705914,0.16601912677288055,2023-10-21T14:54:59.461638Z,1697900099461
0.3200657367706299,0.038445137441158295,0.19940920174121857,2023-10-21T14:54:59.470435Z,1697900099470
0.3140794634819031,0.08354167640209198,0.22095976769924164,2023-10-21T14:54:59.479866Z,1697900099479
0.3102216422557831,0.11759688705205917,0.2294735610485077,2023-10-21T14:54:59.490659Z,1697900099490
0.31088680028915405,0.13914744555950165,0.22641392052173615,2023-10-21T14:54:59.500183Z,1697900099500
0.31753820180892944,0.14832639694213867,0.21417532861232758,2023-10-21T14:54:59.512260Z,1697900099512
0.3316391706466675,0.14726217091083527,0.1964825838804245,2023-10-21T14:54:59.520410Z,1697900099520
0.35318973660469055,0.13874836266040802,0.17772561311721802,2023-10-21T14:54:59.531541Z,1697900099531
0.38125869631767273,0.12611068785190582,0.16269342601299286,2023-10-21T14:54:59.540547Z,1697900099540
0.4143826961517334,0.1136060431599617,0.15497779846191406,2023-10-21T14:54:59.551798Z,1697900099551
0.45030030608177185,0.10655555129051208,0.1553768813610077,2023-10-21T14:54:59.561875Z,1697900099561
0.4863509237766266,0.10841794312000275,0.16402371227741241,2023-10-21T14:54:59.571783Z,1697900099571
0.5202730894088745,0.12078956514596939,0.18091829121112823,2023-10-21T14:54:59.581324Z,1697900099581
0.5508695840835571,0.14367040991783142,0.20592758059501648,2023-10-21T14:54:59.595775Z,1697900099595
0.5780073404312134,0.17586322128772736,0.2382534146308899,2023-10-21T14:54:59.601506Z,1697900099601
0.6016863584518433,0.21470743417739868,0.2756343185901642,2023-10-21T14:54:59.612526Z,1697900099612
0.6217736005783081,0.25594615936279297,0.3156757950782776,2023-10-21T14:54:59.621730Z,1697900099621
0.6385351419448853,0.2954555153846741,0.3555842638015747,2023-10-21T14:54:59.632804Z,1697900099632
0.6535673141479492,0.3319052457809448,0.3930981755256653,2023-10-21T14:54:59.645211Z,1697900099645
0.6684664487838745,0.36582741141319275,0.4264882504940033,2023-10-21T14:54:59.652851Z,1697900099652
0.6840307712554932,0.3990844488143921,0.4550893008708954,2023-10-21T14:54:59.662253Z,1697900099662
0.6999941468238831,0.43287360668182373,0.4791674017906189,2023-10-21T14:54:59.673063Z,1697900099673
0.7148932814598083,0.4677269756793976,0.49965372681617737,2023-10-21T14:54:59.682569Z,1697900099682
0.7265997529029846,0.5029794573783875,0.5177455544471741,2023-10-21T14:54:59.695587Z,1697900099695
0.7344484329223633,0.5379658341407776,0.5333098769187927,2023-10-21T14:54:59.702778Z,1697900099702
0.7392374277114868,0.5722870826721191,0.5454154014587402,2023-10-21T14:54:59.714062Z,1697900099714
0.7422971129417419,0.6039478182792664,0.5516677498817444,2023-10-21T14:54:59.723077Z,1697900099723
0.7437604069709778,0.630021333694458,0.5494062900543213,2023-10-21T14:54:59.734235Z,1697900099734
0.744159460067749,0.6494434475898743,0.5363695025444031,2023-10-21T14:54:59.745089Z,1697900099745
0.7433612942695618,0.6623471975326538,0.5125574469566345,2023-10-21T14:54:59.754168Z,1697900099754
0.7412328720092773,0.670461893081665,0.4798325300216675,2023-10-21T14:54:59.763623Z,1697900099763
0.7372420430183411,0.6760490536689758,0.44045621156692505,2023-10-21T14:54:59.774418Z,1697900099774
0.7312557697296143,0.680971086025238,0.39655691385269165,2023-10-21T14:54:59.783929Z,1697900099783
0.7230079770088196,0.6874895095825195,0.34986403584480286,2023-10-21T14:54:59.795228Z,1697900099795
0.711434543132782,0.696801483631134,0.30277207493782043,2023-10-21T14:54:59.804079Z,1697900099804
0.6962693333625793,0.7097051739692688,0.2572764456272125,2023-10-21T14:54:59.815509Z,1697900099815
0.6780444979667664,0.7260676622390747,0.21430835127830505,2023-10-21T14:54:59.824297Z,1697900099824
0.6580902934074402,0.745090663433075,0.1745329350233078,2023-10-21T14:54:59.835590Z,1697900099835
0.6381360292434692,0.7657100558280945,0.13821625709533691,2023-10-21T14:54:59.844924Z,1697900099844
0.6195120811462402,0.7877927422523499,0.10602343827486038,2023-10-21T14:54:59.855618Z,1697900099855
0.6024845242500305,0.8094763159751892,0.07875266671180725,2023-10-21T14:54:59.864980Z,1697900099864
0.5871862769126892,0.8290314674377441,0.05733513459563255,2023-10-21T14:54:59.878853Z,1697900099878
0.5744155645370483,0.8443296551704407,0.041637811809778214,2023-10-21T14:54:59.885137Z,1697900099885
0.5655027031898499,0.8548389077186584,0.03112858720123768,2023-10-21T14:54:59.896139Z,1697900099896
0.5620439648628235,0.8597609400749207,0.025275349617004395,2023-10-21T14:54:59.905341Z,1697900099905
0.5649705529212952,0.8581646084785461,0.023013871163129807,2023-10-21T14:54:59.916470Z,1697900099916
0.574149489402771,0.8473893404006958,0.022348729893565178,2023-10-21T14:54:59.928266Z,1697900099928
0.5890486836433411,0.8250405788421631,0.01982119493186474,2023-10-21T14:54:59.936510Z,1697900099936
0.6080716848373413,0.790054202079773,0.011839505285024643,2023-10-21T14:54:59.945933Z,1697900099945
0.6309525370597839,0.7437604069709778,-0.004655985161662102,2023-10-21T14:54:59.956685Z,1697900099956
0.6570260524749756,0.6897509694099426,-0.030197391286492348,2023-10-21T14:54:59.966265Z,1697900099966
0.6849619746208191,0.6320167779922485,-0.06385350972414017,2023-10-21T14:54:59.978656Z,1697900099978
0.7123657464981079,0.5738834738731384,-0.10322984308004379,2023-10-21T14:54:59.986414Z,1697900099986
0.736842930316925,0.5186767578125,-0.1448676586151123,2023-10-21T14:54:59.997635Z,1697900099997
0.7570632100105286,0.4693233072757721,-0.18424399197101593,2023-10-21T14:55:00.006874Z,1697900100006
0.7730265855789185,0.42848366498947144,-0.21776708960533142,2023-10-21T14:55:00.018388Z,1697900100018
0.7852652072906494,0.39775416254997253,-0.2437075674533844,2023-10-21T14:55:00.026959Z,1697900100026
0.7940450310707092,0.377533882856369,-0.26273059844970703,2023-10-21T14:55:00.037817Z,1697900100037
0.7988340258598328,0.3659604489803314,-0.27629947662353516,2023-10-21T14:55:00.047460Z,1697900100047
0.7988340258598328,0.36024022102355957,-0.2864096164703369,2023-10-21T14:55:00.058315Z,1697900100058
0.7933799028396606,0.3574466407299042,-0.2954555153846741,2023-10-21T14:55:00.067645Z,1697900100067
0.7830036878585815,0.3561163544654846,-0.3056986927986145,2023-10-21T14:55:00.079132Z,1697900100079
0.7686366438865662,0.35531818866729736,-0.31966665387153625,2023-10-21T14:55:00.087847Z,1697900100087
0.7506778836250305,0.35372185707092285,-0.3381575644016266,2023-10-21T14:55:00.099107Z,1697900100099
0.7299254536628723,0.3502631187438965,-0.3615705072879791,2023-10-21T14:55:00.113223Z,1697900100113
0.7074437141418457,0.3441438376903534,-0.39003854990005493,2023-10-21T14:55:00.118869Z,1697900100118
0.6837646961212158,0.33496490120887756,-0.42289650440216064,2023-10-21T14:55:00.128324Z,1697900100128
0.659553587436676,0.32192811369895935,-0.4586810767650604,2023-10-21T14:55:00.139150Z,1697900100139
0.6358745694160461,0.30490052700042725,-0.49539685249328613,2023-10-21T14:55:00.148634Z,1697900100148
0.6141909956932068,0.2838820815086365,-0.5313144326210022,2023-10-21T14:55:00.162125Z,1697900100162
0.5951679348945618,0.25927186012268066,-0.5648375153541565,2023-10-21T14:55:00.168874Z,1697900100168
0.578672468662262,0.23146899044513702,-0.5942367315292358,2023-10-21T14:55:00.179763Z,1697900100179
0.5643054246902466,0.2014046162366867,-0.6183148622512817,2023-10-21T14:55:00.189111Z,1697900100189
0.5506035089492798,0.17054209113121033,-0.6369388103485107,2023-10-21T14:55:00.200375Z,1697900100200
0.5367686152458191,0.1415419578552246,-0.6498425006866455,2023-10-21T14:55:00.211707Z,1697900100211
0.5212042927742004,0.11719780415296555,-0.6560948491096497,2023-10-21T14:55:00.220379Z,1697900100220
0.5017821788787842,0.0999041423201561,-0.6548975706100464,2023-10-21T14:55:00.229669Z,1697900100229
0.47717198729515076,0.09152337163686752,-0.6461177468299866,2023-10-21T14:55:00.240458Z,1697900100240
0.4473736882209778,0.09351879358291626,-0.629622220993042,2023-10-21T14:55:00.250050Z,1697900100250
0.4133184552192688,0.10735371708869934,-0.6056771874427795,2023-10-21T14:55:00.261805Z,1697900100261
0.3752724230289459,0.13262906670570374,-0.5749476552009583,2023-10-21T14:55:00.270184Z,1697900100270
0.333634614944458,0.16708335280418396,-0.5383649468421936,2023-10-21T14:55:00.281170Z,1697900100281
0.29000136256217957,0.207523912191391,-0.49912163615226746,2023-10-21T14:55:00.290284Z,1697900100290
0.246501162648201,0.25009292364120483,-0.46120861172676086,2023-10-21T14:55:00.301582Z,1697900100301
0.20446427166461945,0.28960227966308594,-0.4286167025566101,2023-10-21T14:55:00.311408Z,1697900100311
0.16455581784248352,0.3211299479007721,-0.40427255630493164,2023-10-21T14:55:00.321544Z,1697900100321
0.12797307968139648,0.34214839339256287,-0.3892403841018677,2023-10-21T14:55:00.331020Z,1697900100330
0.0960463285446167,0.35092827677726746,-0.38391923904418945,2023-10-21T14:55:00.344965Z,1697900100344
0.07050491869449615,0.3469374179840088,-0.3864467740058899,2023-10-21T14:55:00.351265Z,1697900100351
0.05188097804784775,0.3303089141845703,-0.39269909262657166,2023-10-21T14:55:00.362195Z,1697900100362
0.04057358577847481,0.3018408715724945,-0.3973550796508789,2023-10-21T14:55:00.371458Z,1697900100371
0.03738091140985489,0.2633957266807556,-0.39655691385269165,2023-10-21T14:55:00.382607Z,1697900100382
0.0433671772480011,0.2173680067062378,-0.3881761431694031,2023-10-21T14:55:00.394665Z,1697900100394
0.045362599194049835,0.17878983914852142,-0.3539879024028778,2023-10-21T14:55:00.402622Z,1697900100402
0.07117006182670593,0.12331710010766983,-0.3288455903530121,2023-10-21T14:55:00.412036Z,1697900100411
0.11427118629217148,0.05839935690164566,-0.3104877173900604,2023-10-21T14:55:00.422824Z,1697900100422
0.1415419578552246,0.01636246219277382,-0.26379483938217163,2023-10-21T14:55:00.432359Z,1697900100432
0.16721639037132263,-0.01476612500846386,-0.20991842448711395,2023-10-21T14:55:00.444654Z,1697900100444
0.1899642050266266,-0.0351194329559803,-0.1504548341035843,2023-10-21T14:55:00.452536Z,1697900100452
0.2096523642539978,-0.04602774232625961,-0.08527104556560516,2023-10-21T14:55:00.463634Z,1697900100463
0.2282763123512268,-0.05094978213310242,-0.013169786892831326,2023-10-21T14:55:00.472679Z,1697900100472
0.24849659204483032,-0.05494062602519989,0.06664710491895676,2023-10-21T14:55:00.483955Z,1697900100483
0.2735058665275574,-0.06425260007381439,0.1536475121974945,2023-10-21T14:55:00.494627Z,1697900100494
0.3058317303657532,-0.08580315858125687,0.24716630578041077,2023-10-21T14:55:00.503884Z,1697900100503
0.34653833508491516,-0.12411526590585709,0.344542920589447,2023-10-21T14:55:00.513360Z,1697900100513
0.39535966515541077,-0.18012011051177979,0.4405892491340637,2023-10-21T14:55:00.524101Z,1697900100524
0.4491030275821686,-0.25275349617004395,0.5286538600921631,2023-10-21T14:55:00.533661Z,1697900100533
0.5029794573783875,-0.3397538959980011,0.6039478182792664,2023-10-21T14:55:00.544790Z,1697900100544
0.5531310439109802,-0.4352681040763855,0.6638104915618896,2023-10-21T14:55:00.553841Z,1697900100553
0.5967642664909363,-0.5326447486877441,0.7074437141418457,2023-10-21T14:55:00.564953Z,1697900100564
0.6313515901565552,-0.626429557800293,0.7365768551826477,2023-10-21T14:55:00.574107Z,1697900100574
0.6554297208786011,-0.715026319026947,0.753205418586731,2023-10-21T14:55:00.585241Z,1697900100585
0.6708609461784363,-0.8001643419265747,0.7583934664726257,2023-10-21T14:55:00.595126Z,1697900100595
0.6811041235923767,-0.886366605758667,0.7513430118560791,2023-10-21T14:55:00.605271Z,1697900100605
0.6893518567085266,-0.9800183773040771,0.7307236194610596,2023-10-21T14:55:00.614734Z,1697900100614
0.6986638307571411,-1.0865739583969116,0.6946730017662048,2023-10-21T14:55:00.628557Z,1697900100628
