ACC_X,ACC_Y,ACC_Z,DATE,UNIX_TIMESTAMP
0.10064125061035156,0.22723960876464844,0.007433712482452393,2023-10-21T14:54:48.775215Z,1697900088775
0.09000778198242188,0.2037649154663086,0.006253719329833984,2023-10-21T14:54:48.790616Z,1697900088790
0.05240178108215332,0.12364387512207031,0.002249479293823242,2023-10-21T14:54:48.810950Z,1697900088810
0.032048940658569336,0.07930374145507812,0.0011069178581237793,2023-10-21T14:54:48.831137Z,1697900088831
0.043650150299072266,0.10582447052001953,0.0014802813529968262,2023-10-21T14:54:48.852568Z,1697900088852
0.06247234344482422,0.1469879150390625,0.002977430820465088,2023-10-21T14:54:48.872597Z,1697900088872
0.07916736602783203,0.18180179595947266,0.004439949989318848,2023-10-21T14:54:48.891979Z,1697900088891
0.08634328842163086,0.1963968276977539,0.005617856979370117,2023-10-21T14:54:48.912203Z,1697900088912
0.0935056209564209,0.21068477630615234,0.006465435028076172,2023-10-21T14:54:48.935722Z,1697900088935
0.10397219657897949,0.2336587905883789,0.007155895233154297,2023-10-21T14:54:48.952854Z,1697900088952
0.07382917404174805,0.17105484008789062,0.004142329096794128,2023-10-21T14:54:48.973065Z,1697900088973
0.07447433471679688,0.17238330841064453,0.004137486219406128,2023-10-21T14:54:48.993334Z,1697900088993
0.07887506484985352,0.1816425323486328,0.004472449421882629,2023-10-21T14:54:49.013509Z,1697900089013
0.08542180061340332,0.19516372680664062,0.005048468708992004,2023-10-21T14:54:49.035683Z,1697900089035
0.08965587615966797,0.20390892028808594,0.005528643727302551,2023-10-21T14:54:49.054124Z,1697900089054
0.09111332893371582,0.20707035064697266,0.005786418914794922,2023-10-21T14:54:49.074388Z,1697900089074
0.0914919376373291,0.20831298828125,0.0059053003787994385,2023-10-21T14:54:49.094676Z,1697900089094
0.09184789657592773,0.20975303649902344,0.0059878528118133545,2023-10-21T14:54:49.114824Z,1697900089114
0.09150123596191406,0.20979022979736328,0.0059840381145477295,2023-10-21T14:54:49.135128Z,1697900089135
0.08947634696960449,0.2059793472290039,0.005916893482208252,2023-10-21T14:54:49.155500Z,1697900089155
0.08644437789916992,0.19962692260742188,0.005777716636657715,2023-10-21T14:54:49.175693Z,1697900089175
0.0850992202758789,0.1968984603881836,0.005699038505554199,2023-10-21T14:54:49.195903Z,1697900089195
0.08475351333618164,0.19596385955810547,0.005673795938491821,2023-10-21T14:54:49.218047Z,1697900089218
0.08536839485168457,0.1967334747314453,0.0056154727935791016,2023-10-21T14:54:49.236442Z,1697900089236
0.08701181411743164,0.19957542419433594,0.005615800619125366,2023-10-21T14:54:49.256762Z,1697900089256
0.08796977996826172,0.20055007934570312,0.005522102117538452,2023-10-21T14:54:49.277010Z,1697900089276
0.08966875076293945,0.20299625396728516,0.005508095026016235,2023-10-21T14:54:49.297284Z,1697900089297
0.0914163589477539,0.20528030395507812,0.005490809679031372,2023-10-21T14:54:49.318094Z,1697900089318
0.09319877624511719,0.20760154724121094,0.005429074168205261,2023-10-21T14:54:49.338663Z,1697900089338
0.09427499771118164,0.20851612091064453,0.005239397287368774,2023-10-21T14:54:49.358131Z,1697900089358
0.09425687789916992,0.20753192901611328,0.004959970712661743,2023-10-21T14:54:49.378339Z,1697900089378
0.09244632720947266,0.2030925750732422,0.004642963409423828,2023-10-21T14:54:49.398549Z,1697900089398
0.09026145935058594,0.1983928680419922,0.004412919282913208,2023-10-21T14:54:49.419319Z,1697900089419
0.08917856216430664,0.1960620880126953,0.004321292042732239,2023-10-21T14:54:49.439198Z,1697900089439
0.08779191970825195,0.19895267486572266,0.005232885479927063,2023-10-21T14:54:49.459555Z,1697900089459
0.08854055404663086,0.20017528533935547,0.0052526891231536865,2023-10-21T14:54:49.479727Z,1697900089479
0.08936500549316406,0.20152664184570312,0.005279213190078735,2023-10-21T14:54:49.501544Z,1697900089501
0.09005284309387207,0.20256328582763672,0.005290031433105469,2023-10-21T14:54:49.520235Z,1697900089520
0.09046077728271484,0.20299720764160156,0.0052710771560668945,2023-10-21T14:54:49.540561Z,1697900089540
0.09063100814819336,0.20291519165039062,0.005232423543930054,2023-10-21T14:54:49.560691Z,1697900089560
0.09072303771972656,0.20264148712158203,0.005189776420593262,2023-10-21T14:54:49.580974Z,1697900089580
0.0908656120300293,0.20244503021240234,0.005160465836524963,2023-10-21T14:54:49.601282Z,1697900089601
0.09113454818725586,0.20248031616210938,0.0051545649766922,2023-10-21T14:54:49.621589Z,1697900089621
0.09153032302856445,0.20276355743408203,0.005170911550521851,2023-10-21T14:54:49.641914Z,1697900089641
0.09206438064575195,0.20336532592773438,0.005210652947425842,2023-10-21T14:54:49.662086Z,1697900089662
0.09261798858642578,0.20406723022460938,0.005264222621917725,2023-10-21T14:54:49.685281Z,1697900089685
0.09304380416870117,0.20457172393798828,0.005320757627487183,2023-10-21T14:54:49.702584Z,1697900089702
0.09328985214233398,0.20479869842529297,0.005366072058677673,2023-10-21T14:54:49.722901Z,1697900089722
0.09333419799804688,0.20473670959472656,0.005398839712142944,2023-10-21T14:54:49.743184Z,1697900089743
0.0931401252746582,0.20430660247802734,0.005397111177444458,2023-10-21T14:54:49.763368Z,1697900089763
0.0926351547241211,0.2033538818359375,0.005357012152671814,2023-10-21T14:54:49.784483Z,1697900089784
0.09169387817382812,0.2015857696533203,0.005266532301902771,2023-10-21T14:54:49.804281Z,1697900089804
0.09028339385986328,0.19888782501220703,0.0051293522119522095,2023-10-21T14:54:49.824199Z,1697900089824
0.08851385116577148,0.19544029235839844,0.004954144358634949,2023-10-21T14:54:49.844428Z,1697900089844
0.08659029006958008,0.19164276123046875,0.0047578364610672,2023-10-21T14:54:49.864587Z,1697900089864
0.08480119705200195,0.18807315826416016,0.004553869366645813,2023-10-21T14:54:49.884940Z,1697900089884
0.08335685729980469,0.1851825714111328,0.004364013671875,2023-10-21T14:54:49.905274Z,1697900089905
0.08242559432983398,0.1833171844482422,0.004192158579826355,2023-10-21T14:54:49.925495Z,1697900089925
0.08208799362182617,0.18265151977539062,0.00404714047908783,2023-10-21T14:54:49.945814Z,1697900089945
0.0824136734008789,0.18336009979248047,0.003928005695343018,2023-10-21T14:54:49.968490Z,1697900089968
0.08328866958618164,0.18523120880126953,0.0038232654333114624,2023-10-21T14:54:49.986262Z,1697900089986
0.0846400260925293,0.18816089630126953,0.003724724054336548,2023-10-21T14:54:50.006602Z,1697900090006
0.08632516860961914,0.1918935775756836,0.0036252588033676147,2023-10-21T14:54:50.026816Z,1697900090026
0.08814430236816406,0.19603824615478516,0.0035136044025421143,2023-10-21T14:54:50.047187Z,1697900090047
0.08996391296386719,0.20032119750976562,0.0033678561449050903,2023-10-21T14:54:50.068434Z,1697900090068
0.09160089492797852,0.20435523986816406,0.0031778961420059204,2023-10-21T14:54:50.087662Z,1697900090087
0.09289789199829102,0.20780181884765625,0.0029241591691970825,2023-10-21T14:54:50.107970Z,1697900090107
0.0937507152557373,0.21040916442871094,0.002608157694339752,2023-10-21T14:54:50.128143Z,1697900090128
0.0941312313079834,0.2120676040649414,0.002237841486930847,2023-10-21T14:54:50.151510Z,1697900090151
0.09413290023803711,0.21289539337158203,0.001825079321861267,2023-10-21T14:54:50.168919Z,1697900090168
0.09405755996704102,0.213470458984375,0.0013910084962844849,2023-10-21T14:54:50.188991Z,1697900090188
0.09411478042602539,0.2142009735107422,9.521059691905975E-4,2023-10-21T14:54:50.209277Z,1697900090209
0.09445428848266602,0.21538066864013672,5.19532710313797E-4,2023-10-21T14:54:50.229470Z,1697900090229
0.09512948989868164,0.21709823608398438,9.891996160149574E-5,2023-10-21T14:54:50.251610Z,1697900090251
0.09616589546203613,0.2194042205810547,-2.936888486146927E-4,2023-10-21T14:54:50.269998Z,1697900090269
0.09763121604919434,0.22246837615966797,-6.598290055990219E-4,2023-10-21T14:54:50.290446Z,1697900090290
0.09958267211914062,0.22644424438476562,-9.877532720565796E-4,2023-10-21T14:54:50.310579Z,1697900090310
0.10196542739868164,0.23128223419189453,-0.0012930519878864288,2023-10-21T14:54:50.330713Z,1697900090330
0.10463857650756836,0.23676300048828125,-0.001569792628288269,2023-10-21T14:54:50.351198Z,1697900090351
0.10737013816833496,0.2424640655517578,-0.0018203556537628174,2023-10-21T14:54:50.371393Z,1697900090371
0.10988497734069824,0.2478494644165039,-0.0020362213253974915,2023-10-21T14:54:50.391593Z,1697900090391
0.11207461357116699,0.2527198791503906,-0.002225153148174286,2023-10-21T14:54:50.411772Z,1697900090411
0.11382246017456055,0.2568550109863281,-0.0023908689618110657,2023-10-21T14:54:50.434551Z,1697900090434
0.1150667667388916,0.26014137268066406,-0.0025344118475914,2023-10-21T14:54:50.452327Z,1697900090452
0.11574220657348633,0.26243114471435547,-0.00265677273273468,2023-10-21T14:54:50.472660Z,1697900090472
0.11585855484008789,0.26367855072021484,-0.0027574896812438965,2023-10-21T14:54:50.492890Z,1697900090492
0.11554121971130371,0.26407337188720703,-0.0028312578797340393,2023-10-21T14:54:50.513082Z,1697900090513
0.11499547958374023,0.26397037506103516,-0.00287773460149765,2023-10-21T14:54:50.534435Z,1697900090534
0.11444783210754395,0.2637901306152344,-0.002891331911087036,2023-10-21T14:54:50.553672Z,1697900090553
0.11405801773071289,0.2638578414916992,-0.0028594136238098145,2023-10-21T14:54:50.573978Z,1697900090573
0.11386442184448242,0.26425838470458984,-0.0027710944414138794,2023-10-21T14:54:50.594190Z,1697900090594
0.11380839347839355,0.26486968994140625,-0.002621263265609741,2023-10-21T14:54:50.617829Z,1697900090617
0.11384725570678711,0.26561832427978516,-0.002403460443019867,2023-10-21T14:54:50.634951Z,1697900090634
0.11398077011108398,0.26653099060058594,-0.002115987241268158,2023-10-21T14:54:50.655023Z,1697900090654
0.11412596702575684,0.2674570083618164,-0.0017455480992794037,2023-10-21T14:54:50.675335Z,1697900090675
0.11411142349243164,0.26805973052978516,-0.0012762509286403656,2023-10-21T14:54:50.695571Z,1697900090695
0.11371159553527832,0.2678852081298828,-6.957482546567917E-4,2023-10-21T14:54:50.717803Z,1697900090717
0.11277961730957031,0.26662540435791016,-2.990964276250452E-6,2023-10-21T14:54:50.736072Z,1697900090735
0.11129355430603027,0.2642326354980469,8.065272122621536E-4,2023-10-21T14:54:50.756408Z,1697900090756
0.1093595027923584,0.2608833312988281,0.0017230510711669922,2023-10-21T14:54:50.776593Z,1697900090776
0.10721588134765625,0.2570343017578125,0.002735413610935211,2023-10-21T14:54:50.796770Z,1697900090796
0.1050112247467041,0.2529420852661133,0.0038284361362457275,2023-10-21T14:54:50.817484Z,1697900090817
0.10282397270202637,0.2487030029296875,0.004973456263542175,2023-10-21T14:54:50.837375Z,1697900090837
0.10056233406066895,0.24406051635742188,0.006144404411315918,2023-10-21T14:54:50.857641Z,1697900090857
0.09812450408935547,0.238739013671875,0.007297128438949585,2023-10-21T14:54:50.877873Z,1697900090877
0.09547877311706543,0.23264694213867188,0.008405804634094238,2023-10-21T14:54:50.900889Z,1697900090900
0.09267306327819824,0.22589778900146484,0.009448230266571045,2023-10-21T14:54:50.918411Z,1697900090918
0.0896904468536377,0.21848678588867188,0.010406821966171265,2023-10-21T14:54:50.938725Z,1697900090938
0.08638191223144531,0.21013164520263672,0.011239409446716309,2023-10-21T14:54:50.958976Z,1697900090958
0.0825505256652832,0.20047664642333984,0.011898219585418701,2023-10-21T14:54:50.979149Z,1697900090979
0.0780940055847168,0.18938636779785156,0.012336194515228271,2023-10-21T14:54:51.000847Z,1697900091000
0.0730752944946289,0.17711734771728516,0.012547314167022705,2023-10-21T14:54:51.019765Z,1697900091019
0.06773519515991211,0.1642751693725586,0.012568652629852295,2023-10-21T14:54:51.040059Z,1697900091040
0.06235194206237793,0.1515188217163086,0.012450695037841797,2023-10-21T14:54:51.060265Z,1697900091060
0.05711197853088379,0.13923263549804688,0.012224972248077393,2023-10-21T14:54:51.080528Z,1697900091080
0.052120208740234375,0.12759780883789062,0.011915326118469238,2023-10-21T14:54:51.100784Z,1697900091100
0.047339439392089844,0.11645984649658203,0.01151120662689209,2023-10-21T14:54:51.121082Z,1697900091121
0.04268622398376465,0.105560302734375,0.010987639427185059,2023-10-21T14:54:51.141358Z,1697900091141
0.038164615631103516,0.09487152099609375,0.010349512100219727,2023-10-21T14:54:51.161590Z,1697900091161
0.033799171447753906,0.08442974090576172,0.009599566459655762,2023-10-21T14:54:51.184527Z,1697900091184
0.029668331146240234,0.07442569732666016,0.008769869804382324,2023-10-21T14:54:51.202092Z,1697900091202
0.025826215744018555,0.0650033950805664,0.00789642333984375,2023-10-21T14:54:51.222414Z,1697900091222
0.02218461036682129,0.055962562561035156,0.006972908973693848,2023-10-21T14:54:51.242645Z,1697900091242
0.0186460018157959,0.047097206115722656,0.0059860944747924805,2023-10-21T14:54:51.262822Z,1697900091262
0.015130281448364258,0.03825187683105469,0.004931449890136719,2023-10-21T14:54:51.284049Z,1697900091284
0.01162862777709961,0.029442787170410156,0.0038270950317382812,2023-10-21T14:54:51.303499Z,1697900091303
0.008355140686035156,0.02121734619140625,0.002768278121948242,2023-10-21T14:54:51.323787Z,1697900091323
0.005663871765136719,0.014451980590820312,0.001881241798400879,2023-10-21T14:54:51.344039Z,1697900091343
0.003985166549682617,0.0102386474609375,0.001326441764831543,2023-10-21T14:54:51.367710Z,1697900091367
0.0036911964416503906,0.009568214416503906,0.0012309551239013672,2023-10-21T14:54:51.384809Z,1697900091384
0.004846334457397461,0.012697219848632812,0.0016188621520996094,2023-10-21T14:54:51.404839Z,1697900091404
0.007274627685546875,0.019303321838378906,0.0024275779724121094,2023-10-21T14:54:51.425041Z,1697900091425
0.010768651962280273,0.028992652893066406,0.003586411476135254,2023-10-21T14:54:51.445264Z,1697900091445
0.015213966369628906,0.041617393493652344,0.005037903785705566,2023-10-21T14:54:51.466804Z,1697900091466
0.020570755004882812,0.05719470977783203,0.006754398345947266,2023-10-21T14:54:51.485816Z,1697900091485
0.0266873836517334,0.07537269592285156,0.00864720344543457,2023-10-21T14:54:51.506095Z,1697900091506
0.033240318298339844,0.09519386291503906,0.010572314262390137,2023-10-21T14:54:51.526290Z,1697900091526
0.039730072021484375,0.1150808334350586,0.012316882610321045,2023-10-21T14:54:51.546483Z,1697900091546
0.04566836357116699,0.13341045379638672,0.013676881790161133,2023-10-21T14:54:51.566826Z,1697900091566
0.050753116607666016,0.14910602569580078,0.01452779769897461,2023-10-21T14:54:51.587131Z,1697900091587
0.0549471378326416,0.16189289093017578,0.014859795570373535,2023-10-21T14:54:51.607416Z,1697900091607
0.05850100517272949,0.17239856719970703,0.014772176742553711,2023-10-21T14:54:51.627592Z,1697900091627
0.061667680740356445,0.18129634857177734,0.01436007022857666,2023-10-21T14:54:51.650224Z,1697900091650
0.06463027000427246,0.18909931182861328,0.013703644275665283,2023-10-21T14:54:51.668170Z,1697900091668
0.0674741268157959,0.196075439453125,0.012856721878051758,2023-10-21T14:54:51.688488Z,1697900091688
0.07015562057495117,0.20215129852294922,0.011819541454315186,2023-10-21T14:54:51.708719Z,1697900091708
0.07274961471557617,0.20760822296142578,0.010621339082717896,2023-10-21T14:54:51.728910Z,1697900091728
0.07536435127258301,0.2128143310546875,0.009296417236328125,2023-10-21T14:54:51.750259Z,1697900091750
0.07817530632019043,0.2182760238647461,0.007870018482208252,2023-10-21T14:54:51.769532Z,1697900091769
0.08127617835998535,0.2241840362548828,0.006362289190292358,2023-10-21T14:54:51.789780Z,1697900091789
0.08468008041381836,0.23048019409179688,0.004764378070831299,2023-10-21T14:54:51.809998Z,1697900091809
0.08820462226867676,0.2365713119506836,0.003047943115234375,2023-10-21T14:54:51.830329Z,1697900091830
0.09157943725585938,0.2417316436767578,0.001196201890707016,2023-10-21T14:54:51.850589Z,1697900091850
0.0944218635559082,0.24503421783447266,-7.7773816883564E-4,2023-10-21T14:54:51.870909Z,1697900091870
0.09640073776245117,0.24577903747558594,-0.002819940447807312,2023-10-21T14:54:51.891078Z,1697900091891
0.09746766090393066,0.2440032958984375,-0.0048582106828689575,2023-10-21T14:54:51.911286Z,1697900091911
0.09763431549072266,0.23988914489746094,-0.0068090856075286865,2023-10-21T14:54:51.933441Z,1697900091933
0.09715151786804199,0.23418140411376953,-0.008623272180557251,2023-10-21T14:54:51.951903Z,1697900091951
0.09613680839538574,0.2272777557373047,-0.010266125202178955,2023-10-21T14:54:51.972163Z,1697900091972
0.09463858604431152,0.21942424774169922,-0.01171305775642395,2023-10-21T14:54:51.992370Z,1697900091992
0.09273219108581543,0.21090984344482422,-0.012958407402038574,2023-10-21T14:54:52.012582Z,1697900092012
0.09060239791870117,0.20223045349121094,-0.014010787010192871,2023-10-21T14:54:52.033256Z,1697900092033
0.08874797821044922,0.19450664520263672,-0.014946401119232178,2023-10-21T14:54:52.053195Z,1697900092053
0.08784723281860352,0.1891498565673828,-0.01590067148208618,2023-10-21T14:54:52.073464Z,1697900092073
0.08842182159423828,0.18714523315429688,-0.017009437084197998,2023-10-21T14:54:52.093696Z,1697900092093
0.09067535400390625,0.18880653381347656,-0.018374085426330566,2023-10-21T14:54:52.116628Z,1697900092116
0.0945124626159668,0.19384098052978516,-0.020037353038787842,2023-10-21T14:54:52.134258Z,1697900092134
0.09975814819335938,0.20184803009033203,-0.022020339965820312,2023-10-21T14:54:52.154530Z,1697900092154
0.10616493225097656,0.2123241424560547,-0.02432417869567871,2023-10-21T14:54:52.174762Z,1697900092174
0.11337423324584961,0.2245798110961914,-0.026897430419921875,2023-10-21T14:54:52.194972Z,1697900092194
0.12093305587768555,0.23778724670410156,-0.029653429985046387,2023-10-21T14:54:52.216311Z,1697900092216
0.12832355499267578,0.25101470947265625,-0.0324859619140625,2023-10-21T14:54:52.235556Z,1697900092235
0.13523101806640625,0.2637357711791992,-0.03532612323760986,2023-10-21T14:54:52.255854Z,1697900092255
0.1412973403930664,0.27531909942626953,-0.03810429573059082,2023-10-21T14:54:52.276038Z,1697900092276
0.14636516571044922,0.2854728698730469,-0.040782928466796875,2023-10-21T14:54:52.296255Z,1697900092296
0.15038681030273438,0.294036865234375,-0.043329715728759766,2023-10-21T14:54:52.316587Z,1697900092316
0.15340948104858398,0.30097389221191406,-0.04572105407714844,2023-10-21T14:54:52.336884Z,1697900092336
0.1555342674255371,0.30631065368652344,-0.04792618751525879,2023-10-21T14:54:52.357153Z,1697900092357
0.15698528289794922,0.3103160858154297,-0.04995536804199219,2023-10-21T14:54:52.377423Z,1697900092377
0.15814685821533203,0.31362056732177734,-0.05189812183380127,2023-10-21T14:54:52.399728Z,1697900092399
0.1594090461730957,0.31689929962158203,-0.05386817455291748,2023-10-21T14:54:52.417905Z,1697900092417
0.16120576858520508,0.3209562301635742,-0.05600917339324951,2023-10-21T14:54:52.438210Z,1697900092438
0.16346263885498047,0.3256044387817383,-0.05828666687011719,2023-10-21T14:54:52.458432Z,1697900092458
0.16617202758789062,0.3308067321777344,-0.06067037582397461,2023-10-21T14:54:52.478693Z,1697900092478
0.16919660568237305,0.33633995056152344,-0.06309652328491211,2023-10-21T14:54:52.499437Z,1697900092499
0.17249059677124023,0.34220027923583984,-0.06553971767425537,2023-10-21T14:54:52.519478Z,1697900092519
0.1759943962097168,0.34837818145751953,-0.06797623634338379,2023-10-21T14:54:52.539532Z,1697900092539
0.17940044403076172,0.3543863296508789,-0.0702962875366211,2023-10-21T14:54:52.559726Z,1697900092559
0.1824474334716797,0.3598041534423828,-0.0724034309387207,2023-10-21T14:54:52.582748Z,1697900092582
0.18477439880371094,0.36397743225097656,-0.07411706447601318,2023-10-21T14:54:52.600275Z,1697900092600
0.18610715866088867,0.3663625717163086,-0.07527577877044678,2023-10-21T14:54:52.620595Z,1697900092620
0.18603849411010742,0.36611270904541016,-0.0756535530090332,2023-10-21T14:54:52.640830Z,1697900092640
0.1842670440673828,0.36261749267578125,-0.07509088516235352,2023-10-21T14:54:52.661049Z,1697900092661
0.18062210083007812,0.35553646087646484,-0.07352805137634277,2023-10-21T14:54:52.682713Z,1697900092682
0.17540407180786133,0.34543800354003906,-0.07113349437713623,2023-10-21T14:54:52.701619Z,1697900092701
0.1691141128540039,0.33328723907470703,-0.06816506385803223,2023-10-21T14:54:52.721900Z,1697900092721
0.16223669052124023,0.3200111389160156,-0.06484901905059814,2023-10-21T14:54:52.742120Z,1697900092742
0.15512561798095703,0.30631446838378906,-0.061354637145996094,2023-10-21T14:54:52.762286Z,1697900092762
0.1478734016418457,0.2923707962036133,-0.057704925537109375,2023-10-21T14:54:52.782804Z,1697900092782
0.14060592651367188,0.27841758728027344,-0.053969621658325195,2023-10-21T14:54:52.802961Z,1697900092802
0.1333761215209961,0.26456737518310547,-0.050196051597595215,2023-10-21T14:54:52.823217Z,1697900092823
0.12648296356201172,0.25144004821777344,-0.046538591384887695,2023-10-21T14:54:52.843450Z,1697900092843
0.12025165557861328,0.23973941802978516,-0.043155550956726074,2023-10-21T14:54:52.866100Z,1697900092866
0.1148676872253418,0.22988319396972656,-0.04012894630432129,2023-10-21T14:54:52.884020Z,1697900092883
0.11023473739624023,0.2216777801513672,-0.03741562366485596,2023-10-21T14:54:52.904333Z,1697900092904
0.10607004165649414,0.2145223617553711,-0.034890055656433105,2023-10-21T14:54:52.924537Z,1697900092924
0.10215377807617188,0.20790767669677734,-0.0324704647064209,2023-10-21T14:54:52.944740Z,1697900092944
0.09847116470336914,0.20173168182373047,-0.030176997184753418,2023-10-21T14:54:52.966359Z,1697900092966
0.09508991241455078,0.1960430145263672,-0.028052687644958496,2023-10-21T14:54:52.985302Z,1697900092985
0.09237432479858398,0.19154930114746094,-0.026206135749816895,2023-10-21T14:54:53.005628Z,1697900093005
0.09058952331542969,0.18876075744628906,-0.024689912796020508,2023-10-21T14:54:53.025828Z,1697900093025
0.0897517204284668,0.18772602081298828,-0.02348005771636963,2023-10-21T14:54:53.049229Z,1697900093049
0.0896148681640625,0.18798065185546875,-0.022529959678649902,2023-10-21T14:54:53.066346Z,1697900093066
0.08975982666015625,0.18863773345947266,-0.021726012229919434,2023-10-21T14:54:53.086665Z,1697900093086
0.09020709991455078,0.18971729278564453,-0.02108520269393921,2023-10-21T14:54:53.106902Z,1697900093106
0.0909428596496582,0.19105052947998047,-0.02059072256088257,2023-10-21T14:54:53.127095Z,1697900093127
0.09223508834838867,0.1930408477783203,-0.020296871662139893,2023-10-21T14:54:53.149287Z,1697900093149
0.09416389465332031,0.19568347930908203,-0.02019345760345459,2023-10-21T14:54:53.167655Z,1697900093167
0.09683704376220703,0.19907569885253906,-0.020274996757507324,2023-10-21T14:54:53.187961Z,1697900093187
0.09990549087524414,0.20232295989990234,-0.02041494846343994,2023-10-21T14:54:53.208193Z,1697900093208
0.1030421257019043,0.20468711853027344,-0.0205003023147583,2023-10-21T14:54:53.228389Z,1697900093228
0.10599708557128906,0.20564937591552734,-0.020431995391845703,2023-10-21T14:54:53.249193Z,1697900093249
0.10870981216430664,0.20512676239013672,-0.02014005184173584,2023-10-21T14:54:53.269185Z,1697900093269
0.11115312576293945,0.2031688690185547,-0.019592583179473877,2023-10-21T14:54:53.289295Z,1697900093289
0.11288261413574219,0.19913673400878906,-0.018723368644714355,2023-10-21T14:54:53.309525Z,1697900093309
0.11353302001953125,0.19274044036865234,-0.017529606819152832,2023-10-21T14:54:53.332895Z,1697900093332
0.11212730407714844,0.1828327178955078,-0.015933632850646973,2023-10-21T14:54:53.350010Z,1697900093349
0.10756587982177734,0.16829586029052734,-0.013891398906707764,2023-10-21T14:54:53.370337Z,1697900093370
0.09855937957763672,0.14791488647460938,-0.011395692825317383,2023-10-21T14:54:53.390588Z,1697900093390
0.08408546447753906,0.12108230590820312,-0.008577823638916016,2023-10-21T14:54:53.410816Z,1697900093410
0.0638284683227539,0.08824443817138672,-0.005666613578796387,2023-10-21T14:54:53.432428Z,1697900093432
0.03821372985839844,0.050759315490722656,-0.0029204487800598145,2023-10-21T14:54:53.451450Z,1697900093451
0.00875091552734375,0.011176109313964844,-5.696713924407959E-4,2023-10-21T14:54:53.471629Z,1697900093471
-0.022797584533691406,-0.028031349182128906,0.00126686692237854,2023-10-21T14:54:53.491892Z,1697900093491
-0.05523061752319336,-0.06550359725952148,0.0026233792304992676,2023-10-21T14:54:53.512394Z,1697900093512
-0.08720970153808594,-0.10005903244018555,0.0036048293113708496,2023-10-21T14:54:53.532368Z,1697900093532
-0.115966796875,-0.12914371490478516,0.004312798380851746,2023-10-21T14:54:53.552669Z,1697900093552
-0.13825654983520508,-0.1499319076538086,0.004831776022911072,2023-10-21T14:54:53.572946Z,1697900093572
-0.15236997604370117,-0.16147947311401367,0.005257532000541687,2023-10-21T14:54:53.593189Z,1697900093593
-0.15993738174438477,-0.16632843017578125,0.005692124366760254,2023-10-21T14:54:53.615614Z,1697900093615
-0.16411733627319336,-0.1683664321899414,0.006244063377380371,2023-10-21T14:54:53.633750Z,1697900093633
-0.16802310943603516,-0.17110872268676758,0.007007986307144165,2023-10-21T14:54:53.653999Z,1697900093653
-0.17395305633544922,-0.1770315170288086,0.008086085319519043,2023-10-21T14:54:53.674227Z,1697900093674
-0.18335485458374023,-0.18770074844360352,0.009613603353500366,2023-10-21T14:54:53.694489Z,1697900093694
-0.19635820388793945,-0.2034611701965332,0.011729925870895386,2023-10-21T14:54:53.715390Z,1697900093715
-0.21274137496948242,-0.2243337631225586,0.014581352472305298,2023-10-21T14:54:53.735057Z,1697900093735
-0.2328176498413086,-0.25099992752075195,0.01838630437850952,2023-10-21T14:54:53.755362Z,1697900093755
-0.25661230087280273,-0.2839999198913574,0.023486435413360596,2023-10-21T14:54:53.775545Z,1697900093775
-0.28211116790771484,-0.3216562271118164,0.030133485794067383,2023-10-21T14:54:53.798572Z,1697900093798
-0.3046736717224121,-0.3590421676635742,0.03827691078186035,2023-10-21T14:54:53.816074Z,1697900093816
-0.3202686309814453,-0.3910403251647949,0.04753798246383667,2023-10-21T14:54:53.836379Z,1697900093836
-0.32584142684936523,-0.4127950668334961,0.05718362331390381,2023-10-21T14:54:53.856730Z,1697900093856
-0.31959009170532227,-0.42028045654296875,0.0662221908569336,2023-10-21T14:54:53.876863Z,1697900093876
-0.2999439239501953,-0.40927696228027344,0.07319474220275879,2023-10-21T14:54:53.898625Z,1697900093898
-0.26701974868774414,-0.3776693344116211,0.0764009952545166,2023-10-21T14:54:53.917422Z,1697900093917
-0.22274208068847656,-0.32629966735839844,0.07432615756988525,2023-10-21T14:54:53.937685Z,1697900093937
-0.16984128952026367,-0.25776147842407227,0.06572341918945312,2023-10-21T14:54:53.957942Z,1697900093957
-0.11112642288208008,-0.17497682571411133,0.04959225654602051,2023-10-21T14:54:53.978124Z,1697900093978
-0.049005985260009766,-0.08022117614746094,0.025068998336791992,2023-10-21T14:54:53.998512Z,1697900093998
0.014807701110839844,0.02523040771484375,-0.008621931076049805,2023-10-21T14:54:54.018803Z,1697900094018
0.07924032211303711,0.14041900634765625,-0.052089691162109375,2023-10-21T14:54:54.039025Z,1697900094038
0.1426987648010254,0.2619771957397461,-0.10487031936645508,2023-10-21T14:54:54.059533Z,1697900094059
0.2027120590209961,0.38298702239990234,-0.16465044021606445,2023-10-21T14:54:54.082083Z,1697900094082
0.2570476531982422,0.4953269958496094,-0.2280445098876953,2023-10-21T14:54:54.099787Z,1697900094099
0.3066062927246094,0.5962042808532715,-0.29385805130004883,2023-10-21T14:54:54.120086Z,1697900094120
0.35431432723999023,0.686518669128418,-0.3630337715148926,2023-10-21T14:54:54.140330Z,1697900094140
0.4064369201660156,0.7752799987792969,-0.4419441223144531,2023-10-21T14:54:54.160546Z,1697900094160
0.46411800384521484,0.8651537895202637,-0.5334854125976562,2023-10-21T14:54:54.181777Z,1697900094181
0.5248064994812012,0.9504261016845703,-0.6350564956665039,2023-10-21T14:54:54.201259Z,1697900094201
0.5860257148742676,1.0228090286254883,-0.7405548095703125,2023-10-21T14:54:54.221572Z,1697900094221
0.6477808952331543,1.074655532836914,-0.8436970710754395,2023-10-21T14:54:54.241790Z,1697900094241
0.7133755683898926,1.109006404876709,-0.9459495544433594,2023-10-21T14:54:54.265702Z,1697900094265
0.783327579498291,1.130821704864502,-1.0500569343566895,2023-10-21T14:54:54.282995Z,1697900094282
0.854194164276123,1.1411714553833008,-1.1544103622436523,2023-10-21T14:54:54.302441Z,1697900094302
0.9214305877685547,1.138021469116211,-1.2534618377685547,2023-10-21T14:54:54.322660Z,1697900094322
0.9794354438781738,1.1186809539794922,-1.3388261795043945,2023-10-21T14:54:54.342860Z,1697900094342
1.0206832885742188,1.0761637687683105,-1.395442008972168,2023-10-21T14:54:54.365009Z,1697900094364
1.0463366508483887,1.0108413696289062,-1.4188079833984375,2023-10-21T14:54:54.383499Z,1697900094383
1.0590100288391113,0.9285516738891602,-1.4121603965759277,2023-10-21T14:54:54.403751Z,1697900094403
1.0594100952148438,0.8366274833679199,-1.3823485374450684,2023-10-21T14:54:54.424139Z,1697900094424
1.0432357788085938,0.7405672073364258,-1.3320159912109375,2023-10-21T14:54:54.444328Z,1697900094444
1.0040502548217773,0.6403934955596924,-1.2561321258544922,2023-10-21T14:54:54.465101Z,1697900094465
0.9419369697570801,0.5370450019836426,-1.1533937454223633,2023-10-21T14:54:54.484789Z,1697900094484
0.8611631393432617,0.43363022804260254,-1.0278925895690918,2023-10-21T14:54:54.505083Z,1697900094505
0.7620677947998047,0.33280348777770996,-0.8818130493164062,2023-10-21T14:54:54.525303Z,1697900094525
0.6433143615722656,0.23752665519714355,-0.717404842376709,2023-10-21T14:54:54.548188Z,1697900094548
0.5020604133605957,0.15160679817199707,-0.5370841026306152,2023-10-21T14:54:54.565800Z,1697900094565
0.33710575103759766,0.07961440086364746,-0.3448209762573242,2023-10-21T14:54:54.586122Z,1697900094586
0.14895057678222656,0.025753021240234375,-0.14522361755371094,2023-10-21T14:54:54.606363Z,1697900094606
-0.06277751922607422,-0.007038235664367676,0.05809736251831055,2023-10-21T14:54:54.626593Z,1697900094626
-0.3006868362426758,-0.015985101461410522,0.2625551223754883,2023-10-21T14:54:54.648069Z,1697900094648
-0.5684762001037598,0.0025277063250541687,0.462954044342041,2023-10-21T14:54:54.667193Z,1697900094667
-0.8517637252807617,0.051992267370224,0.6358728408813477,2023-10-21T14:54:54.687481Z,1697900094687
-1.1369380950927734,0.12906688451766968,0.7613544464111328,2023-10-21T14:54:54.707663Z,1697900094707
-1.4117975234985352,0.22523963451385498,0.8314461708068848,2023-10-21T14:54:54.727840Z,1697900094727
-1.682342529296875,0.33182787895202637,0.8565924167633057,2023-10-21T14:54:54.748248Z,1697900094748
-1.95151948928833,0.4414633512496948,0.8409502506256104,2023-10-21T14:54:54.768555Z,1697900094768
-2.2030410766601562,0.5452525615692139,0.7772133350372314,2023-10-21T14:54:54.788783Z,1697900094788
-2.4117794036865234,0.6320822238922119,0.6630243062973022,2023-10-21T14:54:54.808967Z,1697900094808
-2.5637736320495605,0.6927510499954224,0.5095723867416382,2023-10-21T14:54:54.831410Z,1697900094831
-2.653927803039551,0.7208760976791382,0.3369789123535156,2023-10-21T14:54:54.849515Z,1697900094849
-2.6941680908203125,0.717715859413147,0.17342960834503174,2023-10-21T14:54:54.869841Z,1697900094869
-2.7179489135742188,0.6917920112609863,0.034823209047317505,2023-10-21T14:54:54.890034Z,1697900094889
-2.739993095397949,0.6527057886123657,-0.07531677186489105,2023-10-21T14:54:54.910304Z,1697900094910
-2.74918794631958,0.6005463600158691,-0.16395846009254456,2023-10-21T14:54:54.931047Z,1697900094930
-2.7132225036621094,0.5325841903686523,-0.23162192106246948,2023-10-21T14:54:54.950847Z,1697900094950
-2.615621566772461,0.4516063928604126,-0.2736022472381592,2023-10-21T14:54:54.971116Z,1697900094971
-2.466709613800049,0.3640024662017822,-0.2889297604560852,2023-10-21T14:54:54.991330Z,1697900094991
-2.2827820777893066,0.276614785194397,-0.28167158365249634,2023-10-21T14:54:55.014666Z,1697900095014
-2.073009967803955,0.19426167011260986,-0.256705641746521,2023-10-21T14:54:55.031858Z,1697900095031
-1.8423690795898438,0.12028169631958008,-0.21978724002838135,2023-10-21T14:54:55.052133Z,1697900095052
-1.5918550491333008,0.05775633454322815,-0.176857590675354,2023-10-21T14:54:55.072451Z,1697900095072
-1.3231630325317383,0.009523827582597733,-0.13297170400619507,2023-10-21T14:54:55.092644Z,1697900095092
-1.0426912307739258,-0.022461622953414917,-0.09202694892883301,2023-10-21T14:54:55.114448Z,1697900095114
-0.7583951950073242,-0.03802916407585144,-0.056830644607543945,2023-10-21T14:54:55.133228Z,1697900095133
-0.4783496856689453,-0.037902116775512695,-0.029031991958618164,2023-10-21T14:54:55.153514Z,1697900095153
-0.21290206909179688,-0.023078203201293945,-0.009625256061553955,2023-10-21T14:54:55.173722Z,1697900095173
0.030981063842773438,0.0042536258697509766,8.842349052429199E-4,2023-10-21T14:54:55.194145Z,1697900095194
0.2457113265991211,0.040503740310668945,0.0024944692850112915,2023-10-21T14:54:55.214463Z,1697900095214
0.4319791793823242,0.08255493640899658,-0.004061736166477203,2023-10-21T14:54:55.234754Z,1697900095234
0.5939607620239258,0.12865209579467773,-0.017762571573257446,2023-10-21T14:54:55.254991Z,1697900095254
0.7329931259155273,0.17694878578186035,-0.03742790222167969,2023-10-21T14:54:55.275268Z,1697900095275
0.8502140045166016,0.22599077224731445,-0.061669766902923584,2023-10-21T14:54:55.297769Z,1697900095297
0.9467525482177734,0.2745373249053955,-0.08888792991638184,2023-10-21T14:54:55.315743Z,1697900095315
1.0216093063354492,0.32056570053100586,-0.11747908592224121,2023-10-21T14:54:55.336070Z,1697900095336
1.0747957229614258,0.36188673973083496,-0.1459197998046875,2023-10-21T14:54:55.356401Z,1697900095356
1.1107101440429688,0.39870572090148926,-0.17285704612731934,2023-10-21T14:54:55.376625Z,1697900095376
1.1315689086914062,0.43102574348449707,-0.19712674617767334,2023-10-21T14:54:55.397847Z,1697900095397
1.1399250030517578,0.4602689743041992,-0.21714460849761963,2023-10-21T14:54:55.417107Z,1697900095417
1.1323843002319336,0.4847888946533203,-0.23198390007019043,2023-10-21T14:54:55.437394Z,1697900095437
1.1034221649169922,0.5009989738464355,-0.23994779586791992,2023-10-21T14:54:55.457608Z,1697900095457
1.0540809631347656,0.5080785751342773,-0.24084806442260742,2023-10-21T14:54:55.481078Z,1697900095481
0.9864530563354492,0.5053396224975586,-0.23500537872314453,2023-10-21T14:54:55.498133Z,1697900095498
0.9024648666381836,0.4921083450317383,-0.2229752540588379,2023-10-21T14:54:55.518455Z,1697900095518
0.8051233291625977,0.46816444396972656,-0.20563554763793945,2023-10-21T14:54:55.538689Z,1697900095538
0.6967630386352539,0.43283987045288086,-0.1836087703704834,2023-10-21T14:54:55.558924Z,1697900095558
0.5819520950317383,0.3869056701660156,-0.15811967849731445,2023-10-21T14:54:55.581042Z,1697900095581
0.4665036201477051,0.3323831558227539,-0.13077235221862793,2023-10-21T14:54:55.599342Z,1697900095599
0.35648679733276367,0.27240848541259766,-0.10321927070617676,2023-10-21T14:54:55.619659Z,1697900095619
0.2578139305114746,0.2112865447998047,-0.07717633247375488,2023-10-21T14:54:55.639825Z,1697900095639
0.1746368408203125,0.15337324142456055,-0.05405831336975098,2023-10-21T14:54:55.660031Z,1697900095659
0.1082310676574707,0.10172033309936523,-0.034631967544555664,2023-10-21T14:54:55.680897Z,1697900095680
0.05782127380371094,0.05804920196533203,-0.019108057022094727,2023-10-21T14:54:55.700654Z,1697900095700
0.022119522094726562,0.023664474487304688,-0.007532596588134766,2023-10-21T14:54:55.720938Z,1697900095720
-8.111000061035156E-4,-9.212493896484375E-4,2.8395652770996094E-4,2023-10-21T14:54:55.741244Z,1697900095741
-0.012914657592773438,-0.015539169311523438,0.004616260528564453,2023-10-21T14:54:55.764030Z,1697900095763
-0.01659679412841797,-0.02107095718383789,0.006036043167114258,2023-10-21T14:54:55.781680Z,1697900095781
-0.01402425765991211,-0.01873493194580078,0.005166769027709961,2023-10-21T14:54:55.802172Z,1697900095802
-0.0066814422607421875,-0.009369373321533203,0.0024840831756591797,2023-10-21T14:54:55.822391Z,1697900095822
0.004127979278564453,0.006061077117919922,-0.0015459060668945312,2023-10-21T14:54:55.842641Z,1697900095842
0.0165863037109375,0.025437355041503906,-0.006242036819458008,2023-10-21T14:54:55.864150Z,1697900095864
0.029426097869873047,0.04703330993652344,-0.011120080947875977,2023-10-21T14:54:55.883025Z,1697900095882
0.04196023941040039,0.06972885131835938,-0.01590597629547119,2023-10-21T14:54:55.903288Z,1697900095903
0.053863525390625,0.09282302856445312,-0.020475149154663086,2023-10-21T14:54:55.923550Z,1697900095923
0.06526803970336914,0.11631107330322266,-0.024891376495361328,2023-10-21T14:54:55.943752Z,1697900095943
0.07613801956176758,0.13988208770751953,-0.029178500175476074,2023-10-21T14:54:55.964038Z,1697900095963
0.08604717254638672,0.16249942779541016,-0.033213019371032715,2023-10-21T14:54:55.984368Z,1697900095984
0.09465456008911133,0.1831989288330078,-0.03686988353729248,2023-10-21T14:54:56.004577Z,1697900096004
0.10179424285888672,0.2013225555419922,-0.040055036544799805,2023-10-21T14:54:56.024830Z,1697900096024
0.10754585266113281,0.216705322265625,-0.042775630950927734,2023-10-21T14:54:56.046998Z,1697900096046
0.1122899055480957,0.22985553741455078,-0.04518532752990723,2023-10-21T14:54:56.065373Z,1697900096065
0.11600875854492188,0.24055099487304688,-0.0472874641418457,2023-10-21T14:54:56.085680Z,1697900096085
0.11852312088012695,0.24831390380859375,-0.0490264892578125,2023-10-21T14:54:56.105911Z,1697900096105
0.11975908279418945,0.25287723541259766,-0.05037868022918701,2023-10-21T14:54:56.126105Z,1697900096126
0.11949968338012695,0.2536916732788086,-0.05122721195220947,2023-10-21T14:54:56.147012Z,1697900096146
0.11771631240844727,0.2506275177001953,-0.051488280296325684,2023-10-21T14:54:56.166694Z,1697900096166
0.1149301528930664,0.24468326568603516,-0.05126535892486572,2023-10-21T14:54:56.187Z,1697900096186
0.11189842224121094,0.23739242553710938,-0.050811767578125,2023-10-21T14:54:56.207294Z,1697900096207
0.10917329788208008,0.22995567321777344,-0.05034291744232178,2023-10-21T14:54:56.230566Z,1697900096230
0.10693502426147461,0.22286319732666016,-0.04994380474090576,2023-10-21T14:54:56.247730Z,1697900096247
0.1053323745727539,0.21653079986572266,-0.04970693588256836,2023-10-21T14:54:56.268052Z,1697900096268
0.10458230972290039,0.21147823333740234,-0.04973936080932617,2023-10-21T14:54:56.288299Z,1697900096288
0.10506343841552734,0.20846176147460938,-0.05021023750305176,2023-10-21T14:54:56.308500Z,1697900096308
0.10700702667236328,0.20795059204101562,-0.05121016502380371,2023-10-21T14:54:56.330335Z,1697900096330
0.11082601547241211,0.21068286895751953,-0.05291175842285156,2023-10-21T14:54:56.349071Z,1697900096349
0.11739587783813477,0.21815967559814453,-0.05572962760925293,2023-10-21T14:54:56.369385Z,1697900096369
0.12717294692993164,0.23098087310791016,-0.059903621673583984,2023-10-21T14:54:56.389584Z,1697900096389
0.13989877700805664,0.24843120574951172,-0.06533288955688477,2023-10-21T14:54:56.409776Z,1697900096409
0.15491485595703125,0.2691326141357422,-0.07170557975769043,2023-10-21T14:54:56.430161Z,1697900096430
0.17164134979248047,0.29187583923339844,-0.0786902904510498,2023-10-21T14:54:56.450420Z,1697900096450
0.18962717056274414,0.3156776428222656,-0.08595943450927734,2023-10-21T14:54:56.470703Z,1697900096470
0.20806312561035156,0.3390226364135742,-0.09298324584960938,2023-10-21T14:54:56.490912Z,1697900096490
0.22544240951538086,0.3594226837158203,-0.09894013404846191,2023-10-21T14:54:56.513665Z,1697900096513
0.24024152755737305,0.3745403289794922,-0.10308122634887695,2023-10-21T14:54:56.531459Z,1697900096531
0.25134944915771484,0.38287925720214844,-0.10497093200683594,2023-10-21T14:54:56.551733Z,1697900096551
0.2579617500305176,0.3835897445678711,-0.10439300537109375,2023-10-21T14:54:56.572008Z,1697900096571
0.2594165802001953,0.3761758804321289,-0.1011967658996582,2023-10-21T14:54:56.592172Z,1697900096592
0.25519227981567383,0.3604164123535156,-0.09526419639587402,2023-10-21T14:54:56.613426Z,1697900096613
0.24481773376464844,0.33626556396484375,-0.08659958839416504,2023-10-21T14:54:56.632808Z,1697900096632
0.22789669036865234,0.30396175384521484,-0.07548129558563232,2023-10-21T14:54:56.653075Z,1697900096653
0.2042222023010254,0.26418542861938477,-0.06254065036773682,2023-10-21T14:54:56.673265Z,1697900096673
0.17435169219970703,0.21861505508422852,-0.04879021644592285,2023-10-21T14:54:56.696792Z,1697900096696
0.13945245742797852,0.16945695877075195,-0.03530263900756836,2023-10-21T14:54:56.713823Z,1697900096713
0.10137271881103516,0.11940288543701172,-0.023023605346679688,2023-10-21T14:54:56.734117Z,1697900096734
0.061595916748046875,0.0703577995300293,-0.012453794479370117,2023-10-21T14:54:56.754332Z,1697900096754
0.020696163177490234,0.022943973541259766,-0.0036901235580444336,2023-10-21T14:54:56.774578Z,1697900096774
-0.020816326141357422,-0.02242279052734375,0.0032368898391723633,2023-10-21T14:54:56.796679Z,1697900096796
-0.06161928176879883,-0.06461095809936523,0.008289158344268799,2023-10-21T14:54:56.815136Z,1697900096815
-0.09830427169799805,-0.1005716323852539,0.011409521102905273,2023-10-21T14:54:56.835438Z,1697900096835
-0.1268606185913086,-0.12703943252563477,0.012808084487915039,2023-10-21T14:54:56.855631Z,1697900096855
-0.14597320556640625,-0.14360666275024414,0.012986421585083008,2023-10-21T14:54:56.875908Z,1697900096875
-0.15731191635131836,-0.1526198387145996,0.012451112270355225,2023-10-21T14:54:56.896558Z,1697900096896
-0.16356468200683594,-0.15707111358642578,0.011549979448318481,2023-10-21T14:54:56.916481Z,1697900096916
-0.16675472259521484,-0.15909528732299805,0.01046648621559143,2023-10-21T14:54:56.936769Z,1697900096936
-0.16756486892700195,-0.15943002700805664,0.009306907653808594,2023-10-21T14:54:56.957056Z,1697900096957
-0.16730880737304688,-0.15935564041137695,0.008240610361099243,2023-10-21T14:54:56.979844Z,1697900096979
-0.1671590805053711,-0.15999889373779297,0.007413774728775024,2023-10-21T14:54:56.997495Z,1697900096997
-0.16811561584472656,-0.16233444213867188,0.006926178932189941,2023-10-21T14:54:57.017822Z,1697900097017
-0.1723613739013672,-0.1685342788696289,0.006864607334136963,2023-10-21T14:54:57.038046Z,1697900097038
-0.1826305389404297,-0.18145370483398438,0.0073094964027404785,2023-10-21T14:54:57.058293Z,1697900097058
-0.19940614700317383,-0.20194625854492188,0.008358985185623169,2023-10-21T14:54:57.079798Z,1697900097079
-0.2198805809020996,-0.22762727737426758,0.010157674551010132,2023-10-21T14:54:57.098884Z,1697900097098
-0.23957252502441406,-0.2542552947998047,0.012905627489089966,2023-10-21T14:54:57.119133Z,1697900097119
-0.25499582290649414,-0.2783336639404297,0.016775786876678467,2023-10-21T14:54:57.139336Z,1697900097139
-0.2645096778869629,-0.29806041717529297,0.02178555727005005,2023-10-21T14:54:57.159530Z,1697900097159
-0.2662210464477539,-0.3108844757080078,0.027563393115997314,2023-10-21T14:54:57.179864Z,1697900097179
-0.25841188430786133,-0.3137373924255371,0.033280014991760254,2023-10-21T14:54:57.200252Z,1697900097200
-0.24004507064819336,-0.30368947982788086,0.03775370121002197,2023-10-21T14:54:57.220434Z,1697900097220
-0.21135950088500977,-0.27901697158813477,0.03979372978210449,2023-10-21T14:54:57.240654Z,1697900097240
-0.17379999160766602,-0.23958921432495117,0.03847014904022217,2023-10-21T14:54:57.262945Z,1697900097262
-0.12935113906860352,-0.18628358840942383,0.03318428993225098,2023-10-21T14:54:57.281204Z,1697900097281
-0.08049249649047852,-0.12109804153442383,0.02365410327911377,2023-10-21T14:54:57.301495Z,1697900097301
-0.030655384063720703,-0.048152923583984375,0.01020359992980957,2023-10-21T14:54:57.321714Z,1697900097321
0.015332221984863281,0.025107383728027344,-0.005715727806091309,2023-10-21T14:54:57.342062Z,1697900097342
0.05274772644042969,0.08982372283935547,-0.021802186965942383,2023-10-21T14:54:57.362925Z,1697900097362
0.07943010330200195,0.1402273178100586,-0.03614473342895508,2023-10-21T14:54:57.382584Z,1697900097382
0.09644556045532227,0.1759958267211914,-0.04818534851074219,2023-10-21T14:54:57.402840Z,1697900097402
0.10607767105102539,0.19961929321289062,-0.058222293853759766,2023-10-21T14:54:57.423032Z,1697900097422
0.1099557876586914,0.2131185531616211,-0.0664365291595459,2023-10-21T14:54:57.446144Z,1697900097446
0.10899686813354492,0.21771526336669922,-0.07270383834838867,2023-10-21T14:54:57.463583Z,1697900097463
0.1054067611694336,0.21749401092529297,-0.0778510570526123,2023-10-21T14:54:57.483906Z,1697900097483
0.10366106033325195,0.2213888168334961,-0.08496880531311035,2023-10-21T14:54:57.504089Z,1697900097504
0.10811042785644531,0.23901653289794922,-0.09841084480285645,2023-10-21T14:54:57.524330Z,1697900097524
0.1208338737487793,0.27580833435058594,-0.12183737754821777,2023-10-21T14:54:57.546121Z,1697900097546
0.14177751541137695,0.33228397369384766,-0.15735459327697754,2023-10-21T14:54:57.564890Z,1697900097564
0.16907405853271484,0.4034414291381836,-0.20440101623535156,2023-10-21T14:54:57.585190Z,1697900097585
0.2013235092163086,0.4825162887573242,-0.26107072830200195,2023-10-21T14:54:57.605396Z,1697900097605
0.2395641803741455,0.5660839080810547,-0.3275284767150879,2023-10-21T14:54:57.625620Z,1697900097625
0.2839813232421875,0.6531672477722168,-0.40486669540405273,2023-10-21T14:54:57.646061Z,1697900097646
0.3326730728149414,0.7404351234436035,-0.4923849105834961,2023-10-21T14:54:57.666454Z,1697900097666
0.3841128349304199,0.8236861228942871,-0.5881557464599609,2023-10-21T14:54:57.686479Z,1697900097686
0.43367838859558105,0.8893327713012695,-0.6819329261779785,2023-10-21T14:54:57.706711Z,1697900097706
0.4806673526763916,0.9298176765441895,-0.7664985656738281,2023-10-21T14:54:57.729264Z,1697900097729
0.5247912406921387,0.9467148780822754,-0.8402776718139648,2023-10-21T14:54:57.747295Z,1697900097747
0.5641829967498779,0.9433884620666504,-0.9026474952697754,2023-10-21T14:54:57.767557Z,1697900097767
0.5987982749938965,0.925753116607666,-0.9564275741577148,2023-10-21T14:54:57.787764Z,1697900097787
0.6264772415161133,0.8966522216796875,-1.001765251159668,2023-10-21T14:54:57.808024Z,1697900097807
0.6399111747741699,0.8523130416870117,-1.0290894508361816,2023-10-21T14:54:57.829174Z,1697900097829
0.6379714012145996,0.7907824516296387,-1.0315251350402832,2023-10-21T14:54:57.848585Z,1697900097848
0.6245155334472656,0.7149901390075684,-1.0085492134094238,2023-10-21T14:54:57.868920Z,1697900097868
0.6014313697814941,0.6285243034362793,-0.9612932205200195,2023-10-21T14:54:57.889127Z,1697900097889
0.5701732635498047,0.5383362770080566,-0.8960371017456055,2023-10-21T14:54:57.912550Z,1697900097912
0.5251908302307129,0.44586849212646484,-0.8101434707641602,2023-10-21T14:54:57.929996Z,1697900097929
0.46535539627075195,0.3530154228210449,-0.7036256790161133,2023-10-21T14:54:57.949945Z,1697900097949
0.3946261405944824,0.26421523094177246,-0.5825934410095215,2023-10-21T14:54:57.970157Z,1697900097970
0.31458520889282227,0.18242168426513672,-0.45070505142211914,2023-10-21T14:54:57.990540Z,1697900097990
0.22072410583496094,0.10807037353515625,-0.30463266372680664,2023-10-21T14:54:58.012462Z,1697900098012
0.10873746871948242,0.043390750885009766,-0.14333152770996094,2023-10-21T14:54:58.030965Z,1697900098030
-0.020998477935791016,-0.006498575210571289,0.02621603012084961,2023-10-21T14:54:58.051272Z,1697900098051
-0.1645030975341797,-0.03666222095489502,0.19310855865478516,2023-10-21T14:54:58.071454Z,1697900098071
-0.3156299591064453,-0.0442776083946228,0.3471412658691406,2023-10-21T14:54:58.091648Z,1697900098091
-0.47696685791015625,-0.030046969652175903,0.49131155014038086,2023-10-21T14:54:58.112232Z,1697900098112
-0.6592645645141602,0.004927191883325577,0.6355533599853516,2023-10-21T14:54:58.132299Z,1697900098132
-0.8607401847839355,0.0620083212852478,0.7710990905761719,2023-10-21T14:54:58.152557Z,1697900098152
-1.069514274597168,0.13903462886810303,0.8778562545776367,2023-10-21T14:54:58.172845Z,1697900098172
-1.2765369415283203,0.23148751258850098,0.9452533721923828,2023-10-21T14:54:58.195717Z,1697900098195
-1.4749231338500977,0.3310035467147827,0.9740204811096191,2023-10-21T14:54:58.213325Z,1697900098213
-1.6742949485778809,0.43123960494995117,0.980074405670166,2023-10-21T14:54:58.233621Z,1697900098233
-1.8741044998168945,0.5277531147003174,0.966101884841919,2023-10-21T14:54:58.253951Z,1697900098253
-2.0625901222229004,0.6140835285186768,0.9270293712615967,2023-10-21T14:54:58.274079Z,1697900098274
-2.2336206436157227,0.683154821395874,0.8591289520263672,2023-10-21T14:54:58.295505Z,1697900098295
-2.370086669921875,0.7251484394073486,0.7589058876037598,2023-10-21T14:54:58.314656Z,1697900098314
-2.4432034492492676,0.7314183712005615,0.6319104433059692,2023-10-21T14:54:58.334931Z,1697900098334
-2.4578256607055664,0.7054668664932251,0.50209641456604,2023-10-21T14:54:58.355133Z,1697900098355
-2.43869686126709,0.6600334644317627,0.38948965072631836,2023-10-21T14:54:58.375361Z,1697900098375
-2.402040481567383,0.5995187759399414,0.2986656427383423,2023-10-21T14:54:58.395674Z,1697900098395
-2.341703414916992,0.5258560180664062,0.2240099310874939,2023-10-21T14:54:58.415986Z,1697900098415
-2.2324180603027344,0.44020509719848633,0.16116613149642944,2023-10-21T14:54:58.436231Z,1697900098436
-2.0739169120788574,0.3484116792678833,0.1103159487247467,2023-10-21T14:54:58.456451Z,1697900098456
-1.8812966346740723,0.2577674388885498,0.0716468095779419,2023-10-21T14:54:58.478873Z,1697900098478
-1.666346549987793,0.17366957664489746,0.044500336050987244,2023-10-21T14:54:58.496998Z,1697900098496
-1.4379329681396484,0.1003984808921814,0.027882009744644165,2023-10-21T14:54:58.517315Z,1697900098517
-1.213282585144043,0.041102319955825806,0.019513487815856934,2023-10-21T14:54:58.537607Z,1697900098537
-1.0082464218139648,-0.003791309893131256,0.01642480492591858,2023-10-21T14:54:58.557783Z,1697900098557
-0.8295793533325195,-0.0361466109752655,0.016115233302116394,2023-10-21T14:54:58.578642Z,1697900098578
-0.6731538772583008,-0.05825561285018921,0.016251012682914734,2023-10-21T14:54:58.598345Z,1697900098598
-0.5288286209106445,-0.07017171382904053,0.015902072191238403,2023-10-21T14:54:58.618670Z,1697900098618
-0.3961009979248047,-0.07181107997894287,0.014802545309066772,2023-10-21T14:54:58.638814Z,1697900098638
-0.2788057327270508,-0.06462478637695312,0.013142675161361694,2023-10-21T14:54:58.661911Z,1697900098661
-0.18130111694335938,-0.05137228965759277,0.010915577411651611,2023-10-21T14:54:58.679426Z,1697900098679
-0.09583473205566406,-0.03219103813171387,0.00732952356338501,2023-10-21T14:54:58.699691Z,1697900098699
-0.01621532440185547,-0.006308317184448242,0.0015436410903930664,2023-10-21T14:54:58.719963Z,1697900098719
0.05989551544189453,0.02646636962890625,-0.006903409957885742,2023-10-21T14:54:58.740105Z,1697900098740
0.13387489318847656,0.0661163330078125,-0.018198370933532715,2023-10-21T14:54:58.761917Z,1697900098761
0.20421504974365234,0.11124515533447266,-0.03199958801269531,2023-10-21T14:54:58.780710Z,1697900098780
0.26545047760009766,0.15758419036865234,-0.047272562980651855,2023-10-21T14:54:58.801011Z,1697900098800
0.3113384246826172,0.19951152801513672,-0.062284111976623535,2023-10-21T14:54:58.821223Z,1697900098821
0.342620849609375,0.2354440689086914,-0.0760427713394165,2023-10-21T14:54:58.841394Z,1697900098841
0.36115455627441406,0.26503467559814453,-0.08757710456848145,2023-10-21T14:54:58.861816Z,1697900098861
0.37079429626464844,0.2900552749633789,-0.09668159484863281,2023-10-21T14:54:58.882086Z,1697900098882
0.3677372932434082,0.3063349723815918,-0.10183453559875488,2023-10-21T14:54:58.902307Z,1697900098902
0.35219240188598633,0.3123164176940918,-0.10272002220153809,2023-10-21T14:54:58.922547Z,1697900098922
0.3298783302307129,0.31139612197875977,-0.1007838249206543,2023-10-21T14:54:58.945134Z,1697900098945
0.30469703674316406,0.3060297966003418,-0.09716963768005371,2023-10-21T14:54:58.963069Z,1697900098963
0.27730894088745117,0.29596662521362305,-0.09203791618347168,2023-10-21T14:54:58.983421Z,1697900098983
0.2474050521850586,0.2799863815307617,-0.08524060249328613,2023-10-21T14:54:59.003621Z,1697900099003
0.21587657928466797,0.25829124450683594,-0.07698297500610352,2023-10-21T14:54:59.023834Z,1697900099023
0.18633270263671875,0.23458051681518555,-0.068511962890625,2023-10-21T14:54:59.044946Z,1697900099044
0.16193675994873047,0.2129988670349121,-0.061031341552734375,2023-10-21T14:54:59.064448Z,1697900099064
0.14229249954223633,0.193817138671875,-0.05455207824707031,2023-10-21T14:54:59.084758Z,1697900099084
0.12624120712280273,0.17634248733520508,-0.04884696006774902,2023-10-21T14:54:59.104921Z,1697900099104
0.11237716674804688,0.15961790084838867,-0.043584346771240234,2023-10-21T14:54:59.128185Z,1697900099128
0.09975242614746094,0.14301156997680664,-0.03852415084838867,2023-10-21T14:54:59.145440Z,1697900099145
0.08802556991577148,0.126495361328125,-0.03356218338012695,2023-10-21T14:54:59.165753Z,1697900099165
0.07782697677612305,0.11140012741088867,-0.02901172637939453,2023-10-21T14:54:59.186009Z,1697900099185
0.07002019882202148,0.09934616088867188,-0.025275707244873047,2023-10-21T14:54:59.206205Z,1697900099206
0.06634330749511719,0.09297943115234375,-0.023043513298034668,2023-10-21T14:54:59.228307Z,1697900099228
0.06689071655273438,0.09246063232421875,-0.02229487895965576,2023-10-21T14:54:59.246778Z,1697900099246
0.06993818283081055,0.09535741806030273,-0.022374391555786133,2023-10-21T14:54:59.267103Z,1697900099267
0.0746006965637207,0.10045385360717773,-0.022948741912841797,2023-10-21T14:54:59.287311Z,1697900099287
0.0802607536315918,0.10696744918823242,-0.023798346519470215,2023-10-21T14:54:59.307508Z,1697900099307
0.08675765991210938,0.1145930290222168,-0.024855852127075195,2023-10-21T14:54:59.328143Z,1697900099328
0.09418153762817383,0.12342691421508789,-0.026178956031799316,2023-10-21T14:54:59.348120Z,1697900099348
0.10249900817871094,0.13343524932861328,-0.02784419059753418,2023-10-21T14:54:59.368442Z,1697900099368
0.11174154281616211,0.14467716217041016,-0.029938697814941406,2023-10-21T14:54:59.388597Z,1697900099388
0.12207937240600586,0.15734291076660156,-0.03253889083862305,2023-10-21T14:54:59.411537Z,1697900099411
0.132598876953125,0.17021465301513672,-0.035358428955078125,2023-10-21T14:54:59.429133Z,1697900099429
0.14240217208862305,0.1821136474609375,-0.03809034824371338,2023-10-21T14:54:59.449448Z,1697900099449
0.15160751342773438,0.19321298599243164,-0.0407639741897583,2023-10-21T14:54:59.469701Z,1697900099469
0.16070175170898438,0.2041630744934082,-0.04356718063354492,2023-10-21T14:54:59.489906Z,1697900099489
0.16959095001220703,0.2148451805114746,-0.046561479568481445,2023-10-21T14:54:59.511346Z,1697900099511
0.1777629852294922,0.22463083267211914,-0.04967904090881348,2023-10-21T14:54:59.530587Z,1697900099530
0.18441152572631836,0.23245668411254883,-0.052726030349731445,2023-10-21T14:54:59.550809Z,1697900099550
0.1889629364013672,0.23757457733154297,-0.05550229549407959,2023-10-21T14:54:59.571004Z,1697900099570
0.1909937858581543,0.23935317993164062,-0.05780315399169922,2023-10-21T14:54:59.591244Z,1697900099591
0.19060468673706055,0.23786211013793945,-0.05955648422241211,2023-10-21T14:54:59.611626Z,1697900099611
0.1877732276916504,0.23298311233520508,-0.060639142990112305,2023-10-21T14:54:59.631848Z,1697900099631
0.18291473388671875,0.22515535354614258,-0.06108498573303223,2023-10-21T14:54:59.652100Z,1697900099652
0.17639780044555664,0.21485042572021484,-0.060915231704711914,2023-10-21T14:54:59.672315Z,1697900099672
0.16854143142700195,0.20252037048339844,-0.06010842323303223,2023-10-21T14:54:59.694653Z,1697900099694
0.16070318222045898,0.18992948532104492,-0.059027910232543945,2023-10-21T14:54:59.712878Z,1697900099712
0.15370988845825195,0.17814111709594727,-0.057883262634277344,2023-10-21T14:54:59.733184Z,1697900099733
0.1488490104675293,0.1687002182006836,-0.057149410247802734,2023-10-21T14:54:59.753437Z,1697900099753
0.14715862274169922,0.16273260116577148,-0.05727672576904297,2023-10-21T14:54:59.773632Z,1697900099773
0.1496262550354004,0.16119146347045898,-0.05872321128845215,2023-10-21T14:54:59.794282Z,1697900099794
0.15674781799316406,0.16434335708618164,-0.06171131134033203,2023-10-21T14:54:59.814532Z,1697900099814
0.16878128051757812,0.17218255996704102,-0.06632280349731445,2023-10-21T14:54:59.834610Z,1697900099834
0.1853618621826172,0.18405914306640625,-0.0723421573638916,2023-10-21T14:54:59.854847Z,1697900099854
0.2054729461669922,0.1987476348876953,-0.07924652099609375,2023-10-21T14:54:59.877978Z,1697900099877
0.2280869483947754,0.21513843536376953,-0.08655571937561035,2023-10-21T14:54:59.895269Z,1697900099895
0.25219202041625977,0.23223590850830078,-0.09387874603271484,2023-10-21T14:54:59.915528Z,1697900099915
0.27713871002197266,0.24951553344726562,-0.10106682777404785,2023-10-21T14:54:59.935737Z,1697900099935
0.3021235466003418,0.2664027214050293,-0.10801863670349121,2023-10-21T14:54:59.955956Z,1697900099955
0.3259754180908203,0.2820267677307129,-0.11447739601135254,2023-10-21T14:54:59.977795Z,1697900099977
0.34720897674560547,0.2952280044555664,-0.12005043029785156,2023-10-21T14:54:59.996700Z,1697900099996
0.36496973037719727,0.305419921875,-0.12452101707458496,2023-10-21T14:55:00.017144Z,1697900100017
0.37853145599365234,0.31211233139038086,-0.12770366668701172,2023-10-21T14:55:00.037070Z,1697900100037
0.3876457214355469,0.31534337997436523,-0.12958121299743652,2023-10-21T14:55:00.057389Z,1697900100057
0.3924894332885742,0.3155250549316406,-0.13033652305603027,2023-10-21T14:55:00.078053Z,1697900100078
0.39330291748046875,0.3131556510925293,-0.13013029098510742,2023-10-21T14:55:00.097914Z,1697900100097
0.3895406723022461,0.30802011489868164,-0.12877917289733887,2023-10-21T14:55:00.118143Z,1697900100118
0.3809375762939453,0.3000192642211914,-0.12610125541687012,2023-10-21T14:55:00.138427Z,1697900100138
0.3672823905944824,0.28892946243286133,-0.12186002731323242,2023-10-21T14:55:00.161234Z,1697900100161
0.3491330146789551,0.2751126289367676,-0.11616730690002441,2023-10-21T14:55:00.178912Z,1697900100178
0.3273782730102539,0.2592010498046875,-0.10933709144592285,2023-10-21T14:55:00.199413Z,1697900100199
0.30190086364746094,0.24097394943237305,-0.1013944149017334,2023-10-21T14:55:00.219563Z,1697900100219
0.2728843688964844,0.22032833099365234,-0.09238195419311523,2023-10-21T14:55:00.239729Z,1697900100239
0.24034357070922852,0.1968550682067871,-0.08220267295837402,2023-10-21T14:55:00.260939Z,1697900100260
0.20487022399902344,0.17058849334716797,-0.070892333984375,2023-10-21T14:55:00.280264Z,1697900100280
0.1673903465270996,0.14188623428344727,-0.058641672134399414,2023-10-21T14:55:00.300626Z,1697900100300
0.12900495529174805,0.11140012741088867,-0.04577279090881348,2023-10-21T14:55:00.320794Z,1697900100320
0.09017515182495117,0.07935905456542969,-0.032425880432128906,2023-10-21T14:55:00.344047Z,1697900100344
0.05110979080200195,0.04585123062133789,-0.018645524978637695,2023-10-21T14:55:00.361311Z,1697900100361
0.01200723648071289,0.01098012924194336,-0.0044498443603515625,2023-10-21T14:55:00.381652Z,1697900100381
-0.025043010711669922,-0.023334026336669922,0.009441375732421875,2023-10-21T14:55:00.401873Z,1697900100401
-0.05750751495361328,-0.054561614990234375,0.02208256721496582,2023-10-21T14:55:00.422078Z,1697900100422
-0.08344078063964844,-0.08054399490356445,0.03266310691833496,2023-10-21T14:55:00.443772Z,1697900100443
-0.10233402252197266,-0.10037612915039062,0.04085874557495117,2023-10-21T14:55:00.462630Z,1697900100462
-0.11504936218261719,-0.11447000503540039,0.046862125396728516,2023-10-21T14:55:00.482939Z,1697900100482
-0.12165117263793945,-0.12247800827026367,0.05058550834655762,2023-10-21T14:55:00.503110Z,1697900100503
-0.12116384506225586,-0.12306451797485352,0.051505088806152344,2023-10-21T14:55:00.523382Z,1697900100523
-0.11197900772094727,-0.11436223983764648,0.04876351356506348,2023-10-21T14:55:00.543888Z,1697900100543
-0.0933218002319336,-0.0955052375793457,0.04172563552856445,2023-10-21T14:55:00.563997Z,1697900100563
-0.06581449508666992,-0.06726217269897461,0.030274629592895508,2023-10-21T14:55:00.584276Z,1697900100584
-0.031664371490478516,-0.03221273422241211,0.015013694763183594,2023-10-21T14:55:00.604489Z,1697900100604
0.0075092315673828125,0.0075836181640625,-0.0036818981170654297,2023-10-21T14:55:00.627661Z,1697900100627
0.051055908203125,0.05108451843261719,-0.0260162353515625,2023-10-21T14:55:00.644986Z,1697900100644
0.09896516799926758,0.0980229377746582,-0.05270814895629883,2023-10-21T14:55:00.665305Z,1697900100665
0.15153884887695312,0.1485762596130371,-0.08475303649902344,2023-10-21T14:55:00.685545Z,1697900100685
0.20943307876586914,0.2033982276916504,-0.12337040901184082,2023-10-21T14:55:00.705738Z,1697900100705
0.2747354507446289,0.26457977294921875,-0.17071294784545898,2023-10-21T14:55:00.727201Z,1697900100727
0.3486928939819336,0.33322668075561523,-0.2284998893737793,2023-10-21T14:55:00.746352Z,1697900100746
0.4311237335205078,0.40876293182373047,-0.29732704162597656,2023-10-21T14:55:00.766632Z,1697900100766
0.522057056427002,0.4902076721191406,-0.3773517608642578,2023-10-21T14:55:00.786801Z,1697900100786
0.6239280700683594,0.5780858993530273,-0.4701690673828125,2023-10-21T14:55:00.806994Z,1697900100806
0.738440990447998,0.6716642379760742,-0.5770168304443359,2023-10-21T14:55:00.827421Z,1697900100827
0.8648099899291992,0.7694883346557617,-0.6988201141357422,2023-10-21T14:55:00.847656Z,1697900100847
0.9938473701477051,0.8660354614257812,-0.8305435180664062,2023-10-21T14:55:00.867951Z,1697900100867
1.1144018173217773,0.9544076919555664,-0.9630088806152344,2023-10-21T14:55:00.888136Z,1697900100888
1.2218647003173828,1.0302848815917969,-1.0879855155944824,2023-10-21T14:55:00.910519Z,1697900100910
1.3169255256652832,1.0878167152404785,-1.197721004486084,2023-10-21T14:55:00.928746Z,1697900100928
1.4047131538391113,1.1265497207641602,-1.2932305335998535,2023-10-21T14:55:00.948997Z,1697900100948
1.4868807792663574,1.1477231979370117,-1.3772215843200684,2023-10-21T14:55:00.969197Z,1697900100969
1.5563712120056152,1.150407314300537,-1.447948932647705,2023-10-21T14:55:00.989449Z,1697900100989
1.6044106483459473,1.1329412460327148,-1.499995231628418,2023-10-21T14:55:01.010268Z,1697900101010
1.6240172386169434,1.0942440032958984,-1.5260920524597168,2023-10-21T14:55:01.030006Z,1697900101029
1.6131401062011719,1.033111572265625,-1.51863431930542,2023-10-21T14:55:01.050367Z,1697900101050
1.5814332962036133,0.9531512260437012,-1.481248378753662,2023-10-21T14:55:01.070477Z,1697900101070
1.540189266204834,0.8618130683898926,-1.425065040588379,2023-10-21T14:55:01.093637Z,1697900101093
1.490933895111084,0.7641849517822266,-1.3571219444274902,2023-10-21T14:55:01.111021Z,1697900101110
1.4255075454711914,0.6641161441802979,-1.2770538330078125,2023-10-21T14:55:01.131327Z,1697900101131
1.3321504592895508,0.5613632202148438,-1.1749963760375977,2023-10-21T14:55:01.151579Z,1697900101151
1.2064709663391113,0.45688796043395996,-1.0454649925231934,2023-10-21T14:55:01.171800Z,1697900101171
1.0554814338684082,0.35523247718811035,-0.8941264152526855,2023-10-21T14:55:01.193539Z,1697900101193
0.8832054138183594,0.2599480152130127,-0.7266445159912109,2023-10-21T14:55:01.212375Z,1697900101212
0.6912798881530762,0.17380666732788086,-0.5484747886657715,2023-10-21T14:55:01.232676Z,1697900101232
0.4811515808105469,0.09999895095825195,-0.36571598052978516,2023-10-21T14:55:01.252908Z,1697900101252
0.25411510467529297,0.041843533515930176,-0.18403863906860352,2023-10-21T14:55:01.273167Z,1697900101273
0.009843826293945312,0.001213669776916504,-0.006767749786376953,2023-10-21T14:55:01.293480Z,1697900101293
-0.25542545318603516,-0.021720170974731445,0.16617393493652344,2023-10-21T14:55:01.313738Z,1697900101313
-0.5425209999084473,-0.02717345952987671,0.33242034912109375,2023-10-21T14:55:01.333968Z,1697900101333
-0.8449196815490723,-0.014875128865242004,0.4831390380859375,2023-10-21T14:55:01.354208Z,1697900101354
-1.1391034126281738,0.015275172889232635,0.5995676517486572,2023-10-21T14:55:01.376810Z,1697900101376
-1.4004011154174805,0.059880226850509644,0.6685867309570312,2023-10-21T14:55:01.394735Z,1697900101394
-1.618119716644287,0.11249971389770508,0.6935806274414062,2023-10-21T14:55:01.415042Z,1697900101414
-1.8050475120544434,0.16373664140701294,0.6934008598327637,2023-10-21T14:55:01.435279Z,1697900101435
-1.978787899017334,0.20669955015182495,0.6806597709655762,2023-10-21T14:55:01.455503Z,1697900101455
-2.1383609771728516,0.23717433214187622,0.6552731990814209,2023-10-21T14:55:01.476683Z,1697900101476
-2.260416030883789,0.25034695863723755,0.6098635196685791,2023-10-21T14:55:01.496126Z,1697900101496
-2.3233461380004883,0.24369537830352783,0.5450057983398438,2023-10-21T14:55:01.516372Z,1697900101516
-2.3206377029418945,0.2174854278564453,0.4697914123535156,2023-10-21T14:55:01.536575Z,1697900101536
-2.263929843902588,0.1740240454673767,0.39857983589172363,2023-10-21T14:55:01.560053Z,1697900101560
-2.182826519012451,0.11763602495193481,0.3408849239349365,2023-10-21T14:55:01.577102Z,1697900101577
-2.0963592529296875,0.05270838737487793,0.2956005334854126,2023-10-21T14:55:01.597410Z,1697900101597
-1.9991507530212402,-0.017539404332637787,0.25639796257019043,2023-10-21T14:55:01.617640Z,1697900101617
-1.8645977973937988,-0.0842137336730957,0.21639245748519897,2023-10-21T14:55:01.637878Z,1697900101637
-1.6773386001586914,-0.13737505674362183,0.1767447590827942,2023-10-21T14:55:01.659784Z,1697900101659
-1.4443941116333008,-0.17052149772644043,0.14093273878097534,2023-10-21T14:55:01.678432Z,1697900101678
-1.1898059844970703,-0.18258881568908691,0.1108904480934143,2023-10-21T14:55:01.698739Z,1697900101698
-0.9297914505004883,-0.17476606369018555,0.08609968423843384,2023-10-21T14:55:01.718947Z,1697900101718
-0.6733875274658203,-0.14918756484985352,0.06440544128417969,2023-10-21T14:55:01.739142Z,1697900101739
-0.42537975311279297,-0.10815882682800293,0.043419599533081055,2023-10-21T14:55:01.759778Z,1697900101759
-0.18666458129882812,-0.05330657958984375,0.020827412605285645,2023-10-21T14:55:01.779769Z,1697900101779
0.041652679443359375,0.013118267059326172,-0.005157589912414551,2023-10-21T14:55:01.800060Z,1697900101800
0.25570106506347656,0.08742070198059082,-0.03544318675994873,2023-10-21T14:55:01.820279Z,1697900101820
0.4504280090332031,0.1652059555053711,-0.07004654407501221,2023-10-21T14:55:01.842950Z,1697900101842
0.6235618591308594,0.24334216117858887,-0.10856044292449951,2023-10-21T14:55:01.860770Z,1697900101860
0.7754116058349609,0.319730281829834,-0.1503005027770996,2023-10-21T14:55:01.881100Z,1697900101881
0.906245231628418,0.3924064636230469,-0.1941661834716797,2023-10-21T14:55:01.901335Z,1697900101901
1.0152101516723633,0.459270715713501,-0.2382516860961914,2023-10-21T14:55:01.921600Z,1697900101921
1.1014556884765625,0.5182299613952637,-0.28055739402770996,2023-10-21T14:55:01.942972Z,1697900101942
1.1629819869995117,0.5668306350708008,-0.31868529319763184,2023-10-21T14:55:01.962160Z,1697900101962
1.1961565017700195,0.6028232574462891,-0.34962892532348633,2023-10-21T14:55:01.982405Z,1697900101982
1.1973648071289062,0.624114990234375,-0.37020158767700195,2023-10-21T14:55:02.002638Z,1697900102002
1.1688385009765625,0.6311793327331543,-0.3788015842437744,2023-10-21T14:55:02.022816Z,1697900102022
1.1167964935302734,0.6254720687866211,-0.3760089874267578,2023-10-21T14:55:02.043240Z,1697900102043
1.045964241027832,0.6077156066894531,-0.3629140853881836,2023-10-21T14:55:02.063512Z,1697900102063
0.9596443176269531,0.5786943435668945,-0.34087347984313965,2023-10-21T14:55:02.083769Z,1697900102083
0.8601188659667969,0.5387606620788574,-0.31125617027282715,2023-10-21T14:55:02.104044Z,1697900102104
0.7515478134155273,0.48926258087158203,-0.2760465145111084,2023-10-21T14:55:02.126232Z,1697900102126
0.6391100883483887,0.43251705169677734,-0.23751020431518555,2023-10-21T14:55:02.144483Z,1697900102144
0.5286397933959961,0.37174463272094727,-0.19816184043884277,2023-10-21T14:55:02.164785Z,1697900102164
0.42632007598876953,0.31116342544555664,-0.16075992584228516,2023-10-21T14:55:02.185021Z,1697900102184
0.3369121551513672,0.254763126373291,-0.12750792503356934,2023-10-21T14:55:02.205247Z,1697900102205
0.2613034248352051,0.20431041717529297,-0.0990598201751709,2023-10-21T14:55:02.226163Z,1697900102226
0.1980571746826172,0.15986871719360352,-0.07508683204650879,2023-10-21T14:55:02.245823Z,1697900102245
0.1462841033935547,0.12170267105102539,-0.05535769462585449,2023-10-21T14:55:02.266073Z,1697900102266
0.1048893928527832,0.0897669792175293,-0.03952980041503906,2023-10-21T14:55:02.286367Z,1697900102286
0.07373428344726562,0.06476068496704102,-0.027584075927734375,2023-10-21T14:55:02.309444Z,1697900102309
0.052652835845947266,0.04732656478881836,-0.019477367401123047,2023-10-21T14:55:02.326856Z,1697900102326
0.040929317474365234,0.037540435791015625,-0.014910697937011719,2023-10-21T14:55:02.347196Z,1697900102347
0.036898136138916016,0.034442901611328125,-0.013199567794799805,2023-10-21T14:55:02.367430Z,1697900102367
0.037978172302246094,0.035996437072753906,-0.013316154479980469,2023-10-21T14:55:02.387619Z,1697900102387
0.04220914840698242,0.040540218353271484,-0.014492034912109375,2023-10-21T14:55:02.409391Z,1697900102409
0.04885578155517578,0.0474553108215332,-0.016428470611572266,2023-10-21T14:55:02.428204Z,1697900102428
0.05749177932739258,0.05635499954223633,-0.0189516544342041,2023-10-21T14:55:02.448488Z,1697900102448
0.06763839721679688,0.06676197052001953,-0.021902799606323242,2023-10-21T14:55:02.468760Z,1697900102468
0.07974529266357422,0.07907247543334961,-0.025436878204345703,2023-10-21T14:55:02.488927Z,1697900102488
0.09449243545532227,0.09392786026000977,-0.02979874610900879,2023-10-21T14:55:02.509289Z,1697900102509
0.1103520393371582,0.10979795455932617,-0.03458738327026367,2023-10-21T14:55:02.529550Z,1697900102529
0.12492132186889648,0.1242985725402832,-0.03918051719665527,2023-10-21T14:55:02.549812Z,1697900102549
0.1364426612854004,0.13568115234375,-0.04315185546875,2023-10-21T14:55:02.570028Z,1697900102569
0.14499568939208984,0.1439652442932129,-0.04654431343078613,2023-10-21T14:55:02.592770Z,1697900102592
0.15268516540527344,0.15111827850341797,-0.04997420310974121,2023-10-21T14:55:02.610565Z,1697900102610
0.16030168533325195,0.15778017044067383,-0.05359077453613281,2023-10-21T14:55:02.630883Z,1697900102630
0.1678767204284668,0.1638627052307129,-0.057280778884887695,2023-10-21T14:55:02.651100Z,1697900102651
0.1747608184814453,0.16863775253295898,-0.06069469451904297,2023-10-21T14:55:02.671363Z,1697900102671
0.18014001846313477,0.17128515243530273,-0.06343603134155273,2023-10-21T14:55:02.692456Z,1697900102692
0.18344926834106445,0.17127561569213867,-0.06519126892089844,2023-10-21T14:55:02.711984Z,1697900102711
0.18623018264770508,0.17003870010375977,-0.06637334823608398,2023-10-21T14:55:02.732198Z,1697900102732
0.19074678421020508,0.16957712173461914,-0.06766200065612793,2023-10-21T14:55:02.752409Z,1697900102752
0.19860172271728516,0.1711587905883789,-0.06949520111083984,2023-10-21T14:55:02.775850Z,1697900102775
0.21033382415771484,0.17506790161132812,-0.07196712493896484,2023-10-21T14:55:02.792942Z,1697900102792
0.2247757911682129,0.18016529083251953,-0.07462596893310547,2023-10-21T14:55:02.813248Z,1697900102813
0.24098730087280273,0.1856374740600586,-0.0771799087524414,2023-10-21T14:55:02.833481Z,1697900102833
0.2583637237548828,0.19102001190185547,-0.07949590682983398,2023-10-21T14:55:02.853762Z,1697900102853
0.2768058776855469,0.19625616073608398,-0.0815744400024414,2023-10-21T14:55:02.876143Z,1697900102876
0.29615116119384766,0.2012791633605957,-0.0833895206451416,2023-10-21T14:55:02.894252Z,1697900102894
0.3158712387084961,0.20580339431762695,-0.08486008644104004,2023-10-21T14:55:02.914534Z,1697900102914
0.3336610794067383,0.20854949951171875,-0.08553290367126465,2023-10-21T14:55:02.934831Z,1697900102934
0.34729671478271484,0.20848798751831055,-0.08508634567260742,2023-10-21T14:55:02.954970Z,1697900102954
0.3553190231323242,0.20516300201416016,-0.08341765403747559,2023-10-21T14:55:02.975779Z,1697900102975
0.3563652038574219,0.19823598861694336,-0.08045601844787598,2023-10-21T14:55:02.995684Z,1697900102995
0.34947776794433594,0.18760156631469727,-0.07616865634918213,2023-10-21T14:55:03.015894Z,1697900103015
0.33515357971191406,0.17393159866333008,-0.07077085971832275,2023-10-21T14:55:03.036144Z,1697900103036
0.3145294189453125,0.15812158584594727,-0.06452178955078125,2023-10-21T14:55:03.058975Z,1697900103058
0.2890787124633789,0.14110279083251953,-0.057729482650756836,2023-10-21T14:55:03.076633Z,1697900103076
0.259307861328125,0.12323617935180664,-0.05052947998046875,2023-10-21T14:55:03.096934Z,1697900103096
0.22471141815185547,0.10432004928588867,-0.04282736778259277,2023-10-21T14:55:03.117190Z,1697900103117
0.18626117706298828,0.08477449417114258,-0.0348048210144043,2023-10-21T14:55:03.137463Z,1697900103137
0.1447744369506836,0.06484770774841309,-0.02659022808074951,2023-10-21T14:55:03.158782Z,1697900103158
0.10125350952148438,0.04482293128967285,-0.01833188533782959,2023-10-21T14:55:03.178047Z,1697900103177
0.05670928955078125,0.024921655654907227,-0.010156035423278809,2023-10-21T14:55:03.198258Z,1697900103198
0.012098312377929688,0.005303621292114258,-0.002152681350708008,2023-10-21T14:55:03.218502Z,1697900103218
-0.032286643981933594,-0.014188766479492188,0.005735039710998535,2023-10-21T14:55:03.238715Z,1697900103238
-0.0752878189086914,-0.0333256721496582,0.01343381404876709,2023-10-21T14:55:03.258999Z,1697900103258
-0.11635494232177734,-0.05211210250854492,0.02098393440246582,2023-10-21T14:55:03.279349Z,1697900103279
-0.15508651733398438,-0.07054471969604492,0.028427839279174805,2023-10-21T14:55:03.299594Z,1697900103299
-0.1911773681640625,-0.08861732482910156,0.03576493263244629,2023-10-21T14:55:03.319808Z,1697900103319
-0.2249126434326172,-0.1065683364868164,0.043077826499938965,2023-10-21T14:55:03.342061Z,1697900103342
-0.25543975830078125,-0.1240987777709961,0.050212860107421875,2023-10-21T14:55:03.360351Z,1697900103360
-0.28177642822265625,-0.14075517654418945,0.05696213245391846,2023-10-21T14:55:03.380606Z,1697900103380
-0.30327701568603516,-0.15614032745361328,0.06313836574554443,2023-10-21T14:55:03.400917Z,1697900103400
-0.31977081298828125,-0.1700425148010254,0.06861495971679688,2023-10-21T14:55:03.421094Z,1697900103421
-0.33059120178222656,-0.18194150924682617,0.0731433629989624,2023-10-21T14:55:03.442074Z,1697900103442
-0.3354644775390625,-0.19145679473876953,0.07659614086151123,2023-10-21T14:55:03.461678Z,1697900103461
-0.33403873443603516,-0.19804716110229492,0.07883834838867188,2023-10-21T14:55:03.481950Z,1697900103481
-0.3263363838195801,-0.2012643814086914,0.07977044582366943,2023-10-21T14:55:03.502244Z,1697900103502
-0.3126802444458008,-0.20076227188110352,0.07931101322174072,2023-10-21T14:55:03.525326Z,1697900103525
-0.29320287704467773,-0.19601821899414062,0.07730698585510254,2023-10-21T14:55:03.542717Z,1697900103542
-0.2684178352355957,-0.18680238723754883,0.07369232177734375,2023-10-21T14:55:03.563017Z,1697900103562
-0.23873043060302734,-0.17287063598632812,0.06838226318359375,2023-10-21T14:55:03.583286Z,1697900103583
-0.20482301712036133,-0.15424299240112305,0.06135702133178711,2023-10-21T14:55:03.604581Z,1697900103604
-0.167755126953125,-0.1312851905822754,0.05270218849182129,2023-10-21T14:55:03.625296Z,1697900103625
-0.12912416458129883,-0.10491275787353516,0.04268312454223633,2023-10-21T14:55:03.644055Z,1697900103644
-0.09099960327148438,-0.07669544219970703,0.031777381896972656,2023-10-21T14:55:03.664362Z,1697900103664
-0.05518054962158203,-0.04822254180908203,0.02044963836669922,2023-10-21T14:55:03.684583Z,1697900103684
-0.021934032440185547,-0.019876480102539062,0.008670806884765625,2023-10-21T14:55:03.704786Z,1697900103704
0.009382247924804688,0.008819580078125,-0.003979921340942383,2023-10-21T14:55:03.725223Z,1697900103725
0.03887367248535156,0.03791618347167969,-0.017798900604248047,2023-10-21T14:55:03.745377Z,1697900103745
0.06554603576660156,0.06637954711914062,-0.03258371353149414,2023-10-21T14:55:03.765639Z,1697900103765
0.0896449089050293,0.09439945220947266,-0.048708200454711914,2023-10-21T14:55:03.785813Z,1697900103785
0.11529874801635742,0.12655115127563477,-0.06894373893737793,2023-10-21T14:55:03.808206Z,1697900103808
0.14855051040649414,0.17040300369262695,-0.09831881523132324,2023-10-21T14:55:03.826418Z,1697900103826
0.19222497940063477,0.2309579849243164,-0.14118242263793945,2023-10-21T14:55:03.846679Z,1697900103846
0.24453401565551758,0.30806827545166016,-0.19903802871704102,2023-10-21T14:55:03.866928Z,1697900103866
0.30263566970825195,0.39970827102661133,-0.2719264030456543,2023-10-21T14:55:03.887113Z,1697900103887
0.3658108711242676,0.5057902336120605,-0.36104297637939453,2023-10-21T14:55:03.908239Z,1697900103908
0.43482398986816406,0.6272091865539551,-0.4688596725463867,2023-10-21T14:55:03.927728Z,1697900103927
0.510383129119873,0.7646331787109375,-0.5987963676452637,2023-10-21T14:55:03.948041Z,1697900103948
0.5900859832763672,0.9172906875610352,-0.7521481513977051,2023-10-21T14:55:03.968246Z,1697900103968
0.6651186943054199,1.0740547180175781,-0.9189682006835938,2023-10-21T14:55:03.991679Z,1697900103991
0.7302508354187012,1.2248306274414062,-1.0877289772033691,2023-10-21T14:55:04.008754Z,1697900104008
0.7831273078918457,1.3527917861938477,-1.2411165237426758,2023-10-21T14:55:04.029062Z,1697900104029
0.8294193744659424,1.4514570236206055,-1.3748960494995117,2023-10-21T14:55:04.049297Z,1697900104049
0.8745312690734863,1.5230560302734375,-1.4936537742614746,2023-10-21T14:55:04.069530Z,1697900104069
0.916539192199707,1.566880702972412,-1.5976057052612305,2023-10-21T14:55:04.091582Z,1697900104091
0.9510927200317383,1.580197811126709,-1.6829495429992676,2023-10-21T14:55:04.110070Z,1697900104110
0.9747161865234375,1.559974193572998,-1.7420902252197266,2023-10-21T14:55:04.130407Z,1697900104130
0.9846236705780029,1.50358247756958,-1.764585018157959,2023-10-21T14:55:04.150558Z,1697900104150
0.9834976196289062,1.4117331504821777,-1.7462244033813477,2023-10-21T14:55:04.170870Z,1697900104170
0.9780797958374023,1.2954134941101074,-1.6976828575134277,2023-10-21T14:55:04.191413Z,1697900104191
0.9686827659606934,1.1630148887634277,-1.627274513244629,2023-10-21T14:55:04.211430Z,1697900104211
0.950655460357666,1.02504301071167,-1.5434393882751465,2023-10-21T14:55:04.231724Z,1697900104231
0.913550853729248,0.8831710815429688,-1.439180850982666,2023-10-21T14:55:04.251946Z,1697900104251
0.8515148162841797,0.7369771003723145,-1.3055014610290527,2023-10-21T14:55:04.274870Z,1697900104274
0.7676210403442383,0.5906684398651123,-1.1431002616882324,2023-10-21T14:55:04.292432Z,1697900104292
0.6632022857666016,0.44818878173828125,-0.9537572860717773,2023-10-21T14:55:04.312760Z,1697900104312
0.5347385406494141,0.3129122257232666,-0.738776683807373,2023-10-21T14:55:04.333102Z,1697900104333
0.38053369522094727,0.189483642578125,-0.5035719871520996,2023-10-21T14:55:04.353241Z,1697900104353
0.2031111717224121,0.08404207229614258,-0.25737762451171875,2023-10-21T14:55:04.374895Z,1697900104374
0.006365776062011719,0.002119779586791992,-0.007733821868896484,2023-10-21T14:55:04.393836Z,1697900104393
-0.2070636749267578,-0.05300402641296387,0.24131298065185547,2023-10-21T14:55:04.414187Z,1697900104414
-0.43765974044799805,-0.08046746253967285,0.4887862205505371,2023-10-21T14:55:04.434261Z,1697900104434
-0.6870408058166504,-0.0799858570098877,0.7315125465393066,2023-10-21T14:55:04.454468Z,1697900104454
-0.9476842880249023,-0.04874125123023987,0.9520220756530762,2023-10-21T14:55:04.474808Z,1697900104474
-1.2006092071533203,0.012394394725561142,1.1250104904174805,2023-10-21T14:55:04.495092Z,1697900104495
-1.4289178848266602,0.09588870406150818,1.2378907203674316,2023-10-21T14:55:04.515419Z,1697900104515
-1.622936725616455,0.18673664331436157,1.2977166175842285,2023-10-21T14:55:04.535681Z,1697900104535
-1.7966737747192383,0.2712908387184143,1.3263607025146484,2023-10-21T14:55:04.557854Z,1697900104557
-1.963693618774414,0.3419610261917114,1.3329734802246094,2023-10-21T14:55:04.576123Z,1697900104576
-2.116302967071533,0.3917790651321411,1.3076684474945068,2023-10-21T14:55:04.596416Z,1697900104596
-2.2367467880249023,0.41367650032043457,1.2418394088745117,2023-10-21T14:55:04.616630Z,1697900104616
-2.305100917816162,0.40475964546203613,1.1398489475250244,2023-10-21T14:55:04.636882Z,1697900104636
-2.3112120628356934,0.36586177349090576,1.0188441276550293,2023-10-21T14:55:04.657639Z,1697900104657
-2.271397590637207,0.3023793697357178,0.902909517288208,2023-10-21T14:55:04.677428Z,1697900104677
-2.208005428314209,0.22430533170700073,0.8022198677062988,2023-10-21T14:55:04.697730Z,1697900104697
-2.1248273849487305,0.137748122215271,0.7125387191772461,2023-10-21T14:55:04.717934Z,1697900104717
-2.0011987686157227,0.051688775420188904,0.6190969944000244,2023-10-21T14:55:04.741039Z,1697900104741
-1.8096256256103516,-0.022649072110652924,0.5157175064086914,2023-10-21T14:55:04.758498Z,1697900104758
-1.5505824089050293,-0.076028972864151,0.40897250175476074,2023-10-21T14:55:04.778780Z,1697900104778
-1.2520933151245117,-0.10453885793685913,0.30919361114501953,2023-10-21T14:55:04.799028Z,1697900104798
-0.9402036666870117,-0.10897433757781982,0.22096586227416992,2023-10-21T14:55:04.819281Z,1697900104819
-0.6236553192138672,-0.09093093872070312,0.14169979095458984,2023-10-21T14:55:04.840905Z,1697900104840
-0.3041648864746094,-0.0526583194732666,0.06766223907470703,2023-10-21T14:55:04.859805Z,1697900104859
0.01634979248046875,0.0032444000244140625,-0.003597736358642578,2023-10-21T14:55:04.880104Z,1697900104880
0.3340435028076172,0.07397031784057617,-0.07334399223327637,2023-10-21T14:55:04.900311Z,1697900104900
0.6401166915893555,0.15509843826293945,-0.14180231094360352,2023-10-21T14:55:04.920505Z,1697900104920
0.9228591918945312,0.2405834197998047,-0.2087078094482422,2023-10-21T14:55:04.940882Z,1697900104940
1.1724424362182617,0.3250095844268799,-0.27369236946105957,2023-10-21T14:55:04.961173Z,1697900104961
1.3861351013183594,0.40544581413269043,-0.3369112014770508,2023-10-21T14:55:04.981397Z,1697900104981
1.5664453506469727,0.4802215099334717,-0.39895200729370117,2023-10-21T14:55:05.001655Z,1697900105001
1.7154436111450195,0.5480833053588867,-0.4596230983734131,2023-10-21T14:55:05.024202Z,1697900105024
1.8299598693847656,0.607396125793457,-0.5170564651489258,2023-10-21T14:55:05.042171Z,1697900105042
1.9032373428344727,0.6551599502563477,-0.5682578086853027,2023-10-21T14:55:05.062482Z,1697900105062
1.9311084747314453,0.6886670589447021,-0.6103026866912842,2023-10-21T14:55:05.082736Z,1697900105082
1.9122333526611328,0.7071118354797363,-0.6400704383850098,2023-10-21T14:55:05.102985Z,1697900105102
1.8489923477172852,0.7108738422393799,-0.6550943851470947,2023-10-21T14:55:05.125051Z,1697900105125
1.7464752197265625,0.7012176513671875,-0.6535220146179199,2023-10-21T14:55:05.143573Z,1697900105143
1.6121912002563477,0.678459644317627,-0.6351759433746338,2023-10-21T14:55:05.163823Z,1697900105163
1.4548158645629883,0.6429731845855713,-0.6014997959136963,2023-10-21T14:55:05.184112Z,1697900105184
1.282423973083496,0.5961976051330566,-0.5545487403869629,2023-10-21T14:55:05.207728Z,1697900105207
1.1015939712524414,0.539513111114502,-0.49671411514282227,2023-10-21T14:55:05.224664Z,1697900105224
0.9177112579345703,0.4740433692932129,-0.43038296699523926,2023-10-21T14:55:05.244914Z,1697900105244
0.7369842529296875,0.40174436569213867,-0.3584110736846924,2023-10-21T14:55:05.265114Z,1697900105265
0.568324089050293,0.32674598693847656,-0.2855851650238037,2023-10-21T14:55:05.285400Z,1697900105285
0.42017269134521484,0.2542724609375,-0.2172226905822754,2023-10-21T14:55:05.311416Z,1697900105311
0.29676246643066406,0.18846702575683594,-0.15706634521484375,2023-10-21T14:55:05.325878Z,1697900105325
0.19892454147338867,0.13211297988891602,-0.1072397232055664,2023-10-21T14:55:05.346121Z,1697900105346
0.1243143081665039,0.08601856231689453,-0.06791162490844727,2023-10-21T14:55:05.366472Z,1697900105366
0.07007503509521484,0.05030059814453125,-0.03857088088989258,2023-10-21T14:55:05.386766Z,1697900105386
0.03354835510253906,0.024860858917236328,-0.01849055290222168,2023-10-21T14:55:05.406922Z,1697900105406
0.01203012466430664,0.009154319763183594,-0.006595611572265625,2023-10-21T14:55:05.427360Z,1697900105427
0.004486083984375,0.003482341766357422,-0.002426624298095703,2023-10-21T14:55:05.447550Z,1697900105447
0.009516239166259766,0.007489204406738281,-0.005043745040893555,2023-10-21T14:55:05.467771Z,1697900105467
0.02344989776611328,0.01859569549560547,-0.012093782424926758,2023-10-21T14:55:05.490754Z,1697900105490
0.041300296783447266,0.03285551071166992,-0.020624399185180664,2023-10-21T14:55:05.508782Z,1697900105508
0.05981922149658203,0.0475921630859375,-0.028824329376220703,2023-10-21T14:55:05.528581Z,1697900105528
0.07796859741210938,0.061878204345703125,-0.03614401817321777,2023-10-21T14:55:05.549057Z,1697900105549
0.09675216674804688,0.07640790939331055,-0.043061017990112305,2023-10-21T14:55:05.569107Z,1697900105569
0.11629867553710938,0.09121942520141602,-0.04964184761047363,2023-10-21T14:55:05.590040Z,1697900105590
0.13570213317871094,0.10560035705566406,-0.05554699897766113,2023-10-21T14:55:05.609593Z,1697900105609
0.1544938087463379,0.11924028396606445,-0.06066727638244629,2023-10-21T14:55:05.629880Z,1697900105629
0.1728663444519043,0.13234615325927734,-0.06516456604003906,2023-10-21T14:55:05.650114Z,1697900105650
0.19124937057495117,0.14528560638427734,-0.06927132606506348,2023-10-21T14:55:05.670459Z,1697900105670
0.20900917053222656,0.1576218605041504,-0.07282638549804688,2023-10-21T14:55:05.691340Z,1697900105691
0.22568845748901367,0.1690363883972168,-0.07573747634887695,2023-10-21T14:55:05.710938Z,1697900105710
0.24187517166137695,0.1799631118774414,-0.0782632827758789,2023-10-21T14:55:05.731294Z,1697900105731
0.2588462829589844,0.19127798080444336,-0.08083081245422363,2023-10-21T14:55:05.751452Z,1697900105751
0.27664613723754883,0.20293235778808594,-0.0834360122680664,2023-10-21T14:55:05.775216Z,1697900105775
0.2936215400695801,0.2136683464050293,-0.08560585975646973,2023-10-21T14:55:05.791989Z,1697900105791
0.30799102783203125,0.22212934494018555,-0.0868978500366211,2023-10-21T14:55:05.812415Z,1697900105812
0.31955432891845703,0.22809076309204102,-0.08736681938171387,2023-10-21T14:55:05.832719Z,1697900105832
0.32828474044799805,0.2314920425415039,-0.08707451820373535,2023-10-21T14:55:05.852876Z,1697900105852
0.3351001739501953,0.23296833038330078,-0.08628678321838379,2023-10-21T14:55:05.873831Z,1697900105873
0.342010498046875,0.23390626907348633,-0.08547830581665039,2023-10-21T14:55:05.893270Z,1697900105893
0.3513813018798828,0.2358226776123047,-0.08512759208679199,2023-10-21T14:55:05.913602Z,1697900105913
0.36471080780029297,0.23960542678833008,-0.08547568321228027,2023-10-21T14:55:05.933743Z,1697900105933
0.38075733184814453,0.2444615364074707,-0.08615279197692871,2023-10-21T14:55:05.957098Z,1697900105957
0.3973512649536133,0.24910497665405273,-0.08660626411437988,2023-10-21T14:55:05.974491Z,1697900105974
0.41371726989746094,0.2531704902648926,-0.08656108379364014,2023-10-21T14:55:05.994637Z,1697900105994
0.429901123046875,0.2567324638366699,-0.08592212200164795,2023-10-21T14:55:06.014924Z,1697900106014
0.44463539123535156,0.2590808868408203,-0.08434915542602539,2023-10-21T14:55:06.035076Z,1697900106035
0.4549226760864258,0.2586941719055176,-0.08135175704956055,2023-10-21T14:55:06.056778Z,1697900106056
0.4570751190185547,0.25379371643066406,-0.0764322280883789,2023-10-21T14:55:06.075709Z,1697900106075
0.4492816925048828,0.2436966896057129,-0.06960701942443848,2023-10-21T14:55:06.095955Z,1697900106095
0.431182861328125,0.22849607467651367,-0.0612720251083374,2023-10-21T14:55:06.116130Z,1697900106116
0.40332603454589844,0.20876312255859375,-0.05202972888946533,2023-10-21T14:55:06.136346Z,1697900106136
0.3675689697265625,0.1857919692993164,-0.04268753528594971,2023-10-21T14:55:06.156676Z,1697900106156
0.3268289566040039,0.1613459587097168,-0.034006357192993164,2023-10-21T14:55:06.176988Z,1697900106176
0.28415966033935547,0.13710451126098633,-0.026478946208953857,2023-10-21T14:55:06.197230Z,1697900106197
0.2411966323852539,0.11390972137451172,-0.020209968090057373,2023-10-21T14:55:06.217472Z,1697900106217
0.19762134552001953,0.0915517807006836,-0.01499176025390625,2023-10-21T14:55:06.240080Z,1697900106239
0.1538858413696289,0.0701146125793457,-0.010667145252227783,2023-10-21T14:55:06.258007Z,1697900106257
0.11190605163574219,0.05029630661010742,-0.007193148136138916,2023-10-21T14:55:06.278310Z,1697900106278
0.0736227035522461,0.03275251388549805,-0.0044792890548706055,2023-10-21T14:55:06.298547Z,1697900106298
0.03975105285644531,0.01757502555847168,-0.0023455023765563965,2023-10-21T14:55:06.318833Z,1697900106318
0.008841514587402344,0.003902912139892578,-5.179643630981445E-4,2023-10-21T14:55:06.339918Z,1697900106339
-0.020895004272460938,-0.009253501892089844,0.0012320280075073242,2023-10-21T14:55:06.359444Z,1697900106359
-0.051944732666015625,-0.023180484771728516,0.003122687339782715,2023-10-21T14:55:06.379635Z,1697900106379
-0.08658313751220703,-0.039089202880859375,0.005341529846191406,2023-10-21T14:55:06.399853Z,1697900106399
-0.12560558319091797,-0.057581424713134766,0.008014917373657227,2023-10-21T14:55:06.423208Z,1697900106423
-0.16734600067138672,-0.07818937301635742,0.011141180992126465,2023-10-21T14:55:06.440371Z,1697900106440
-0.2089519500732422,-0.09984827041625977,0.014645099639892578,2023-10-21T14:55:06.460695Z,1697900106460
-0.24845218658447266,-0.12179088592529297,0.01844686269760132,2023-10-21T14:55:06.480934Z,1697900106480
-0.2852325439453125,-0.14382410049438477,0.02255117893218994,2023-10-21T14:55:06.501182Z,1697900106501
-0.31888484954833984,-0.16582536697387695,0.026993870735168457,2023-10-21T14:55:06.523219Z,1697900106523
-0.34777069091796875,-0.18701839447021484,0.031757354736328125,2023-10-21T14:55:06.541746Z,1697900106541
-0.3700370788574219,-0.2064070701599121,0.036754488945007324,2023-10-21T14:55:06.562012Z,1697900106561
-0.3833580017089844,-0.22245025634765625,0.041713178157806396,2023-10-21T14:55:06.582180Z,1697900106582
-0.3861222267150879,-0.23366165161132812,0.04628455638885498,2023-10-21T14:55:06.602453Z,1697900106602
-0.3770308494567871,-0.23841619491577148,0.05000710487365723,2023-10-21T14:55:06.623586Z,1697900106623
-0.3558387756347656,-0.23548603057861328,0.05237412452697754,2023-10-21T14:55:06.643069Z,1697900106643
-0.32456493377685547,-0.22502613067626953,0.052977800369262695,2023-10-21T14:55:06.663312Z,1697900106663
-0.2866816520690918,-0.2083582878112793,0.05162811279296875,2023-10-21T14:55:06.683552Z,1697900106683
-0.24523544311523438,-0.18682336807250977,0.04833829402923584,2023-10-21T14:55:06.706460Z,1697900106706
-0.20159292221069336,-0.16086244583129883,0.04313945770263672,2023-10-21T14:55:06.724081Z,1697900106724
-0.15619230270385742,-0.1303882598876953,0.0360485315322876,2023-10-21T14:55:06.744392Z,1697900106744
-0.10996580123901367,-0.09587574005126953,0.027225971221923828,2023-10-21T14:55:06.764648Z,1697900106764
-0.06555509567260742,-0.05957651138305664,0.017333030700683594,2023-10-21T14:55:06.784875Z,1697900106784
-0.025601863861083984,-0.024202823638916016,0.007197260856628418,2023-10-21T14:55:06.806115Z,1697900106806
0.007835865020751953,0.007688999176025391,-0.0023369789123535156,2023-10-21T14:55:06.825508Z,1697900106825
0.03456306457519531,0.035125732421875,-0.010904073715209961,2023-10-21T14:55:06.845772Z,1697900106845
0.05602884292602539,0.058829307556152344,-0.01872873306274414,2023-10-21T14:55:06.865904Z,1697900106865
0.07492637634277344,0.08111429214477539,-0.026691675186157227,2023-10-21T14:55:06.886110Z,1697900106886
0.09353160858154297,0.10427665710449219,-0.035848140716552734,2023-10-21T14:55:06.906457Z,1697900106906
0.11278533935546875,0.12943649291992188,-0.04700207710266113,2023-10-21T14:55:06.926770Z,1697900106926
0.13238859176635742,0.1563420295715332,-0.06047391891479492,2023-10-21T14:55:06.947025Z,1697900106946
0.15192174911499023,0.18445205688476562,-0.07635140419006348,2023-10-21T14:55:06.967264Z,1697900106967
0.17487478256225586,0.21779870986938477,-0.09673619270324707,2023-10-21T14:55:06.989508Z,1697900106989
0.2061934471130371,0.26220226287841797,-0.12518048286437988,2023-10-21T14:55:07.007787Z,1697900107007
0.24925756454467773,0.3211684226989746,-0.1652839183807373,2023-10-21T14:55:07.028097Z,1697900107028
0.30397748947143555,0.3928236961364746,-0.2188105583190918,2023-10-21T14:55:07.048299Z,1697900107048
0.36865901947021484,0.4719538688659668,-0.28601884841918945,2023-10-21T14:55:07.068517Z,1697900107068
0.44586896896362305,0.5573945045471191,-0.36994314193725586,2023-10-21T14:55:07.089386Z,1697900107089
0.5425601005554199,0.6525940895080566,-0.4770355224609375,2023-10-21T14:55:07.109124Z,1697900107109
0.6616644859313965,0.7556595802307129,-0.6091532707214355,2023-10-21T14:55:07.129409Z,1697900107129
0.8041248321533203,0.8623027801513672,-0.7651753425598145,2023-10-21T14:55:07.149613Z,1697900107149
0.9665827751159668,0.9637799263000488,-0.938776969909668,2023-10-21T14:55:07.172715Z,1697900107172
1.1464791297912598,1.0526928901672363,-1.1252555847167969,2023-10-21T14:55:07.190157Z,1697900107190
1.337195873260498,1.1225404739379883,-1.3195481300354004,2023-10-21T14:55:07.210463Z,1697900107210
1.5264968872070312,1.1671137809753418,-1.51153564453125,2023-10-21T14:55:07.230716Z,1697900107230
1.702253818511963,1.1838951110839844,-1.690290927886963,2023-10-21T14:55:07.250871Z,1697900107250
1.856132984161377,1.1746749877929688,-1.8471388816833496,2023-10-21T14:55:07.272626Z,1697900107272
1.9774508476257324,1.1405036449432373,-1.970017433166504,2023-10-21T14:55:07.291529Z,1697900107291
2.0552597045898438,1.0803258419036865,-2.0460610389709473,2023-10-21T14:55:07.311838Z,1697900107311
2.087550163269043,0.9959065914154053,-2.074397563934326,2023-10-21T14:55:07.331943Z,1697900107331
2.0745983123779297,0.8900120258331299,-2.057194709777832,2023-10-21T14:55:07.352155Z,1697900107352
2.021678924560547,0.7689428329467773,-2.001983165740967,2023-10-21T14:55:07.372528Z,1697900107372
1.928184986114502,0.6382999420166016,-1.907175064086914,2023-10-21T14:55:07.392843Z,1697900107392
1.7962937355041504,0.503541111946106,-1.7700090408325195,2023-10-21T14:55:07.413059Z,1697900107413
1.6337156295776367,0.37168991565704346,-1.5952072143554688,2023-10-21T14:55:07.433298Z,1697900107433
1.44927978515625,0.25037312507629395,-1.3929171562194824,2023-10-21T14:55:07.455858Z,1697900107455
1.2506661415100098,0.14619463682174683,-1.1754355430603027,2023-10-21T14:55:07.473873Z,1697900107473
1.0424470901489258,0.06297421455383301,-0.9526610374450684,2023-10-21T14:55:07.494129Z,1697900107494
0.8236374855041504,0.0037841126322746277,-0.7290458679199219,2023-10-21T14:55:07.514363Z,1697900107514
0.5874414443969727,-0.028647541999816895,-0.5014986991882324,2023-10-21T14:55:07.534582Z,1697900107534
0.32694339752197266,-0.03188049793243408,-0.2677435874938965,2023-10-21T14:55:07.555731Z,1697900107555
0.03619050979614258,-0.005039811134338379,-0.028191089630126953,2023-10-21T14:55:07.575195Z,1697900107575
-0.2929220199584961,0.050556302070617676,0.21452569961547852,2023-10-21T14:55:07.595487Z,1697900107595
-0.6661539077758789,0.13138139247894287,0.45209455490112305,2023-10-21T14:55:07.615685Z,1697900107615
-1.0792713165283203,0.23051047325134277,0.6680331230163574,2023-10-21T14:55:07.639094Z,1697900107639
-1.5265803337097168,0.33952391147613525,0.8461225032806396,2023-10-21T14:55:07.656226Z,1697900107656
-1.9989714622497559,0.4469872713088989,0.9703538417816162,2023-10-21T14:55:07.676515Z,1697900107676
-2.495382785797119,0.538048505783081,1.0276319980621338,2023-10-21T14:55:07.696755Z,1697900107696
-2.995547294616699,0.5931581258773804,0.9931297302246094,2023-10-21T14:55:07.717005Z,1697900107716
-3.4559154510498047,0.5930867195129395,0.8506079912185669,2023-10-21T14:55:07.738959Z,1697900107738
-3.827345848083496,0.5285516977310181,0.6088029146194458,2023-10-21T14:55:07.757555Z,1697900107757
-4.076021194458008,0.40685713291168213,0.30856162309646606,2023-10-21T14:55:07.777816Z,1697900107777
-4.188958644866943,0.243374764919281,0.007642717100679874,2023-10-21T14:55:07.798066Z,1697900107798
-4.175117015838623,0.05661962926387787,-0.23875808715820312,2023-10-21T14:55:07.818256Z,1697900107818
-4.0546183586120605,-0.13628467917442322,-0.40381306409835815,2023-10-21T14:55:07.838866Z,1697900107838
-3.8407726287841797,-0.31857892870903015,-0.4825499653816223,2023-10-21T14:55:07.858863Z,1697900107858
-3.5410056114196777,-0.4699077010154724,-0.48978084325790405,2023-10-21T14:55:07.879133Z,1697900107879
-3.160451889038086,-0.5693529844284058,-0.4413716793060303,2023-10-21T14:55:07.899392Z,1697900107899
-2.714527130126953,-0.6080896854400635,-0.3571135997772217,2023-10-21T14:55:07.922278Z,1697900107922
-2.2228660583496094,-0.5868782997131348,-0.2595396637916565,2023-10-21T14:55:07.939899Z,1697900107939
-1.7037668228149414,-0.5108788013458252,-0.16648316383361816,2023-10-21T14:55:07.960197Z,1697900107960
-1.1721010208129883,-0.3879516124725342,-0.0894351601600647,2023-10-21T14:55:07.980456Z,1697900107980
-0.6421642303466797,-0.22967886924743652,-0.034899741411209106,2023-10-21T14:55:08.000697Z,1697900108000
-0.12813091278076172,-0.04866814613342285,-0.004275470972061157,2023-10-21T14:55:08.022085Z,1697900108022
0.3531808853149414,0.1404879093170166,0.004778444766998291,2023-10-21T14:55:08.041238Z,1697900108041
0.788818359375,0.3248422145843506,-0.00415937602519989,2023-10-21T14:55:08.061529Z,1697900108061
1.1678218841552734,0.4932537078857422,-0.027791857719421387,2023-10-21T14:55:08.081750Z,1697900108081
1.486612319946289,0.6397247314453125,-0.06308376789093018,2023-10-21T14:55:08.101967Z,1697900108101
1.745269775390625,0.7610476016998291,-0.10694825649261475,2023-10-21T14:55:08.122257Z,1697900108122
1.9471845626831055,0.8564260005950928,-0.15694963932037354,2023-10-21T14:55:08.142567Z,1697900108142
2.096796989440918,0.9269237518310547,-0.21105027198791504,2023-10-21T14:55:08.162810Z,1697900108162
2.198312759399414,0.9749507904052734,-0.267223596572876,2023-10-21T14:55:08.183045Z,1697900108183
2.258594512939453,1.0037970542907715,-0.3242182731628418,2023-10-21T14:55:08.205171Z,1697900108205
2.2856903076171875,1.0186972618103027,-0.3808763027191162,2023-10-21T14:55:08.223598Z,1697900108223
2.2879228591918945,1.0247092247009277,-0.4347357749938965,2023-10-21T14:55:08.243899Z,1697900108243
2.2693872451782227,1.024620532989502,-0.4834623336791992,2023-10-21T14:55:08.264143Z,1697900108264
2.233255386352539,1.0196795463562012,-0.524477481842041,2023-10-21T14:55:08.284342Z,1697900108284
2.1806459426879883,1.008882999420166,-0.5563814640045166,2023-10-21T14:55:08.305267Z,1697900108305
2.111530303955078,0.9919009208679199,-0.5780332088470459,2023-10-21T14:55:08.324927Z,1697900108324
2.0239124298095703,0.968019962310791,-0.587529182434082,2023-10-21T14:55:08.345215Z,1697900108345
1.9146537780761719,0.9356803894042969,-0.5830037593841553,2023-10-21T14:55:08.365440Z,1697900108365
1.7827262878417969,0.8936309814453125,-0.5639493465423584,2023-10-21T14:55:08.388500Z,1697900108388
1.6307086944580078,0.8416581153869629,-0.531740665435791,2023-10-21T14:55:08.405977Z,1697900108405
1.4637088775634766,0.7802610397338867,-0.4889829158782959,2023-10-21T14:55:08.426302Z,1697900108426
1.2873954772949219,0.7104144096374512,-0.4385981559753418,2023-10-21T14:55:08.446516Z,1697900108446
1.1067047119140625,0.6333608627319336,-0.3831019401550293,2023-10-21T14:55:08.466714Z,1697900108466
0.9262056350708008,0.5508027076721191,-0.3247826099395752,2023-10-21T14:55:08.488416Z,1697900108488
0.7515759468078613,0.4654226303100586,-0.26625871658325195,2023-10-21T14:55:08.507327Z,1697900108507
0.590057373046875,0.38103389739990234,-0.2107069492340088,2023-10-21T14:55:08.527602Z,1697900108527
0.449404239654541,0.30257558822631836,-0.16144347190856934,2023-10-21T14:55:08.547833Z,1697900108547
0.3348970413208008,0.23463010787963867,-0.12081241607666016,2023-10-21T14:55:08.568042Z,1697900108568
0.24799060821533203,0.1801900863647461,-0.08974266052246094,2023-10-21T14:55:08.588390Z,1697900108588
0.1852273941040039,0.13905811309814453,-0.06723952293395996,2023-10-21T14:55:08.608646Z,1697900108608
0.14062118530273438,0.10870122909545898,-0.05126237869262695,2023-10-21T14:55:08.628909Z,1697900108628
0.10985469818115234,0.08714532852172852,-0.04026079177856445,2023-10-21T14:55:08.649133Z,1697900108649
0.09099912643432617,0.07380962371826172,-0.033539772033691406,2023-10-21T14:55:08.671671Z,1697900108671
0.08258581161499023,0.06819677352905273,-0.03059554100036621,2023-10-21T14:55:08.689801Z,1697900108689
0.08229875564575195,0.0688638687133789,-0.030617952346801758,2023-10-21T14:55:08.710176Z,1697900108710
0.08703899383544922,0.07346296310424805,-0.032492876052856445,2023-10-21T14:55:08.730254Z,1697900108730
0.09393882751464844,0.0796651840209961,-0.03517603874206543,2023-10-21T14:55:08.750582Z,1697900108750
0.10158824920654297,0.0863032341003418,-0.038150787353515625,2023-10-21T14:55:08.771818Z,1697900108771
0.1091156005859375,0.09265708923339844,-0.04106903076171875,2023-10-21T14:55:08.791013Z,1697900108790
0.11655902862548828,0.0987696647644043,-0.04390096664428711,2023-10-21T14:55:08.811303Z,1697900108811
0.12490034103393555,0.10546588897705078,-0.04696297645568848,2023-10-21T14:55:08.831678Z,1697900108831
0.13443374633789062,0.1130075454711914,-0.050385475158691406,2023-10-21T14:55:08.854933Z,1697900108854
0.14458227157592773,0.12097692489624023,-0.05402803421020508,2023-10-21T14:55:08.872213Z,1697900108872
0.15367746353149414,0.12803411483764648,-0.05733466148376465,2023-10-21T14:55:08.892382Z,1697900108892
0.16138696670532227,0.13391399383544922,-0.06018328666687012,2023-10-21T14:55:08.912588Z,1697900108912
0.16816186904907227,0.13894319534301758,-0.06270909309387207,2023-10-21T14:55:08.932806Z,1697900108932
0.17452335357666016,0.14354276657104492,-0.06508803367614746,2023-10-21T14:55:08.954924Z,1697900108954
0.1803445816040039,0.14763832092285156,-0.06726217269897461,2023-10-21T14:55:08.973432Z,1697900108973
0.18470048904418945,0.1504983901977539,-0.06885695457458496,2023-10-21T14:55:08.993667Z,1697900108993
0.18786334991455078,0.15231895446777344,-0.06998586654663086,2023-10-21T14:55:09.013883Z,1697900109013
0.19035673141479492,0.15348529815673828,-0.07090902328491211,2023-10-21T14:55:09.034060Z,1697900109034
0.1917576789855957,0.1536569595336914,-0.07147455215454102,2023-10-21T14:55:09.054680Z,1697900109054
0.19232749938964844,0.15302515029907227,-0.07175230979919434,2023-10-21T14:55:09.074731Z,1697900109074
0.19336938858032227,0.1526012420654297,-0.07215237617492676,2023-10-21T14:55:09.094968Z,1697900109094
0.19564008712768555,0.15295743942260742,-0.07293176651000977,2023-10-21T14:55:09.115305Z,1697900109115
0.1995105743408203,0.15435552597045898,-0.07419514656066895,2023-10-21T14:55:09.138186Z,1697900109138
0.20408201217651367,0.15609264373779297,-0.07560610771179199,2023-10-21T14:55:09.155769Z,1697900109155
0.20903491973876953,0.1578989028930664,-0.07703065872192383,2023-10-21T14:55:09.176050Z,1697900109176
0.2160959243774414,0.1610426902770996,-0.07910442352294922,2023-10-21T14:55:09.196263Z,1697900109196
0.2262105941772461,0.16617488861083984,-0.08209347724914551,2023-10-21T14:55:09.216503Z,1697900109216
0.24014043807983398,0.1737804412841797,-0.08613181114196777,2023-10-21T14:55:09.237895Z,1697900109237
0.25861597061157227,0.18427801132202148,-0.09134221076965332,2023-10-21T14:55:09.257104Z,1697900109257
0.2816276550292969,0.19751644134521484,-0.09756660461425781,2023-10-21T14:55:09.277385Z,1697900109277
0.309542179107666,0.21365976333618164,-0.10482573509216309,2023-10-21T14:55:09.297576Z,1697900109297
0.34159231185913086,0.2321000099182129,-0.11274123191833496,2023-10-21T14:55:09.317750Z,1697900109317
0.3761477470397949,0.251737117767334,-0.12066984176635742,2023-10-21T14:55:09.338116Z,1697900109338
0.4119071960449219,0.2716803550720215,-0.12799906730651855,2023-10-21T14:55:09.358393Z,1697900109358
0.44858837127685547,0.29163503646850586,-0.13443827629089355,2023-10-21T14:55:09.378633Z,1697900109378
0.48677635192871094,0.31192874908447266,-0.14009499549865723,2023-10-21T14:55:09.398884Z,1697900109398
0.5245513916015625,0.3314218521118164,-0.14451980590820312,2023-10-21T14:55:09.421274Z,1697900109421
0.5585002899169922,0.3482174873352051,-0.14700746536254883,2023-10-21T14:55:09.439466Z,1697900109439
0.5856771469116211,0.3606858253479004,-0.1470186710357666,2023-10-21T14:55:09.459746Z,1697900109459
0.6043119430541992,0.36781740188598633,-0.1443791389465332,2023-10-21T14:55:09.479946Z,1697900109479
0.613612174987793,0.36920976638793945,-0.13927268981933594,2023-10-21T14:55:09.500163Z,1697900109500
0.6118927001953125,0.36400651931762695,-0.13163697719573975,2023-10-21T14:55:09.521049Z,1697900109521
0.5987663269042969,0.3522319793701172,-0.12168657779693604,2023-10-21T14:55:09.540758Z,1697900109540
0.5763483047485352,0.3352985382080078,-0.11031615734100342,2023-10-21T14:55:09.561090Z,1697900109561
0.5461702346801758,0.3143157958984375,-0.09827184677124023,2023-10-21T14:55:09.581297Z,1697900109581
0.508148193359375,0.28935813903808594,-0.08587157726287842,2023-10-21T14:55:09.605108Z,1697900109605
0.46349239349365234,0.2611508369445801,-0.07349765300750732,2023-10-21T14:55:09.621890Z,1697900109621
0.414398193359375,0.23094463348388672,-0.06161665916442871,2023-10-21T14:55:09.642245Z,1697900109642
0.36308765411376953,0.20005416870117188,-0.05064535140991211,2023-10-21T14:55:09.662457Z,1697900109662
0.3100137710571289,0.1688847541809082,-0.040660738945007324,2023-10-21T14:55:09.682629Z,1697900109682
0.2544898986816406,0.1371617317199707,-0.03150784969329834,2023-10-21T14:55:09.704288Z,1697900109704
0.1979818344116211,0.10567951202392578,-0.02327752113342285,2023-10-21T14:55:09.723122Z,1697900109723
0.1423625946044922,0.0753474235534668,-0.016042649745941162,2023-10-21T14:55:09.743438Z,1697900109743
0.0881814956665039,0.04633760452270508,-0.009623467922210693,2023-10-21T14:55:09.763669Z,1697900109763
0.03475189208984375,0.018160343170166016,-0.003711104393005371,2023-10-21T14:55:09.783820Z,1697900109783
-0.018950462341308594,-0.009868144989013672,0.001996755599975586,2023-10-21T14:55:09.804153Z,1697900109804
-0.07285308837890625,-0.03788948059082031,0.007631897926330566,2023-10-21T14:55:09.824438Z,1697900109824
-0.12660694122314453,-0.0659494400024414,0.013291358947753906,2023-10-21T14:55:09.844728Z,1697900109844
-0.17950439453125,-0.09395456314086914,0.019015491008758545,2023-10-21T14:55:09.864927Z,1697900109864
-0.23069286346435547,-0.1217494010925293,0.024796903133392334,2023-10-21T14:55:09.887520Z,1697900109887
-0.2795438766479492,-0.14929437637329102,0.03062993288040161,2023-10-21T14:55:09.905510Z,1697900109905
-0.3250913619995117,-0.17634820938110352,0.036496520042419434,2023-10-21T14:55:09.925773Z,1697900109925
-0.3670969009399414,-0.2030501365661621,0.042475879192352295,2023-10-21T14:55:09.946005Z,1697900109945
-0.4050254821777344,-0.22932958602905273,0.04860597848892212,2023-10-21T14:55:09.966246Z,1697900109966
-0.436953067779541,-0.25419139862060547,0.05471086502075195,2023-10-21T14:55:09.987352Z,1697900109987
-0.45998144149780273,-0.27578210830688477,0.06045842170715332,2023-10-21T14:55:10.006820Z,1697900110006
-0.4721860885620117,-0.2925295829772949,0.06557941436767578,2023-10-21T14:55:10.027115Z,1697900110027
-0.4735417366027832,-0.303802490234375,0.069976806640625,2023-10-21T14:55:10.047319Z,1697900110047
-0.4654102325439453,-0.3098134994506836,0.07363414764404297,2023-10-21T14:55:10.070677Z,1697900110070
-0.4489169120788574,-0.31059789657592773,0.07644772529602051,2023-10-21T14:55:10.087912Z,1697900110087
-0.4244532585144043,-0.3056364059448242,0.07813835144042969,2023-10-21T14:55:10.108162Z,1697900110108
-0.3924531936645508,-0.2943558692932129,0.07834088802337646,2023-10-21T14:55:10.128430Z,1697900110128
-0.3534708023071289,-0.27625083923339844,0.07669639587402344,2023-10-21T14:55:10.148638Z,1697900110148
-0.30904579162597656,-0.2517204284667969,0.07309150695800781,2023-10-21T14:55:10.170573Z,1697900110170
-0.26078319549560547,-0.22142839431762695,0.06747627258300781,2023-10-21T14:55:10.189222Z,1697900110189
-0.21074819564819336,-0.18663787841796875,0.05993306636810303,2023-10-21T14:55:10.209502Z,1697900110209
-0.1607041358947754,-0.14856290817260742,0.05047893524169922,2023-10-21T14:55:10.229766Z,1697900110229
-0.1109471321105957,-0.10718393325805664,0.038698673248291016,2023-10-21T14:55:10.249907Z,1697900110249
-0.06041669845581055,-0.06107139587402344,0.023525476455688477,2023-10-21T14:55:10.270445Z,1697900110270
-0.0066127777099609375,-0.007005214691162109,0.002888917922973633,2023-10-21T14:55:10.290533Z,1697900110290
0.0541682243347168,0.0602269172668457,-0.026622533798217773,2023-10-21T14:55:10.310796Z,1697900110310
0.12415647506713867,0.14507055282592773,-0.0687410831451416,2023-10-21T14:55:10.331036Z,1697900110330
0.20250511169433594,0.24877548217773438,-0.1261286735534668,2023-10-21T14:55:10.353821Z,1697900110353
0.2855372428894043,0.36829710006713867,-0.19910454750061035,2023-10-21T14:55:10.371595Z,1697900110371
0.37007999420166016,0.49931812286376953,-0.2869434356689453,2023-10-21T14:55:10.391834Z,1697900110391
0.45717668533325195,0.6414155960083008,-0.39139747619628906,2023-10-21T14:55:10.412117Z,1697900110412
0.5487661361694336,0.7937440872192383,-0.5145511627197266,2023-10-21T14:55:10.432401Z,1697900110432
0.6475186347961426,0.9548401832580566,-0.659149169921875,2023-10-21T14:55:10.452593Z,1697900110452
0.7510800361633301,1.1182804107666016,-0.8226704597473145,2023-10-21T14:55:10.472917Z,1697900110472
0.8510236740112305,1.269932746887207,-0.993873119354248,2023-10-21T14:55:10.493146Z,1697900110493
0.9426145553588867,1.3992719650268555,-1.1622328758239746,2023-10-21T14:55:10.513418Z,1697900110513
1.0224785804748535,1.4944171905517578,-1.314931869506836,2023-10-21T14:55:10.533592Z,1697900110533
1.0975723266601562,1.5557904243469238,-1.4523887634277344,2023-10-21T14:55:10.553916Z,1697900110553
1.1733617782592773,1.5905976295471191,-1.5809121131896973,2023-10-21T14:55:10.574230Z,1697900110574
1.2475934028625488,1.6019039154052734,-1.7008452415466309,2023-10-21T14:55:10.594477Z,1697900110594
1.3132777214050293,1.5866923332214355,-1.8036794662475586,2023-10-21T14:55:10.614674Z,1697900110614
1.3625726699829102,1.5421156883239746,-1.8790655136108398,2023-10-21T14:55:10.636890Z,1697900110636
1.386629581451416,1.465153694152832,-1.9132461547851562,2023-10-21T14:55:10.655271Z,1697900110655
1.386253833770752,1.3582162857055664,-1.903627872467041,2023-10-21T14:55:10.675521Z,1697900110675
1.3698616027832031,1.2309389114379883,-1.860318660736084,2023-10-21T14:55:10.695782Z,1697900110695
1.340050220489502,1.0904455184936523,-1.790074348449707,2023-10-21T14:55:10.715961Z,1697900110715
1.2971858978271484,0.945392370223999,-1.7009353637695312,2023-10-21T14:55:10.736816Z,1697900110736
1.2286467552185059,0.7958707809448242,-1.5821762084960938,2023-10-21T14:55:10.756557Z,1697900110756
1.1272664070129395,0.6422274112701416,-1.4249658584594727,2023-10-21T14:55:10.776863Z,1697900110776
0.9943161010742188,0.4893300533294678,-1.23026704788208,2023-10-21T14:55:10.797096Z,1697900110797
0.8329100608825684,0.34433770179748535,-1.0043797492980957,2023-10-21T14:55:10.820242Z,1697900110820
0.6474189758300781,0.21562623977661133,-0.7576212882995605,2023-10-21T14:55:10.837591Z,1697900110837
0.44732189178466797,0.11229026317596436,-0.5063562393188477,2023-10-21T14:55:10.857910Z,1697900110857
0.2408447265625,0.040839195251464844,-0.26328420639038086,2023-10-21T14:55:10.878150Z,1697900110878
0.027684688568115234,0.002528250217437744,-0.02918529510498047,2023-10-21T14:55:10.898363Z,1697900110898
-0.20249271392822266,-0.0037879645824432373,0.20513916015625,2023-10-21T14:55:10.920047Z,1697900110920
-0.46033382415771484,0.021729379892349243,0.4455142021179199,2023-10-21T14:55:10.938920Z,1697900110938
-0.7495803833007812,0.07972919940948486,0.6875162124633789,2023-10-21T14:55:10.959243Z,1697900110959
-1.059471607208252,0.16835522651672363,0.9108824729919434,2023-10-21T14:55:10.979467Z,1697900110979
-1.371279239654541,0.279193639755249,1.090641975402832,2023-10-21T14:55:10.999621Z,1697900110999
-1.6744270324707031,0.40020251274108887,1.2155494689941406,2023-10-21T14:55:11.019942Z,1697900111019
-1.9650096893310547,0.516855001449585,1.2871708869934082,2023-10-21T14:55:11.040298Z,1697900111040
-2.263772964477539,0.6216096878051758,1.3209912776947021,2023-10-21T14:55:11.060482Z,1697900111060
-2.572223663330078,0.7094159126281738,1.31109619140625,2023-10-21T14:55:11.080716Z,1697900111080
-2.8643016815185547,0.769478440284729,1.2421534061431885,2023-10-21T14:55:11.103226Z,1697900111103
-3.1003193855285645,0.7907512187957764,1.1151728630065918,2023-10-21T14:55:11.121302Z,1697900111121
-3.2483038902282715,0.7667973041534424,0.950487494468689,2023-10-21T14:55:11.141625Z,1697900111141
-3.2950668334960938,0.6978974342346191,0.7778018712997437,2023-10-21T14:55:11.161834Z,1697900111161
-3.259514331817627,0.594345211982727,0.6231745481491089,2023-10-21T14:55:11.182049Z,1697900111182
-3.1707539558410645,0.4704812169075012,0.49551939964294434,2023-10-21T14:55:11.203135Z,1697900111203
-3.039668560028076,0.3356115221977234,0.39237290620803833,2023-10-21T14:55:11.222615Z,1697900111222
-2.8582053184509277,0.20039141178131104,0.30539679527282715,2023-10-21T14:55:11.242908Z,1697900111242
-2.599820613861084,0.0767747014760971,0.23375749588012695,2023-10-21T14:55:11.263102Z,1697900111263
-2.2639317512512207,-0.023527495563030243,0.17862772941589355,2023-10-21T14:55:11.286536Z,1697900111286
-1.871699333190918,-0.0914764404296875,0.1374923586845398,2023-10-21T14:55:11.303649Z,1697900111303
-1.447408676147461,-0.12329882383346558,0.10471636056900024,2023-10-21T14:55:11.323956Z,1697900111323
-1.012751579284668,-0.12058544158935547,0.07499748468399048,2023-10-21T14:55:11.344195Z,1697900111344
-0.5838155746459961,-0.08790946006774902,0.044962167739868164,2023-10-21T14:55:11.364398Z,1697900111364
-0.16773414611816406,-0.02998030185699463,0.01357412338256836,2023-10-21T14:55:11.386368Z,1697900111386
0.23331356048583984,0.04726088047027588,-0.020191729068756104,2023-10-21T14:55:11.404989Z,1697900111404
0.6150054931640625,0.13597488403320312,-0.05829340219497681,2023-10-21T14:55:11.425279Z,1697900111425
0.9678859710693359,0.22713708877563477,-0.10247600078582764,2023-10-21T14:55:11.445521Z,1697900111445
1.2804365158081055,0.31331968307495117,-0.15216708183288574,2023-10-21T14:55:11.465728Z,1697900111465
1.5437660217285156,0.3891770839691162,-0.20573627948760986,2023-10-21T14:55:11.486217Z,1697900111486
1.755894660949707,0.45240139961242676,-0.26203322410583496,2023-10-21T14:55:11.506319Z,1697900111506
1.9197874069213867,0.5031337738037109,-0.32015562057495117,2023-10-21T14:55:11.526554Z,1697900111526
2.0398969650268555,0.5427060127258301,-0.3793983459472656,2023-10-21T14:55:11.546772Z,1697900111546
2.1224536895751953,0.572784423828125,-0.4397847652435303,2023-10-21T14:55:11.569577Z,1697900111569
2.171497344970703,0.5960211753845215,-0.49952268600463867,2023-10-21T14:55:11.587356Z,1697900111587
2.1867141723632812,0.6139020919799805,-0.5542299747467041,2023-10-21T14:55:11.607642Z,1697900111607
2.1655664443969727,0.6277048587799072,-0.5980224609375,2023-10-21T14:55:11.627874Z,1697900111627
2.1064987182617188,0.6367988586425781,-0.6261560916900635,2023-10-21T14:55:11.648073Z,1697900111648
2.012881278991699,0.6393141746520996,-0.6382112503051758,2023-10-21T14:55:11.669531Z,1697900111669
1.89312744140625,0.6348145008087158,-0.6354856491088867,2023-10-21T14:55:11.688668Z,1697900111688
1.7559890747070312,0.6232457160949707,-0.6196362972259521,2023-10-21T14:55:11.708946Z,1697900111708
1.6088581085205078,0.604766845703125,-0.5925660133361816,2023-10-21T14:55:11.729125Z,1697900111729
1.454239845275879,0.578601598739624,-0.5552544593811035,2023-10-21T14:55:11.749372Z,1697900111749
1.2903575897216797,0.5430908203125,-0.5077371597290039,2023-10-21T14:55:11.769722Z,1697900111769
1.116990089416504,0.4972529411315918,-0.4507746696472168,2023-10-21T14:55:11.790021Z,1697900111789
0.9406747817993164,0.44294214248657227,-0.38773083686828613,2023-10-21T14:55:11.810279Z,1697900111810
0.7723369598388672,0.3844003677368164,-0.3239016532897949,2023-10-21T14:55:11.830447Z,1697900111830
0.6220989227294922,0.32657718658447266,-0.2644643783569336,2023-10-21T14:55:11.852712Z,1697900111852
0.4943990707397461,0.2729911804199219,-0.21223974227905273,2023-10-21T14:55:11.871030Z,1697900111870
0.3877224922180176,0.22465085983276367,-0.16741538047790527,2023-10-21T14:55:11.891374Z,1697900111891
0.29839515686035156,0.18110275268554688,-0.12910246849060059,2023-10-21T14:55:11.911537Z,1697900111911
0.2242898941040039,0.1423358917236328,-0.0969247817993164,2023-10-21T14:55:11.931765Z,1697900111931
0.1653614044189453,0.10943078994750977,-0.07116913795471191,2023-10-21T14:55:11.952610Z,1697900111952
0.12242507934570312,0.08412837982177734,-0.05229830741882324,2023-10-21T14:55:11.972388Z,1697900111972
0.09537696838378906,0.06768321990966797,-0.040276527404785156,2023-10-21T14:55:11.992673Z,1697900111992
0.08000946044921875,0.05830240249633789,-0.03325986862182617,2023-10-21T14:55:12.012854Z,1697900112012
0.07105255126953125,0.0529022216796875,-0.028966426849365234,2023-10-21T14:55:12.036018Z,1697900112035
0.06444501876831055,0.04883003234863281,-0.02567601203918457,2023-10-21T14:55:12.053428Z,1697900112053
0.057824134826660156,0.04443788528442383,-0.02243351936340332,2023-10-21T14:55:12.073730Z,1697900112073
0.05118703842163086,0.03977155685424805,-0.019269227981567383,2023-10-21T14:55:12.094002Z,1697900112093
0.044465065002441406,0.034827232360839844,-0.01617908477783203,2023-10-21T14:55:12.114198Z,1697900112114
0.038381099700927734,0.03022289276123047,-0.01344609260559082,2023-10-21T14:55:12.136188Z,1697900112136
0.03459024429321289,0.027326583862304688,-0.01161956787109375,2023-10-21T14:55:12.154771Z,1697900112154
0.034555912017822266,0.027348995208740234,-0.011096000671386719,2023-10-21T14:55:12.175064Z,1697900112175
0.03795051574707031,0.03008270263671875,-0.011632919311523438,2023-10-21T14:55:12.195319Z,1697900112195
0.04345989227294922,0.03451395034790039,-0.012729167938232422,2023-10-21T14:55:12.215493Z,1697900112215
0.04965066909790039,0.039537906646728516,-0.0139312744140625,2023-10-21T14:55:12.235803Z,1697900112235
0.056459903717041016,0.04511547088623047,-0.015236139297485352,2023-10-21T14:55:12.256129Z,1697900112256
0.065521240234375,0.052547454833984375,-0.01707899570465088,2023-10-21T14:55:12.276347Z,1697900112276
0.07816648483276367,0.06288814544677734,-0.019767284393310547,2023-10-21T14:55:12.296623Z,1697900112296
0.09372186660766602,0.07557249069213867,-0.023110628128051758,2023-10-21T14:55:12.319055Z,1697900112319
0.10946083068847656,0.08838367462158203,-0.026465296745300293,2023-10-21T14:55:12.337128Z,1697900112337
0.1233663558959961,0.09964179992675781,-0.029395699501037598,2023-10-21T14:55:12.357425Z,1697900112357
0.1345829963684082,0.1085672378540039,-0.03172934055328369,2023-10-21T14:55:12.377670Z,1697900112377
0.14441728591918945,0.11609840393066406,-0.03375518321990967,2023-10-21T14:55:12.397868Z,1697900112397
0.15466833114624023,0.1235818862915039,-0.03583180904388428,2023-10-21T14:55:12.419336Z,1697900112419
0.16632938385009766,0.13174724578857422,-0.038105130195617676,2023-10-21T14:55:12.438501Z,1697900112438
0.18053960800170898,0.14142656326293945,-0.040779948234558105,2023-10-21T14:55:12.458765Z,1697900112458
0.19786357879638672,0.15297746658325195,-0.043952107429504395,2023-10-21T14:55:12.479056Z,1697900112479
0.21808385848999023,0.16617059707641602,-0.04751145839691162,2023-10-21T14:55:12.502561Z,1697900112502
0.24170541763305664,0.18133211135864258,-0.051480770111083984,2023-10-21T14:55:12.519545Z,1697900112519
