GYR_X,GYR_Y,GYR_Z,DATE,UNIX_TIMESTAMP
-0.002128450432792306,0.0039908443577587605,0.0018623941577970982,2023-10-21T14:56:38.707764Z,1697900198707
-2.6605630409903824E-4,-9.311970788985491E-4,-0.004522957373410463,2023-10-21T14:56:38.717292Z,1697900198717
0.001064225216396153,-0.002128450432792306,0.0038578163366764784,2023-10-21T14:56:38.727987Z,1697900198727
-0.004256900865584612,0.004389929119497538,0.004655985161662102,2023-10-21T14:56:38.737302Z,1697900198737
-0.0038578163366764784,-0.004123872611671686,0.0015963378828018904,2023-10-21T14:56:38.748247Z,1697900198748
-0.001064225216396153,0.0047890134155750275,-0.0015963378828018904,2023-10-21T14:56:38.758046Z,1697900198757
-0.004922041669487953,5.321126081980765E-4,-0.0022614786867052317,2023-10-21T14:56:38.768512Z,1697900198768
-0.004256900865584612,-0.0017293660202994943,-0.0023945067077875137,2023-10-21T14:56:38.778063Z,1697900198777
-0.0015963378828018904,0.0017293660202994943,0.003059647511690855,2023-10-21T14:56:38.791363Z,1697900198791
0.0013302814913913608,-0.0029266192577779293,-9.311970788985491E-4,2023-10-21T14:56:38.798367Z,1697900198798
0.0018623941577970982,0.0038578163366764784,-1.3302815204951912E-4,2023-10-21T14:56:38.809102Z,1697900198809
-0.0019954221788793802,-6.651407456956804E-4,-0.004655985161662102,2023-10-21T14:56:38.818675Z,1697900198818
-0.003059647511690855,0.003059647511690855,0.004655985161662102,2023-10-21T14:56:38.829703Z,1697900198829
7.981689414009452E-4,-0.0022614786867052317,0.0025275349617004395,2023-10-21T14:56:38.842056Z,1697900198841
0.003059647511690855,0.0025275349617004395,-5.321126081980765E-4,2023-10-21T14:56:38.849891Z,1697900198849
-0.001064225216396153,0.0031926757656037807,-0.003059647511690855,2023-10-21T14:56:38.859210Z,1697900198859
0.004389929119497538,0.004655985161662102,0.0031926757656037807,2023-10-21T14:56:38.869970Z,1697900198869
0.0014633096288889647,3.990844707004726E-4,0.0014633096288889647,2023-10-21T14:56:38.879574Z,1697900198879
-0.0025275349617004395,-0.0018623941577970982,0.004922041669487953,2023-10-21T14:56:38.892725Z,1697900198892
6.651407456956804E-4,-0.0027935912366956472,-2.6605630409903824E-4,2023-10-21T14:56:38.899815Z,1697900198899
-0.0,0.0034587320405989885,-0.003059647511690855,2023-10-21T14:56:38.910643Z,1697900198910
-0.005055069923400879,-5.321126081980765E-4,0.0015963378828018904,2023-10-21T14:56:38.919966Z,1697900198919
0.0038578163366764784,-0.0047890134155750275,0.004922041669487953,2023-10-21T14:56:38.930998Z,1697900198930
0.0031926757656037807,-2.6605630409903824E-4,0.0037247883155941963,2023-10-21T14:56:38.942067Z,1697900198941
0.004123872611671686,-0.0018623941577970982,-0.004389929119497538,2023-10-21T14:56:38.951134Z,1697900198951
-0.0017293660202994943,0.0027935912366956472,-0.003059647511690855,2023-10-21T14:56:38.960522Z,1697900198960
-0.004256900865584612,0.0038578163366764784,-5.321126081980765E-4,2023-10-21T14:56:38.971267Z,1697900198971
0.0027935912366956472,0.003059647511690855,-0.0026605629827827215,2023-10-21T14:56:38.980758Z,1697900198980
0.0029266192577779293,0.0011972533538937569,0.0047890134155750275,2023-10-21T14:56:38.992161Z,1697900198992
0.004256900865584612,-7.981689414009452E-4,0.0,2023-10-21T14:56:39.001018Z,1697900199000
0.004123872611671686,-0.004256900865584612,-0.0037247883155941963,2023-10-21T14:56:39.012025Z,1697900199011
-0.0022614786867052317,-7.981689414009452E-4,0.0,2023-10-21T14:56:39.021068Z,1697900199020
6.651407456956804E-4,-0.0037247883155941963,-3.990844707004726E-4,2023-10-21T14:56:39.032371Z,1697900199032
3.990844707004726E-4,-6.651407456956804E-4,-0.003059647511690855,2023-10-21T14:56:39.041801Z,1697900199041
9.311970788985491E-4,0.0,0.0019954221788793802,2023-10-21T14:56:39.052546Z,1697900199052
-0.0019954221788793802,1.3302815204951912E-4,-0.0026605629827827215,2023-10-21T14:56:39.061861Z,1697900199061
-0.0013302814913913608,-7.981689414009452E-4,0.0027935912366956472,2023-10-21T14:56:39.075690Z,1697900199075
0.003059647511690855,0.0026605629827827215,0.0025275349617004395,2023-10-21T14:56:39.082022Z,1697900199081
0.004123872611671686,-0.003325703786686063,-0.0034587320405989885,2023-10-21T14:56:39.093040Z,1697900199092
-2.6605630409903824E-4,-0.0027935912366956472,0.0029266192577779293,2023-10-21T14:56:39.102291Z,1697900199102
-0.003059647511690855,0.003325703786686063,-0.004256900865584612,2023-10-21T14:56:39.113452Z,1697900199113
-7.981689414009452E-4,-0.004922041669487953,0.0039908443577587605,2023-10-21T14:56:39.125450Z,1697900199125
0.0029266192577779293,0.0026605629827827215,-0.0011972533538937569,2023-10-21T14:56:39.133567Z,1697900199133
0.0031926757656037807,-0.004389929119497538,-0.004256900865584612,2023-10-21T14:56:39.142807Z,1697900199142
5.321126081980765E-4,-0.0031926757656037807,0.0018623941577970982,2023-10-21T14:56:39.153815Z,1697900199153
-0.004256900865584612,-0.0013302814913913608,3.990844707004726E-4,2023-10-21T14:56:39.163256Z,1697900199163
-9.311970788985491E-4,0.0026605629827827215,-0.0019954221788793802,2023-10-21T14:56:39.175916Z,1697900199175
-0.004922041669487953,5.321126081980765E-4,-0.003325703786686063,2023-10-21T14:56:39.183333Z,1697900199183
0.0025275349617004395,3.990844707004726E-4,0.004922041669487953,2023-10-21T14:56:39.194392Z,1697900199194
6.651407456956804E-4,7.981689414009452E-4,-0.0018623941577970982,2023-10-21T14:56:39.203597Z,1697900199203
-0.004655985161662102,-0.0031926757656037807,0.0019954221788793802,2023-10-21T14:56:39.214696Z,1697900199214
0.001064225216396153,-0.0015963378828018904,0.0027935912366956472,2023-10-21T14:56:39.224920Z,1697900199224
-0.0018623941577970982,0.0022614786867052317,0.004389929119497538,2023-10-21T14:56:39.234746Z,1697900199234
0.0026605629827827215,-0.0047890134155750275,0.004522957373410463,2023-10-21T14:56:39.244153Z,1697900199244
0.002128450432792306,0.0015963378828018904,0.002128450432792306,2023-10-21T14:56:39.258407Z,1697900199258
3.990844707004726E-4,-0.0038578163366764784,0.0029266192577779293,2023-10-21T14:56:39.264474Z,1697900199264
-1.3302815204951912E-4,1.3302815204951912E-4,-0.004522957373410463,2023-10-21T14:56:39.275386Z,1697900199275
0.002128450432792306,9.311970788985491E-4,-0.0018623941577970982,2023-10-21T14:56:39.284634Z,1697900199284
-0.0026605629827827215,0.003059647511690855,-0.0038578163366764784,2023-10-21T14:56:39.295779Z,1697900199295
-0.0019954221788793802,-0.0026605629827827215,-1.3302815204951912E-4,2023-10-21T14:56:39.308293Z,1697900199308
0.0047890134155750275,-0.0025275349617004395,0.0034587320405989885,2023-10-21T14:56:39.315818Z,1697900199315
-0.0034587320405989885,0.0029266192577779293,0.0031926757656037807,2023-10-21T14:56:39.325137Z,1697900199325
-0.0026605629827827215,-5.321126081980765E-4,-0.0035917600616812706,2023-10-21T14:56:39.336030Z,1697900199335
0.003325703786686063,0.0025275349617004395,0.0029266192577779293,2023-10-21T14:56:39.345481Z,1697900199345
-0.001064225216396153,-0.003325703786686063,-0.004256900865584612,2023-10-21T14:56:39.358503Z,1697900199358
0.0022614786867052317,1.3302815204951912E-4,5.321126081980765E-4,2023-10-21T14:56:39.365824Z,1697900199365
-0.0019954221788793802,-0.004522957373410463,-0.0025275349617004395,2023-10-21T14:56:39.376682Z,1697900199376
-0.0039908443577587605,0.001064225216396153,-0.0031926757656037807,2023-10-21T14:56:39.385865Z,1697900199385
9.311970788985491E-4,-0.0031926757656037807,0.0022614786867052317,2023-10-21T14:56:39.397100Z,1697900199397
0.0026605629827827215,0.0019954221788793802,-6.651407456956804E-4,2023-10-21T14:56:39.408226Z,1697900199408
-0.0037247883155941963,0.004256900865584612,0.004655985161662102,2023-10-21T14:56:39.417095Z,1697900199417
-0.0022614786867052317,0.004389929119497538,-0.0029266192577779293,2023-10-21T14:56:39.426494Z,1697900199426
0.0039908443577587605,0.002128450432792306,-0.004256900865584612,2023-10-21T14:56:39.437251Z,1697900199437
-0.004123872611671686,0.0023945067077875137,0.0,2023-10-21T14:56:39.446779Z,1697900199446
0.0011972533538937569,6.651407456956804E-4,-0.0017293660202994943,2023-10-21T14:56:39.458466Z,1697900199458
-3.990844707004726E-4,0.0013302814913913608,0.0014633096288889647,2023-10-21T14:56:39.467063Z,1697900199466
-0.003059647511690855,-0.0017293660202994943,0.001064225216396153,2023-10-21T14:56:39.478130Z,1697900199478
-0.0011972533538937569,0.004922041669487953,0.004522957373410463,2023-10-21T14:56:39.487189Z,1697900199487
0.001064225216396153,0.0038578163366764784,-1.3302815204951912E-4,2023-10-21T14:56:39.498481Z,1697900199498
0.0014633096288889647,-0.0023945067077875137,1.3302815204951912E-4,2023-10-21T14:56:39.508371Z,1697900199508
0.004922041669487953,5.321126081980765E-4,0.0013302814913913608,2023-10-21T14:56:39.518535Z,1697900199518
-0.004123872611671686,0.0034587320405989885,-0.004256900865584612,2023-10-21T14:56:39.527898Z,1697900199527
0.0029266192577779293,3.990844707004726E-4,-0.003325703786686063,2023-10-21T14:56:39.542110Z,1697900199542
0.001064225216396153,-0.0013302814913913608,-2.6605630409903824E-4,2023-10-21T14:56:39.548171Z,1697900199548
-0.004256900865584612,-0.0018623941577970982,0.0039908443577587605,2023-10-21T14:56:39.559147Z,1697900199559
0.002128450432792306,-0.004256900865584612,-0.0023945067077875137,2023-10-21T14:56:39.568276Z,1697900199568
0.0027935912366956472,0.0027935912366956472,-0.0018623941577970982,2023-10-21T14:56:39.579545Z,1697900199579
0.0037247883155941963,-0.0,-3.990844707004726E-4,2023-10-21T14:56:39.591369Z,1697900199591
0.002128450432792306,0.0026605629827827215,-7.981689414009452E-4,2023-10-21T14:56:39.599591Z,1697900199599
-0.004522957373410463,-0.0013302814913913608,-0.0027935912366956472,2023-10-21T14:56:39.608908Z,1697900199608
-0.0035917600616812706,-0.004389929119497538,-0.004256900865584612,2023-10-21T14:56:39.619776Z,1697900199619
-0.004522957373410463,0.004389929119497538,-1.3302815204951912E-4,2023-10-21T14:56:39.629283Z,1697900199629
-0.0019954221788793802,0.003325703786686063,0.004389929119497538,2023-10-21T14:56:39.641823Z,1697900199641
0.0039908443577587605,-0.0026605629827827215,3.990844707004726E-4,2023-10-21T14:56:39.649405Z,1697900199649
0.0023945067077875137,0.004256900865584612,0.0038578163366764784,2023-10-21T14:56:39.660486Z,1697900199660
-0.0017293660202994943,0.0038578163366764784,-9.311970788985491E-4,2023-10-21T14:56:39.669678Z,1697900199669
-0.0037247883155941963,-0.005055069923400879,-0.0018623941577970982,2023-10-21T14:56:39.680849Z,1697900199680
-9.311970788985491E-4,0.004922041669487953,6.651407456956804E-4,2023-10-21T14:56:39.691273Z,1697900199691
0.0026605629827827215,-3.990844707004726E-4,-0.0039908443577587605,2023-10-21T14:56:39.700863Z,1697900199700
0.0029266192577779293,0.0025275349617004395,-0.0037247883155941963,2023-10-21T14:56:39.710200Z,1697900199710
-0.004922041669487953,0.0039908443577587605,0.004522957373410463,2023-10-21T14:56:39.721063Z,1697900199721
-0.004256900865584612,3.990844707004726E-4,0.0017293660202994943,2023-10-21T14:56:39.730587Z,1697900199730
0.0031926757656037807,-0.0015963378828018904,-0.0038578163366764784,2023-10-21T14:56:39.741527Z,1697900199741
-0.0023945067077875137,0.004522957373410463,0.0014633096288889647,2023-10-21T14:56:39.750731Z,1697900199750
-0.0011972533538937569,9.311970788985491E-4,0.0037247883155941963,2023-10-21T14:56:39.761925Z,1697900199761
-0.0039908443577587605,-0.004123872611671686,0.0025275349617004395,2023-10-21T14:56:39.770830Z,1697900199770
2.6605630409903824E-4,-5.321126081980765E-4,0.0026605629827827215,2023-10-21T14:56:39.782194Z,1697900199782
-0.004256900865584612,-0.0034587320405989885,0.0026605629827827215,2023-10-21T14:56:39.791251Z,1697900199791
-0.0013302814913913608,-0.0011972533538937569,0.0022614786867052317,2023-10-21T14:56:39.802187Z,1697900199802
-0.0011972533538937569,-0.0023945067077875137,-0.0025275349617004395,2023-10-21T14:56:39.811766Z,1697900199811
-5.321126081980765E-4,0.0019954221788793802,-0.0031926757656037807,2023-10-21T14:56:39.824835Z,1697900199824
-5.321126081980765E-4,0.0025275349617004395,2.6605630409903824E-4,2023-10-21T14:56:39.831815Z,1697900199831
9.311970788985491E-4,0.004522957373410463,0.0035917600616812706,2023-10-21T14:56:39.842822Z,1697900199842
-0.002128450432792306,0.0014633096288889647,-0.0025275349617004395,2023-10-21T14:56:39.852045Z,1697900199851
-0.0022614786867052317,0.004655985161662102,0.0018623941577970982,2023-10-21T14:56:39.863240Z,1697900199863
-0.004922041669487953,-0.0014633096288889647,-0.004922041669487953,2023-10-21T14:56:39.874557Z,1697900199874
0.0027935912366956472,-0.0025275349617004395,-7.981689414009452E-4,2023-10-21T14:56:39.883213Z,1697900199883
9.311970788985491E-4,0.0023945067077875137,0.0027935912366956472,2023-10-21T14:56:39.892599Z,1697900199892
0.0035917600616812706,-0.004655985161662102,0.004522957373410463,2023-10-21T14:56:39.903472Z,1697900199903
-0.0013302814913913608,-5.321126081980765E-4,0.002128450432792306,2023-10-21T14:56:39.912939Z,1697900199912
9.311970788985491E-4,0.0023945067077875137,0.0027935912366956472,2023-10-21T14:56:39.924752Z,1697900199924
-2.6605630409903824E-4,0.004522957373410463,-0.0019954221788793802,2023-10-21T14:56:39.933109Z,1697900199933
0.0013302814913913608,-0.0018623941577970982,0.004123872611671686,2023-10-21T14:56:39.944229Z,1697900199944
0.004389929119497538,-0.004922041669487953,-9.311970788985491E-4,2023-10-21T14:56:39.953291Z,1697900199953
0.0027935912366956472,-6.651407456956804E-4,-0.0025275349617004395,2023-10-21T14:56:39.964522Z,1697900199964
0.0019954221788793802,0.0011972533538937569,-7.981689414009452E-4,2023-10-21T14:56:39.974485Z,1697900199974
0.0038578163366764784,0.0027935912366956472,0.004655985161662102,2023-10-21T14:56:39.984477Z,1697900199984
0.0047890134155750275,-0.0034587320405989885,-2.6605630409903824E-4,2023-10-21T14:56:39.993979Z,1697900199993
-0.0011972533538937569,0.0025275349617004395,-0.0026605629827827215,2023-10-21T14:56:40.004684Z,1697900200004
-0.0023945067077875137,-0.0038578163366764784,-0.0013302814913913608,2023-10-21T14:56:40.014255Z,1697900200014
-0.0023945067077875137,0.0013302814913913608,-0.0038578163366764784,2023-10-21T14:56:40.025232Z,1697900200025
-0.0017293660202994943,-0.0015963378828018904,-0.0025275349617004395,2023-10-21T14:56:40.034390Z,1697900200034
-0.0022614786867052317,-0.0047890134155750275,0.0039908443577587605,2023-10-21T14:56:40.045555Z,1697900200045
0.003325703786686063,-0.0038578163366764784,0.0015963378828018904,2023-10-21T14:56:40.057727Z,1697900200057
0.004522957373410463,0.0022614786867052317,-0.0026605629827827215,2023-10-21T14:56:40.065572Z,1697900200065
-0.0029266192577779293,-0.0026605629827827215,0.0022614786867052317,2023-10-21T14:56:40.074913Z,1697900200074
7.981689414009452E-4,9.311970788985491E-4,-0.0026605629827827215,2023-10-21T14:56:40.085815Z,1697900200085
6.651407456956804E-4,-0.0026605629827827215,-0.004655985161662102,2023-10-21T14:56:40.095357Z,1697900200095
0.002128450432792306,-0.001064225216396153,-5.321126081980765E-4,2023-10-21T14:56:40.107890Z,1697900200107
0.0014633096288889647,0.0039908443577587605,0.0025275349617004395,2023-10-21T14:56:40.115528Z,1697900200115
-0.0013302814913913608,-0.0017293660202994943,-0.0034587320405989885,2023-10-21T14:56:40.126543Z,1697900200126
0.0047890134155750275,-0.0031926757656037807,-5.321126081980765E-4,2023-10-21T14:56:40.135651Z,1697900200135
-0.0034587320405989885,-0.0014633096288889647,-0.0011972533538937569,2023-10-21T14:56:40.146903Z,1697900200146
5.321126081980765E-4,0.0023945067077875137,-0.0037247883155941963,2023-10-21T14:56:40.157510Z,1697900200157
-0.0031926757656037807,0.0013302814913913608,-0.0025275349617004395,2023-10-21T14:56:40.166877Z,1697900200166
-0.0014633096288889647,0.003325703786686063,-0.004256900865584612,2023-10-21T14:56:40.176355Z,1697900200176
0.004522957373410463,-0.0022614786867052317,-0.001064225216396153,2023-10-21T14:56:40.187045Z,1697900200186
-9.311970788985491E-4,-0.0018623941577970982,0.002128450432792306,2023-10-21T14:56:40.196635Z,1697900200196
0.0025275349617004395,-0.0034587320405989885,-0.0026605629827827215,2023-10-21T14:56:40.207730Z,1697900200207
0.0038578163366764784,0.003325703786686063,0.0026605629827827215,2023-10-21T14:56:40.216713Z,1697900200216
0.004655985161662102,-0.0023945067077875137,0.0011972533538937569,2023-10-21T14:56:40.227954Z,1697900200227
-0.001064225216396153,0.0026605629827827215,5.321126081980765E-4,2023-10-21T14:56:40.236987Z,1697900200236
-0.0026605629827827215,0.004123872611671686,7.981689414009452E-4,2023-10-21T14:56:40.248218Z,1697900200248
0.004256900865584612,0.0015963378828018904,0.004389929119497538,2023-10-21T14:56:40.257542Z,1697900200257
5.321126081980765E-4,-0.0038578163366764784,-0.003325703786686063,2023-10-21T14:56:40.268191Z,1697900200268
0.09192245453596115,-0.24064792692661285,0.17958800494670868,2023-10-21T14:56:40.277631Z,1697900200277
0.10628949105739594,-0.2825517952442169,0.20725786685943604,2023-10-21T14:56:40.291913Z,1697900200291
0.11906019598245621,-0.32033178210258484,0.23399652540683746,2023-10-21T14:56:40.297832Z,1697900200297
0.12970244884490967,-0.3495979905128479,0.2584736943244934,2023-10-21T14:56:40.309601Z,1697900200309
0.13768413662910461,-0.36689165234565735,0.2788270115852356,2023-10-21T14:56:40.318077Z,1697900200318
0.14287222921848297,-0.36862102150917053,0.29346010088920593,2023-10-21T14:56:40.329227Z,1697900200329
0.14553280174732208,-0.3545200228691101,0.3018408715724945,2023-10-21T14:56:40.341324Z,1697900200341
0.1460649073123932,-0.3283134698867798,0.30543264746665955,2023-10-21T14:56:40.349232Z,1697900200349
0.14513371884822845,-0.29651975631713867,0.30716201663017273,2023-10-21T14:56:40.358621Z,1697900200358
0.14353737235069275,-0.26432693004608154,0.3095565140247345,2023-10-21T14:56:40.369631Z,1697900200369
0.14247314631938934,-0.23426257073879242,0.3138134181499481,2023-10-21T14:56:40.378944Z,1697900200378
0.14313828945159912,-0.2080560326576233,0.31966665387153625,2023-10-21T14:56:40.392224Z,1697900200392
0.1460649073123932,-0.18743667006492615,0.3249877691268921,2023-10-21T14:56:40.399236Z,1697900200399
0.15125301480293274,-0.17147329449653625,0.32698318362236023,2023-10-21T14:56:40.410229Z,1697900200410
0.15936772525310516,-0.15630808472633362,0.32352447509765625,2023-10-21T14:56:40.419411Z,1697900200419
0.16987694799900055,-0.13848230242729187,0.31421250104904175,2023-10-21T14:56:40.430440Z,1697900200430
0.162959486246109,-0.11932624876499176,0.28561145067214966,2023-10-21T14:56:40.441162Z,1697900200441
0.1767944097518921,-0.09418392926454544,0.26765263080596924,2023-10-21T14:56:40.450527Z,1697900200450
0.18863391876220703,-0.07289943099021912,0.2523544132709503,2023-10-21T14:56:40.459964Z,1697900200459
0.198078915476799,-0.0389772467315197,0.2326662391424179,2023-10-21T14:56:40.470701Z,1697900200470
0.20606060326099396,-0.010110139846801758,0.21590469777584076,2023-10-21T14:56:40.480307Z,1697900200480
0.21204687654972076,0.030995558947324753,0.20286792516708374,2023-10-21T14:56:40.491603Z,1697900200491
0.21710194647312164,0.06598196178674698,0.19169357419013977,2023-10-21T14:56:40.500449Z,1697900200500
0.22095976769924164,0.1081518903374672,0.18451005220413208,2023-10-21T14:56:40.511528Z,1697900200511
0.24224425852298737,0.1761292666196823,0.1887669414281845,2023-10-21T14:56:40.520569Z,1697900200520
0.24251031875610352,0.21869827806949615,0.18091829121112823,2023-10-21T14:56:40.531882Z,1697900200531
0.2414460927248001,0.2639278471469879,0.17147329449653625,2023-10-21T14:56:40.541195Z,1697900200541
0.23865249752998352,0.3116849660873413,0.16056497395038605,2023-10-21T14:56:40.551871Z,1697900200551
0.23399652540683746,0.3599741756916046,0.14912456274032593,2023-10-21T14:56:40.561312Z,1697900200561
0.2277441918849945,0.4061349630355835,0.13821625709533691,2023-10-21T14:56:40.574808Z,1697900200574
0.22082673013210297,0.4493691027164459,0.1283721625804901,2023-10-21T14:56:40.581492Z,1697900200581
0.21444137394428253,0.4895435869693756,0.12078956514596939,2023-10-21T14:56:40.592567Z,1697900200592
0.20951934158802032,0.5251951217651367,0.11626660823822021,2023-10-21T14:56:40.601681Z,1697900200601
0.20619364082813263,0.5535301566123962,0.11480329185724258,2023-10-21T14:56:40.612948Z,1697900200612
0.20486335456371307,0.5725531578063965,0.11573449522256851,2023-10-21T14:56:40.624494Z,1697900200624
0.20539546012878418,0.5821312069892883,0.11906019598245621,2023-10-21T14:56:40.632969Z,1697900200632
0.20818905532360077,0.5834614634513855,0.12451434880495071,2023-10-21T14:56:40.642319Z,1697900200642
0.2135101854801178,0.5790715217590332,0.13196392357349396,2023-10-21T14:56:40.653104Z,1697900200653
0.22189095616340637,0.5706907510757446,0.14061075448989868,2023-10-21T14:56:40.662644Z,1697900200662
0.2326662391424179,0.559117317199707,0.1504548341035843,2023-10-21T14:56:40.674795Z,1697900200674
0.24463877081871033,0.5438190698623657,0.1624273806810379,2023-10-21T14:56:40.682814Z,1697900200682
0.23226715624332428,0.49592894315719604,0.15670716762542725,2023-10-21T14:56:40.693938Z,1697900200693
0.24543693661689758,0.4710526764392853,0.1799870878458023,2023-10-21T14:56:40.702960Z,1697900200702
0.2567443251609802,0.4499012231826782,0.1998082846403122,2023-10-21T14:56:40.714202Z,1697900200714
0.26751962304115295,0.4029422700405121,0.23639102280139923,2023-10-21T14:56:40.724156Z,1697900200724
0.3029051125049591,0.3629007935523987,0.3084922730922699,2023-10-21T14:56:40.734170Z,1697900200734
0.31301525235176086,0.3058317303657532,0.3480016589164734,2023-10-21T14:56:40.743664Z,1697900200743
0.32525384426116943,0.2496938407421112,0.38618072867393494,2023-10-21T14:56:40.758473Z,1697900200758
0.33842360973358154,0.19688166677951813,0.4191717207431793,2023-10-21T14:56:40.763907Z,1697900200763
0.3511943221092224,0.1503218114376068,0.44524523615837097,2023-10-21T14:56:40.774863Z,1697900200774
0.36250171065330505,0.11373907327651978,0.4637361466884613,2023-10-21T14:56:40.784154Z,1697900200784
0.3727448880672455,0.08926188945770264,0.4747774600982666,2023-10-21T14:56:40.795268Z,1697900200795
0.38232290744781494,0.07768844068050385,0.4795664846897125,2023-10-21T14:56:40.807623Z,1697900200807
0.39203396439552307,0.07715632766485214,0.4791674017906189,2023-10-21T14:56:40.815338Z,1697900200815
0.4017450213432312,0.08487196266651154,0.47384628653526306,2023-10-21T14:56:40.824676Z,1697900200824
0.3770017921924591,0.08367470651865005,0.4358002245426178,2023-10-21T14:56:40.835577Z,1697900200835
0.3941624164581299,0.10296379029750824,0.4232955873012543,2023-10-21T14:56:40.845010Z,1697900200844
0.44644248485565186,0.1388813853263855,0.4342038929462433,2023-10-21T14:56:40.858048Z,1697900200858
0.4570847451686859,0.15883561968803406,0.4117221236228943,2023-10-21T14:56:40.865159Z,1697900200865
0.46679577231407166,0.17772561311721802,0.3892403841018677,2023-10-21T14:56:40.876266Z,1697900200876
0.474378377199173,0.19475321471691132,0.3687540292739868,2023-10-21T14:56:40.885415Z,1697900200885
0.4795664846897125,0.2101844847202301,0.35212552547454834,2023-10-21T14:56:40.896566Z,1697900200896
0.48315826058387756,0.22628088295459747,0.33895573019981384,2023-10-21T14:56:40.907537Z,1697900200907
0.48595184087753296,0.24543693661689758,0.32791438698768616,2023-10-21T14:56:40.916791Z,1697900200916
0.48821333050727844,0.2695150375366211,0.3171391189098358,2023-10-21T14:56:40.926055Z,1697900200926
0.4906078279018402,0.29931333661079407,0.3052996098995209,2023-10-21T14:56:40.936835Z,1697900200936
0.49419957399368286,0.333634614944458,0.2923958897590637,2023-10-21T14:56:40.946332Z,1697900200946
0.49872255325317383,0.36915311217308044,0.27909305691719055,2023-10-21T14:56:40.958057Z,1697900200958
0.5028464198112488,0.4018780589103699,0.2661893367767334,2023-10-21T14:56:40.966513Z,1697900200966
0.5044427514076233,0.4314102828502655,0.25434982776641846,2023-10-21T14:56:40.977631Z,1697900200977
0.5020482540130615,0.46134161949157715,0.24290940165519714,2023-10-21T14:56:40.986669Z,1697900200986
0.4967271089553833,0.4956628978252411,0.23067080974578857,2023-10-21T14:56:40.997910Z,1697900200997
0.49034178256988525,0.5370346307754517,0.21590469777584076,2023-10-21T14:56:41.007404Z,1697900201007
0.4851536750793457,0.5859889984130859,0.198078915476799,2023-10-21T14:56:41.018539Z,1697900201018
0.4823600649833679,0.6389341950416565,0.17745955288410187,2023-10-21T14:56:41.027412Z,1697900201027
0.48209401965141296,0.6902830600738525,0.15484477579593658,2023-10-21T14:56:41.042340Z,1697900201042
0.4836903512477875,0.7340493202209473,0.13129878044128418,2023-10-21T14:56:41.047573Z,1697900201047
0.4868830442428589,0.7670403122901917,0.1081518903374672,2023-10-21T14:56:41.059591Z,1697900201059
0.4922041594982147,0.7893890738487244,0.0862022414803505,2023-10-21T14:56:41.067850Z,1697900201067
0.4995207190513611,0.8010955452919006,0.0663810446858406,2023-10-21T14:56:41.078920Z,1697900201078
0.5073693990707397,0.8034900426864624,0.04961949959397316,2023-10-21T14:56:41.090766Z,1697900201090
0.5144198536872864,0.7987010478973389,0.03698182478547096,2023-10-21T14:56:41.099037Z,1697900201099
0.5201400518417358,0.7893890738487244,0.029931334778666496,2023-10-21T14:56:41.108409Z,1697900201108
0.5243969559669495,0.7766183614730835,0.02979830652475357,2023-10-21T14:56:41.119136Z,1697900201119
0.5266584753990173,0.7589256167411804,0.037513937801122665,2023-10-21T14:56:41.128707Z,1697900201128
0.5261263251304626,0.7344484329223633,0.05307823419570923,2023-10-21T14:56:41.141119Z,1697900201141
0.5213373303413391,0.7038519382476807,0.07449576258659363,2023-10-21T14:56:41.148916Z,1697900201148
0.5120253562927246,0.6719251871109009,0.09844083338975906,2023-10-21T14:56:41.159998Z,1697900201159
0.4993876814842224,0.644122302532196,0.12065653502941132,2023-10-21T14:56:41.169027Z,1697900201169
0.4852867126464844,0.6237689852714539,0.13848230242729187,2023-10-21T14:56:41.180316Z,1697900201180
0.4714517593383789,0.6116634607315063,0.15005575120449066,2023-10-21T14:56:41.190814Z,1697900201190
0.46001136302948,0.60820472240448,0.15431265532970428,2023-10-21T14:56:41.200395Z,1697900201200
0.451630562543869,0.6124616265296936,0.1503218114376068,2023-10-21T14:56:41.209712Z,1697900201209
0.4460434019565582,0.6207093596458435,0.13848230242729187,2023-10-21T14:56:41.220487Z,1697900201220
0.44218558073043823,0.6278928518295288,0.12012442201375961,2023-10-21T14:56:41.230037Z,1697900201229
0.43872684240341187,0.6302874088287354,0.09697752445936203,2023-10-21T14:56:41.240764Z,1697900201240
0.4356671869754791,0.6278928518295288,0.07090400159358978,2023-10-21T14:56:41.250233Z,1697900201250
0.43380481004714966,0.6229708194732666,0.04416534677147865,2023-10-21T14:56:41.261296Z,1697900201261
0.4331396520137787,0.6172506213188171,0.018756968900561333,2023-10-21T14:56:41.274430Z,1697900201274
0.4326075613498688,0.6098010540008545,-0.0027935912366956472,2023-10-21T14:56:41.281346Z,1697900201281
0.4302130341529846,0.5979615449905396,-0.01888999715447426,2023-10-21T14:56:41.290793Z,1697900201290
0.42515796422958374,0.5794706344604492,-0.028734080493450165,2023-10-21T14:56:41.301666Z,1697900201301
0.41677719354629517,0.5532640814781189,-0.03272492438554764,2023-10-21T14:56:41.311110Z,1697900201311
0.4056028425693512,0.5201400518417358,-0.031527671962976456,2023-10-21T14:56:41.324793Z,1697900201324
0.39269909262657166,0.48222705721855164,-0.026472602039575577,2023-10-21T14:56:41.331311Z,1697900201331
0.3578457236289978,0.42848366498947144,-0.021550560370087624,2023-10-21T14:56:41.342344Z,1697900201342
0.34653833508491516,0.3879100978374481,-0.012504646554589272,2023-10-21T14:56:41.351536Z,1697900201351
0.33682727813720703,0.3533227741718292,-0.004922041669487953,2023-10-21T14:56:41.362627Z,1697900201362
0.28773990273475647,0.30170783400535583,-0.004123872611671686,2023-10-21T14:56:41.373778Z,1697900201373
0.28773990273475647,0.2672535479068756,0.018357884138822556,2023-10-21T14:56:41.382700Z,1697900201382
0.28787291049957275,0.2377213090658188,0.03764696791768074,2023-10-21T14:56:41.392080Z,1697900201392
0.2458360195159912,0.2030009627342224,0.03205978497862816,2023-10-21T14:56:41.402844Z,1697900201402
0.2282763123512268,0.18012011051177979,0.06252323091030121,2023-10-21T14:56:41.412401Z,1697900201412
0.21324412524700165,0.16069801151752472,0.08859674632549286,2023-10-21T14:56:41.424148Z,1697900201424
0.18211553990840912,0.1371520310640335,0.07569301873445511,2023-10-21T14:56:41.432563Z,1697900201432
0.16229434311389923,0.1273079365491867,0.10801886022090912,2023-10-21T14:56:41.443652Z,1697900201443
0.14526674151420593,0.11892716586589813,0.1355556845664978,2023-10-21T14:56:41.452728Z,1697900201452
0.12478040903806686,0.09564723819494247,0.14912456274032593,2023-10-21T14:56:41.464Z,1697900201463
0.10682160407304764,0.06624802201986313,0.17812469601631165,2023-10-21T14:56:41.473480Z,1697900201473
0.0905921682715416,0.03365612402558327,0.18717060983181,2023-10-21T14:56:41.484077Z,1697900201484
0.07755541056394577,0.0,0.1938220113515854,2023-10-21T14:56:41.493472Z,1697900201493
0.06757830083370209,-0.03285795450210571,0.19834497570991516,2023-10-21T14:56:41.507644Z,1697900201507
0.06066083908081055,-0.06318837404251099,0.20073948800563812,2023-10-21T14:56:41.513708Z,1697900201513
0.056669991463422775,-0.08793161064386368,0.2003403902053833,2023-10-21T14:56:41.524676Z,1697900201524
0.055339712649583817,-0.10562435537576675,0.19741377234458923,2023-10-21T14:56:41.533869Z,1697900201533
0.05454154312610626,-0.11759688705205917,0.1931568831205368,2023-10-21T14:56:41.545036Z,1697900201545
0.05281217768788338,-0.12584462761878967,0.18889997899532318,2023-10-21T14:56:41.557031Z,1697900201556
0.04762407764792442,-0.11999139189720154,0.17333568632602692,2023-10-21T14:56:41.565078Z,1697900201565
0.047224994748830795,-0.11999139189720154,0.17000998556613922,2023-10-21T14:56:41.574442Z,1697900201574
0.04682590812444687,-0.12012442201375961,0.16721639037132263,2023-10-21T14:56:41.585280Z,1697900201585
0.04868830367922783,-0.10722068697214127,0.16375765204429626,2023-10-21T14:56:41.594765Z,1697900201594
0.05015161260962486,-0.09617935121059418,0.16096405684947968,2023-10-21T14:56:41.607493Z,1697900201607
0.042835064232349396,-0.08207836747169495,0.13741807639598846,2023-10-21T14:56:41.614958Z,1697900201614
0.045362599194049835,-0.06678013503551483,0.14566582441329956,2023-10-21T14:56:41.626021Z,1697900201625
0.04762407764792442,-0.05374337360262871,0.15271632373332977,2023-10-21T14:56:41.635150Z,1697900201635
0.04070661589503288,-0.04589471220970154,0.13036759197711945,2023-10-21T14:56:41.646378Z,1697900201646
0.034720346331596375,-0.03924330323934555,0.11134456098079681,2023-10-21T14:56:41.656982Z,1697900201656
0.029665278270840645,-0.03352309390902519,0.09511512517929077,2023-10-21T14:56:41.666336Z,1697900201666
0.025275349617004395,-0.02860105223953724,0.08128020167350769,2023-10-21T14:56:41.675780Z,1697900201675
0.04070661589503288,0.014234011992812157,0.0790187194943428,2023-10-21T14:56:41.690226Z,1697900201690
0.053876399993896484,0.05081675574183464,0.07702329754829407,2023-10-21T14:56:41.696131Z,1697900201696
0.04602774232625961,0.0433671772480011,0.0658489316701889,2023-10-21T14:56:41.707264Z,1697900201707
0.03924330323934555,0.03711485490202904,0.05627090856432915,2023-10-21T14:56:41.716238Z,1697900201716
0.03392218053340912,0.05281217768788338,0.04203689470887184,2023-10-21T14:56:41.727364Z,1697900201727
0.02953225001692772,0.06624802201986313,0.02979830652475357,2023-10-21T14:56:41.736356Z,1697900201736
0.02514232136309147,0.056536965072155,0.02540837787091732,2023-10-21T14:56:41.747701Z,1697900201747
0.021550560370087624,0.0482892207801342,0.021816616877913475,2023-10-21T14:56:41.756806Z,1697900201756
0.018357884138822556,0.041238728910684586,0.018623940646648407,2023-10-21T14:56:41.767651Z,1697900201767
0.01569732278585434,0.03525245934724808,0.015830349177122116,2023-10-21T14:56:41.777135Z,1697900201777
-0.008513801731169224,0.03631668537855148,0.014500068500638008,2023-10-21T14:56:41.790063Z,1697900201790
-0.029266193509101868,0.03711485490202904,0.013435843400657177,2023-10-21T14:56:41.797338Z,1697900201797
-0.025009293109178543,0.03179372847080231,0.01144042145460844,2023-10-21T14:56:41.808419Z,1697900201808
-0.03671576827764511,0.00572021072730422,0.013701899908483028,2023-10-21T14:56:41.817511Z,1697900201817
-0.04669288173317909,-0.016495490446686745,0.01569732278585434,2023-10-21T14:56:41.828749Z,1697900201828
-0.0477571077644825,-0.03205978497862816,0.02075239084661007,2023-10-21T14:56:41.839806Z,1697900201839
-0.04868830367922783,-0.045362599194049835,0.025009293109178543,2023-10-21T14:56:41.848761Z,1697900201848
-0.05015161260962486,-0.06451865285634995,0.03644971549510956,2023-10-21T14:56:41.858113Z,1697900201858
-0.05547273904085159,-0.09591329842805862,0.05733513459563255,2023-10-21T14:56:41.869049Z,1697900201869
-0.055073656141757965,-0.11320696026086807,0.07316548377275467,2023-10-21T14:56:41.878446Z,1697900201878
-0.053876399993896484,-0.12996850907802582,0.08992703258991241,2023-10-21T14:56:41.890842Z,1697900201890
-0.052280064672231674,-0.14619794487953186,0.10589040815830231,2023-10-21T14:56:41.898623Z,1697900201898
-0.049752529710531235,-0.16016589105129242,0.11892716586589813,2023-10-21T14:56:41.909886Z,1697900201909
-0.04589471220970154,-0.17000998556613922,0.12704189121723175,2023-10-21T14:56:41.918806Z,1697900201918
-0.04044055938720703,-0.16109709441661835,0.12012442201375961,2023-10-21T14:56:41.930038Z,1697900201930
-0.03352309390902519,-0.16375765204429626,0.11573449522256851,2023-10-21T14:56:41.939954Z,1697900201939
-0.027802884578704834,-0.16588610410690308,0.11200970411300659,2023-10-21T14:56:41.950138Z,1697900201950
-0.023679010570049286,-0.1416749805212021,0.09564723819494247,2023-10-21T14:56:41.959674Z,1697900201959
-0.020220279693603516,-0.12105561792850494,0.08167928457260132,2023-10-21T14:56:41.970307Z,1697900201970
-0.0172936599701643,-0.10336287319660187,0.0697067528963089,2023-10-21T14:56:41.979785Z,1697900201979
-0.01476612500846386,-0.0883306935429573,0.05959661304950714,2023-10-21T14:56:41.990643Z,1697900201990
-0.012637674808502197,-0.07542695850133896,0.05094978213310242,2023-10-21T14:56:41.999990Z,1697900201999
-0.010775280185043812,-0.06438562273979187,0.043500207364559174,2023-10-21T14:56:42.011059Z,1697900202011
-0.009178942069411278,-0.05494062602519989,0.03711485490202904,2023-10-21T14:56:42.023138Z,1697900202023
-0.00784866139292717,-0.046958938241004944,0.03166069835424423,2023-10-21T14:56:42.031096Z,1697900202031
-0.006651407573372126,-0.04017450287938118,0.027137743309140205,2023-10-21T14:56:42.040491Z,1697900202040
-0.00572021072730422,-0.03432126343250275,0.023146897554397583,2023-10-21T14:56:42.051369Z,1697900202051
-0.004922041669487953,-0.029266193509101868,0.019688166677951813,2023-10-21T14:56:42.060809Z,1697900202060
0.032458867877721786,0.016761546954512596,0.03738091140985489,2023-10-21T14:56:42.073615Z,1697900202073
0.06425260007381439,0.056004852056503296,0.052280064672231674,2023-10-21T14:56:42.081039Z,1697900202081
0.06811041384935379,0.07835358381271362,0.034055206924676895,2023-10-21T14:56:42.092120Z,1697900202092
0.07835358381271362,0.11679871380329132,0.013302815146744251,2023-10-21T14:56:42.101192Z,1697900202101
0.08128020167350769,0.14061075448989868,0.0019954221788793802,2023-10-21T14:56:42.112457Z,1697900202112
0.07689027488231659,0.1415419578552246,-0.0025275349617004395,2023-10-21T14:56:42.122902Z,1697900202122
0.07875266671180725,0.15936772525310516,-0.005986266769468784,2023-10-21T14:56:42.132422Z,1697900202132
0.08034900575876236,0.1745329350233078,-0.008912886492908001,2023-10-21T14:56:42.141877Z,1697900202141
0.0686425268650055,0.14899152517318726,-0.007582604885101318,2023-10-21T14:56:42.152584Z,1697900202152
0.07476182281970978,0.16149617731571198,0.0029266192577779293,2023-10-21T14:56:42.162147Z,1697900202162
0.07994992285966873,0.1722714602947235,0.012105561792850494,2023-10-21T14:56:42.173547Z,1697900202173
0.06824344396591187,0.1471291333436966,0.010243168100714684,2023-10-21T14:56:42.182377Z,1697900202182
0.058266330510377884,0.12557858228683472,0.008779858238995075,2023-10-21T14:56:42.193376Z,1697900202193
0.049752529710531235,0.10735371708869934,0.007449576631188393,2023-10-21T14:56:42.202431Z,1697900202202
0.042569007724523544,0.091656394302845,0.0063853515312075615,2023-10-21T14:56:42.213708Z,1697900202213
0.08979400247335434,0.10216562449932098,0.051348865032196045,2023-10-21T14:56:42.223066Z,1697900202223
0.1301015317440033,0.11107850819826126,0.08979400247335434,2023-10-21T14:56:42.233754Z,1697900202233
0.11107850819826126,0.09484907239675522,0.07662421464920044,2023-10-21T14:56:42.243235Z,1697900202243
0.12983547151088715,0.09671146422624588,0.0751609057188034,2023-10-21T14:56:42.256430Z,1697900202256
0.1459318846464157,0.09830780327320099,0.07383062690496445,2023-10-21T14:56:42.263495Z,1697900202263
0.15511082112789154,0.10083533823490143,0.06066083908081055,2023-10-21T14:56:42.274417Z,1697900202274
0.1630925089120865,0.10296379029750824,0.04948647320270538,2023-10-21T14:56:42.283604Z,1697900202283
0.1706751137971878,0.10322984308004379,0.03738091140985489,2023-10-21T14:56:42.294779Z,1697900202294
0.17706046998500824,0.10362893342971802,0.02700471505522728,2023-10-21T14:56:42.306405Z,1697900202306
0.18145039677619934,0.10575737804174423,0.016495490446686745,2023-10-21T14:56:42.314803Z,1697900202314
0.18517518043518066,0.10761977732181549,0.007582604885101318,2023-10-21T14:56:42.324218Z,1697900202324
0.18464307487010956,0.11985836178064346,-0.004256900865584612,2023-10-21T14:56:42.334987Z,1697900202334
0.19555138051509857,0.15125301480293274,-0.021816616877913475,2023-10-21T14:56:42.344541Z,1697900202344
0.1892990618944168,0.17719349265098572,-0.034986402839422226,2023-10-21T14:56:42.356970Z,1697900202356
0.18304674327373505,0.211381733417511,-0.04895436018705368,2023-10-21T14:56:42.364736Z,1697900202364
0.17586322128772736,0.25155624747276306,-0.06212414801120758,2023-10-21T14:56:42.375827Z,1697900202375
0.16695033013820648,0.2923958897590637,-0.0730324536561966,2023-10-21T14:56:42.384880Z,1697900202384
0.15577596426010132,0.3277813792228699,-0.07994992285966873,2023-10-21T14:56:42.396125Z,1697900202396
0.14287222921848297,0.35372185707092285,-0.08221139758825302,2023-10-21T14:56:42.406385Z,1697900202406
0.12930336594581604,0.36915311217308044,-0.08061505854129791,2023-10-21T14:56:42.416089Z,1697900202416
0.11679871380329132,0.3748733401298523,-0.07742238789796829,2023-10-21T14:56:42.425523Z,1697900202425
0.10708766430616379,0.3716806471347809,-0.0746287927031517,2023-10-21T14:56:42.440002Z,1697900202439
0.10070230811834335,0.36077234148979187,-0.07396364957094193,2023-10-21T14:56:42.445838Z,1697900202445
0.09125731140375137,0.3276483416557312,-0.0686425268650055,2023-10-21T14:56:42.456762Z,1697900202456
0.09192245453596115,0.3068959414958954,-0.07343153655529022,2023-10-21T14:56:42.466017Z,1697900202465
0.09258759021759033,0.2892031967639923,-0.07755541056394577,2023-10-21T14:56:42.477132Z,1697900202477
0.09671146422624588,0.2608681917190552,-0.08367470651865005,2023-10-21T14:56:42.489637Z,1697900202489
0.10030322521924973,0.23679010570049286,-0.08886280655860901,2023-10-21T14:56:42.497174Z,1697900202497
0.10775279998779297,0.20765694975852966,-0.09338576346635818,2023-10-21T14:56:42.506601Z,1697900202506
0.1141381561756134,0.1827806830406189,-0.09737660735845566,2023-10-21T14:56:42.517429Z,1697900202517
0.12464737892150879,0.1602989286184311,-0.09963808953762054,2023-10-21T14:56:42.526925Z,1697900202526
0.13356027007102966,0.14114287495613098,-0.10163351148366928,2023-10-21T14:56:42.540192Z,1697900202540
0.14340434968471527,0.1295694261789322,-0.1037619560956955,2023-10-21T14:56:42.547099Z,1697900202547
0.15191814303398132,0.11959230899810791,-0.10549132525920868,2023-10-21T14:56:42.558099Z,1697900202558
0.15444567799568176,0.11373907327651978,-0.10389498621225357,2023-10-21T14:56:42.567365Z,1697900202567
0.15670716762542725,0.1086840033531189,-0.10256470739841461,2023-10-21T14:56:42.578484Z,1697900202578
0.13382631540298462,0.09285365045070648,-0.08766555041074753,2023-10-21T14:56:42.589707Z,1697900202589
0.11427118629217148,0.07928477972745895,-0.07489485293626785,2023-10-21T14:56:42.598539Z,1697900202598
0.12172076106071472,0.08886280655860901,-0.061059921979904175,2023-10-21T14:56:42.607894Z,1697900202607
0.12797307968139648,0.0971105545759201,-0.04935344308614731,2023-10-21T14:56:42.618759Z,1697900202618
0.10934913903474808,0.08300956338644028,-0.042169924825429916,2023-10-21T14:56:42.628267Z,1697900202628
0.09338576346635818,0.07090400159358978,-0.035917602479457855,2023-10-21T14:56:42.640115Z,1697900202640
0.07968386262655258,0.06052780896425247,-0.0307295024394989,2023-10-21T14:56:42.648444Z,1697900202648
0.06811041384935379,0.05174795165657997,-0.026206545531749725,2023-10-21T14:56:42.659517Z,1697900202659
0.07715632766485214,0.0971105545759201,-0.0017293660202994943,2023-10-21T14:56:42.668596Z,1697900202668
0.08487196266651154,0.13595476746559143,0.01915605366230011,2023-10-21T14:56:42.679859Z,1697900202679
0.08354167640209198,0.14074379205703735,0.008380773477256298,2023-10-21T14:56:42.689471Z,1697900202689
0.08247745782136917,0.14500068128108978,-7.981689414009452E-4,2023-10-21T14:56:42.699904Z,1697900202699
0.07037189602851868,0.12384921312332153,-6.651407456956804E-4,2023-10-21T14:56:42.709309Z,1697900202709
0.060128726065158844,0.10575737804174423,-5.321126081980765E-4,2023-10-21T14:56:42.723336Z,1697900202723
0.051348865032196045,0.09032611548900604,-5.321126081980765E-4,2023-10-21T14:56:42.729493Z,1697900202729
0.0438992902636528,0.07715632766485214,-3.990844707004726E-4,2023-10-21T14:56:42.740526Z,1697900202740
0.06026175245642662,0.06558287888765335,0.019954223185777664,2023-10-21T14:56:42.749653Z,1697900202749
0.07422970980405807,0.055738795548677444,0.037247881293296814,2023-10-21T14:56:42.760836Z,1697900202760
0.06345442682504654,0.04749105125665665,0.03179372847080231,2023-10-21T14:56:42.772821Z,1697900202772
0.054142456501722336,0.04057358577847481,0.027137743309140205,2023-10-21T14:56:42.780929Z,1697900202780
0.04895436018705368,0.06239020451903343,0.025009293109178543,2023-10-21T14:56:42.790247Z,1697900202790
0.04735802114009857,0.10362893342971802,0.014500068500638008,2023-10-21T14:56:42.801042Z,1697900202801
0.04762407764792442,0.137285053730011,-0.006917464081197977,2023-10-21T14:56:42.810581Z,1697900202810
0.050018586218357086,0.16987694799900055,-0.027536828070878983,2023-10-21T14:56:42.823038Z,1697900202822
0.053477317094802856,0.19568441808223724,-0.04456442967057228,2023-10-21T14:56:42.830789Z,1697900202830
0.057867247611284256,0.21111567318439484,-0.056403934955596924,2023-10-21T14:56:42.841800Z,1697900202841
0.05587182566523552,0.20020736753940582,-0.056536965072155,2023-10-21T14:56:42.850967Z,1697900202850
0.0653168261051178,0.1975468099117279,-0.06066083908081055,2023-10-21T14:56:42.862160Z,1697900202862
0.07343153655529022,0.19515229761600494,-0.06411956995725632,2023-10-21T14:56:42.872770Z,1697900202872
0.0839407667517662,0.17932194471359253,-0.061725061386823654,2023-10-21T14:56:42.882156Z,1697900202882
0.09285365045070648,0.16562004387378693,-0.05959661304950714,2023-10-21T14:56:42.891594Z,1697900202891
0.09977111220359802,0.14646399021148682,-0.05627090856432915,2023-10-21T14:56:42.902347Z,1697900202902
0.10549132525920868,0.1301015317440033,-0.053477317094802856,2023-10-21T14:56:42.911904Z,1697900202911
0.09019308537244797,0.11107850819826126,-0.04562865570187569,2023-10-21T14:56:42.922872Z,1697900202922
0.10176653414964676,0.10562435537576675,-0.044697459787130356,2023-10-21T14:56:42.932044Z,1697900202932
0.11161062121391296,0.10083533823490143,-0.0438992902636528,2023-10-21T14:56:42.943250Z,1697900202943
0.09538118541240692,0.0862022414803505,-0.037513937801122665,2023-10-21T14:56:42.952296Z,1697900202952
0.08141323179006577,0.0735645666718483,-0.031926754862070084,2023-10-21T14:56:42.963489Z,1697900202963
0.06957372277975082,0.06278929114341736,-0.02727077156305313,2023-10-21T14:56:42.972688Z,1697900202972
0.05933055654168129,0.05361034348607063,-0.02327992580831051,2023-10-21T14:56:42.983467Z,1697900202983
0.050683725625276566,0.04589471220970154,-0.019954223185777664,2023-10-21T14:56:42.992983Z,1697900202992
0.0433671772480011,0.039110276848077774,-0.017027603462338448,2023-10-21T14:56:43.006556Z,1697900203006
0.03698182478547096,0.033390067517757416,-0.014500068500638008,2023-10-21T14:56:43.013232Z,1697900203013
0.03166069835424423,0.02860105223953724,-0.012371618300676346,2023-10-21T14:56:43.024189Z,1697900203024
0.02700471505522728,0.024344151839613914,-0.010642251931130886,2023-10-21T14:56:43.033323Z,1697900203033
0.023013871163129807,0.020885419100522995,-0.009045914746820927,2023-10-21T14:56:43.044576Z,1697900203044
0.019688166677951813,0.017825772985816002,-0.007715632673352957,2023-10-21T14:56:43.055957Z,1697900203055
0.016761546954512596,0.015165209770202637,-0.006651407573372126,2023-10-21T14:56:43.064608Z,1697900203064
0.014367040246725082,0.0130367586389184,-0.0055871824733912945,2023-10-21T14:56:43.073960Z,1697900203073
0.01223859004676342,0.011041336692869663,-0.0047890134155750275,2023-10-21T14:56:43.084790Z,1697900203084
0.01050922367721796,0.00944499857723713,-0.004123872611671686,2023-10-21T14:56:43.094270Z,1697900203094
0.06358745694160461,0.09790872037410736,0.06159203499555588,2023-10-21T14:56:43.105994Z,1697900203105
0.10881702601909637,0.1734687089920044,0.11772991716861725,2023-10-21T14:56:43.114442Z,1697900203114
0.1081518903374672,0.16947786509990692,0.09072519838809967,2023-10-21T14:56:43.125558Z,1697900203125
0.10761977732181549,0.16588610410690308,0.06757830083370209,2023-10-21T14:56:43.134653Z,1697900203134
0.10602343827486038,0.15550990402698517,0.04616076871752739,2023-10-21T14:56:43.145876Z,1697900203145
0.10469315201044083,0.14646399021148682,0.027802884578704834,2023-10-21T14:56:43.156366Z,1697900203156
0.08952794969081879,0.1251794844865799,0.02381203882396221,2023-10-21T14:56:43.165813Z,1697900203165
0.09272062033414841,0.11613357812166214,0.004922041669487953,2023-10-21T14:56:43.175306Z,1697900203175
0.09564723819494247,0.10841794312000275,-0.011307393200695515,2023-10-21T14:56:43.189896Z,1697900203189
0.08167928457260132,0.09258759021759033,-0.009578026831150055,2023-10-21T14:56:43.195627Z,1697900203195
0.0697067528963089,0.07915174961090088,-0.008247745223343372,2023-10-21T14:56:43.206528Z,1697900203206
0.05959661304950714,0.06757830083370209,-0.0070504918694496155,2023-10-21T14:56:43.215694Z,1697900203215
0.05081675574183464,0.05773421749472618,-0.005986266769468784,2023-10-21T14:56:43.226863Z,1697900203226
0.05972963944077492,0.03857816383242607,-0.005986266769468784,2023-10-21T14:56:43.238968Z,1697900203238
0.06717921793460846,0.022348729893565178,-0.005986266769468784,2023-10-21T14:56:43.246848Z,1697900203246
0.05746816098690033,0.019023025408387184,-0.005188097711652517,2023-10-21T14:56:43.256302Z,1697900203256
0.05121583864092827,-0.004123872611671686,0.00944499857723713,2023-10-21T14:56:43.267128Z,1697900203267
0.04589471220970154,-0.02381203882396221,0.021816616877913475,2023-10-21T14:56:43.276618Z,1697900203276
0.040972672402858734,-0.03644971549510956,0.029665278270840645,2023-10-21T14:56:43.289533Z,1697900203289
0.036848798394203186,-0.047224994748830795,0.03631668537855148,2023-10-21T14:56:43.296805Z,1697900203296
0.03046344593167305,-0.061059921979904175,0.04549562931060791,2023-10-21T14:56:43.307906Z,1697900203307
0.024876264855265617,-0.07289943099021912,0.053477317094802856,2023-10-21T14:56:43.317033Z,1697900203317
0.018623940646648407,-0.08433984965085983,0.06265626102685928,2023-10-21T14:56:43.328235Z,1697900203328
0.013169786892831326,-0.09418392926454544,0.07050491869449615,2023-10-21T14:56:43.338853Z,1697900203338
0.007582604885101318,-0.10070230811834335,0.07808752357959747,2023-10-21T14:56:43.348208Z,1697900203348
0.0026605629827827215,-0.10628949105739594,0.08447287976741791,2023-10-21T14:56:43.357659Z,1697900203357
-0.0038578163366764784,-0.11187667399644852,0.09032611548900604,2023-10-21T14:56:43.368381Z,1697900203368
-0.009578026831150055,-0.11653266102075577,0.09524815529584885,2023-10-21T14:56:43.377957Z,1697900203377
-0.015298237092792988,-0.11999139189720154,0.10056928545236588,2023-10-21T14:56:43.389411Z,1697900203389
-0.02008725143969059,-0.1229180097579956,0.10509224236011505,2023-10-21T14:56:43.398090Z,1697900203398
-0.024610208347439766,-0.12664279341697693,0.11107850819826126,2023-10-21T14:56:43.409230Z,1697900203409
-0.03299098089337349,-0.14207406342029572,0.12877124547958374,2023-10-21T14:56:43.418288Z,1697900203418
-0.03738091140985489,-0.14646399021148682,0.13528962433338165,2023-10-21T14:56:43.429544Z,1697900203429
-0.04110569879412651,-0.15111997723579407,0.14194104075431824,2023-10-21T14:56:43.439131Z,1697900203439
-0.04483048617839813,-0.15617504715919495,0.14832639694213867,2023-10-21T14:56:43.449484Z,1697900203449
-0.04935344308614731,-0.16216132044792175,0.15444567799568176,2023-10-21T14:56:43.458982Z,1697900203458
-0.054807599633932114,-0.16921180486679077,0.16069801151752472,2023-10-21T14:56:43.472449Z,1697900203472
-0.060128726065158844,-0.1761292666196823,0.16708335280418396,2023-10-21T14:56:43.479221Z,1697900203479
-0.06451865285634995,-0.18184947967529297,0.17306962609291077,2023-10-21T14:56:43.490165Z,1697900203490
-0.06784436106681824,-0.1861063838005066,0.17825771868228912,2023-10-21T14:56:43.499442Z,1697900203499
-0.0707709789276123,-0.18956512212753296,0.18238160014152527,2023-10-21T14:56:43.510543Z,1697900203510
-0.0735645666718483,-0.19222567975521088,0.18544124066829681,2023-10-21T14:56:43.522391Z,1697900203522
-0.07555998861789703,-0.1926247626543045,0.18717060983181,2023-10-21T14:56:43.530601Z,1697900203530
-0.07675724476575851,-0.19009722769260406,0.18703758716583252,2023-10-21T14:56:43.540011Z,1697900203539
-0.07835358381271362,-0.18584032356739044,0.18570730090141296,2023-10-21T14:56:43.550825Z,1697900203550
-0.08194534480571747,-0.1817164570093155,0.18344582617282867,2023-10-21T14:56:43.560329Z,1697900203560
-0.07822055369615555,-0.166817307472229,0.16881272196769714,2023-10-21T14:56:43.572710Z,1697900203572
-0.08593618869781494,-0.16455581784248352,0.166817307472229,2023-10-21T14:56:43.580494Z,1697900203580
-0.09245456755161285,-0.16282646358013153,0.16495491564273834,2023-10-21T14:56:43.591652Z,1697900203591
-0.10056928545236588,-0.15710625052452087,0.1630925089120865,2023-10-21T14:56:43.600687Z,1697900203600
-0.10735371708869934,-0.15231724083423615,0.1613631546497345,2023-10-21T14:56:43.611946Z,1697900203611
-0.11706477403640747,-0.15058787167072296,0.16256040334701538,2023-10-21T14:56:43.622277Z,1697900203622
-0.1399456113576889,-0.16149617731571198,0.17812469601631165,2023-10-21T14:56:43.631934Z,1697900203631
-0.14885850250720978,-0.16389068961143494,0.18211553990840912,2023-10-21T14:56:43.641339Z,1697900203641
-0.15710625052452087,-0.168546661734581,0.18730363249778748,2023-10-21T14:56:43.655828Z,1697900203655
-0.16442279517650604,-0.17439991235733032,0.1920926570892334,2023-10-21T14:56:43.661625Z,1697900203661
-0.16974392533302307,-0.17985406517982483,0.1943541318178177,2023-10-21T14:56:43.672587Z,1697900203672
-0.17160631716251373,-0.181583434343338,0.19182659685611725,2023-10-21T14:56:43.681788Z,1697900203681
-0.159101665019989,-0.1680145561695099,0.17533110082149506,2023-10-21T14:56:43.692963Z,1697900203692
-0.1541796326637268,-0.15883561968803406,0.16056497395038605,2023-10-21T14:56:43.705610Z,1697900203705
-0.14992272853851318,-0.1509869545698166,0.14779427647590637,2023-10-21T14:56:43.713024Z,1697900203713
-0.12810611724853516,-0.1290373057126999,0.1262437105178833,2023-10-21T14:56:43.722372Z,1697900203722
-0.12092258781194687,-0.09418392926454544,0.08646830171346664,2023-10-21T14:56:43.733186Z,1697900203733
-0.11613357812166214,-0.04948647320270538,0.036582741886377335,2023-10-21T14:56:43.742724Z,1697900203742
-0.10070230811834335,-0.00864682998508215,-0.004655985161662102,2023-10-21T14:56:43.756089Z,1697900203756
-0.08473893254995346,0.03352309390902519,-0.04762407764792442,2023-10-21T14:56:43.762928Z,1697900203762
-0.06811041384935379,0.07555998861789703,-0.09152337163686752,2023-10-21T14:56:43.773948Z,1697900203773
-0.05094978213310242,0.11573449522256851,-0.13528962433338165,2023-10-21T14:56:43.783089Z,1697900203783
-0.034055206924676895,0.15191814303398132,-0.17759257555007935,2023-10-21T14:56:43.794282Z,1697900203794
-0.01822485774755478,0.18251462280750275,-0.21750102937221527,2023-10-21T14:56:43.805581Z,1697900203805
-0.0035917600616812706,0.20712482929229736,-0.25381770730018616,2023-10-21T14:56:43.814346Z,1697900203814
0.00944499857723713,0.2256157398223877,-0.28507933020591736,2023-10-21T14:56:43.823732Z,1697900203823
0.020885419100522995,0.23785433173179626,-0.3100886344909668,2023-10-21T14:56:43.834478Z,1697900203834
0.029931334778666496,0.2431754618883133,-0.32791438698768616,2023-10-21T14:56:43.844029Z,1697900203843
0.036582741886377335,0.24131307005882263,-0.3385566473007202,2023-10-21T14:56:43.855905Z,1697900203855
0.040307529270648956,0.23306532204151154,-0.3425475060939789,2023-10-21T14:56:43.864253Z,1697900203864
0.041238728910684586,0.21989554166793823,-0.34055206179618835,2023-10-21T14:56:43.875383Z,1697900203875
0.03977541625499725,0.20433124899864197,-0.333634614944458,2023-10-21T14:56:43.884353Z,1697900203884
0.03631668537855148,0.18850089609622955,-0.322726309299469,2023-10-21T14:56:43.895646Z,1697900203895
0.031527671962976456,0.1673494130373001,-0.29332706332206726,2023-10-21T14:56:43.905317Z,1697900203905
0.02327992580831051,0.1536475121974945,-0.28029030561447144,2023-10-21T14:56:43.915661Z,1697900203915
0.016229433938860893,0.14194104075431824,-0.26911595463752747,2023-10-21T14:56:43.925049Z,1697900203925
6.651407456956804E-4,0.1316978633403778,-0.25115716457366943,2023-10-21T14:56:43.939387Z,1697900203939
-0.012504646554589272,0.12305103987455368,-0.23572587966918945,2023-10-21T14:56:43.945326Z,1697900203945
-0.028468023985624313,0.12105561792850494,-0.21390926837921143,2023-10-21T14:56:43.956359Z,1697900203956
-0.04203689470887184,0.11932624876499176,-0.19515229761600494,2023-10-21T14:56:43.965514Z,1697900203965
-0.058266330510377884,0.11772991716861725,-0.17094117403030396,2023-10-21T14:56:43.976651Z,1697900203976
-0.07196822762489319,0.11639963090419769,-0.1503218114376068,2023-10-21T14:56:43.988600Z,1697900203988
-0.08460590243339539,0.10988125205039978,-0.12770701944828033,2023-10-21T14:56:43.996684Z,1697900203996
-0.095514215528965,0.10442709922790527,-0.10828491300344467,2023-10-21T14:56:44.006072Z,1697900204006
-0.08154625445604324,0.08912885934114456,-0.09245456755161285,2023-10-21T14:56:44.016904Z,1697900204016
-0.09484907239675522,0.07835358381271362,-0.08194534480571747,2023-10-21T14:56:44.026427Z,1697900204026
-0.10628949105739594,0.06904160976409912,-0.07276640087366104,2023-10-21T14:56:44.038766Z,1697900204038
-0.09072519838809967,0.05893146991729736,-0.06225717440247536,2023-10-21T14:56:44.046590Z,1697900204046
-0.07755541056394577,0.05028464272618294,-0.05307823419570923,2023-10-21T14:56:44.057612Z,1697900204057
-0.06624802201986313,0.04296809434890747,-0.045362599194049835,2023-10-21T14:56:44.066788Z,1697900204066
-0.056536965072155,0.03671576827764511,-0.038711193948984146,2023-10-21T14:56:44.077994Z,1697900204077
-0.06731224805116653,-0.02514232136309147,-0.07130309194326401,2023-10-21T14:56:44.088450Z,1697900204088
-0.07635816186666489,-0.0779544934630394,-0.09897294640541077,2023-10-21T14:56:44.098007Z,1697900204097
-0.06518379598855972,-0.06664710491895676,-0.08460590243339539,2023-10-21T14:56:44.107436Z,1697900204107
-0.055738795548677444,-0.05693604797124863,-0.07223428785800934,2023-10-21T14:56:44.118149Z,1697900204118
-0.0526791475713253,-0.09152337163686752,-0.0960463285446167,2023-10-21T14:56:44.127718Z,1697900204127
-0.05015161260962486,-0.12105561792850494,-0.11639963090419769,2023-10-21T14:56:44.138978Z,1697900204138
-0.042835064232349396,-0.10336287319660187,-0.09950505942106247,2023-10-21T14:56:44.147874Z,1697900204147
-0.036582741886377335,-0.0883306935429573,-0.08487196266651154,2023-10-21T14:56:44.159045Z,1697900204159
-0.03644971549510956,-0.11706477403640747,-0.11453723907470703,2023-10-21T14:56:44.168055Z,1697900204168
-0.03644971549510956,-0.1415419578552246,-0.13967956602573395,2023-10-21T14:56:44.179361Z,1697900204179
-0.03112858720123768,-0.12092258781194687,-0.11932624876499176,2023-10-21T14:56:44.188442Z,1697900204188
-0.024610208347439766,-0.12052350491285324,-0.14367040991783142,2023-10-21T14:56:44.199315Z,1697900204199
-0.019023025408387184,-0.12039047479629517,-0.16442279517650604,2023-10-21T14:56:44.208778Z,1697900204208
-0.016761546954512596,-0.10322984308004379,-0.1717393398284912,2023-10-21T14:56:44.222138Z,1697900204222
-0.01476612500846386,-0.08859674632549286,-0.17799167335033417,2023-10-21T14:56:44.228979Z,1697900204228
-0.01822485774755478,-0.06411956995725632,-0.18264764547348022,2023-10-21T14:56:44.240052Z,1697900204240
-0.026206545531749725,-0.030995558947324753,-0.20047342777252197,2023-10-21T14:56:44.249213Z,1697900204249
-0.03445428982377052,0.0014633096288889647,-0.19794589281082153,2023-10-21T14:56:44.260435Z,1697900204260
-0.04496351629495621,0.03551851585507393,-0.1931568831205368,2023-10-21T14:56:44.271761Z,1697900204271
-0.0570690780878067,0.07090400159358978,-0.18623940646648407,2023-10-21T14:56:44.280373Z,1697900204280
-0.06983978301286697,0.10602343827486038,-0.1773265302181244,2023-10-21T14:56:44.289771Z,1697900204289
-0.08367470651865005,0.13688597083091736,-0.16615216434001923,2023-10-21T14:56:44.300543Z,1697900204300
-0.09923899918794632,0.15936772525310516,-0.15205118060112,2023-10-21T14:56:44.310078Z,1697900204310
-0.1146702691912651,0.17360173165798187,-0.13542266190052032,2023-10-21T14:56:44.322022Z,1697900204321
-0.12797307968139648,0.18198251724243164,-0.1169317439198494,2023-10-21T14:56:44.330253Z,1697900204330
-0.13874836266040802,0.18411096930503845,-0.09671146422624588,2023-10-21T14:56:44.341421Z,1697900204341
-0.13316118717193604,0.16974392533302307,-0.07981689274311066,2023-10-21T14:56:44.350425Z,1697900204350
-0.14513371884822845,0.14965666830539703,-0.05467456951737404,2023-10-21T14:56:44.361724Z,1697900204361
-0.17187237739562988,0.12637674808502197,-0.02168358862400055,2023-10-21T14:56:44.371668Z,1697900204371
-0.17878983914852142,0.09152337163686752,0.006784435827285051,2023-10-21T14:56:44.381679Z,1697900204381
-0.18291370570659637,0.054807599633932114,0.03525245934724808,2023-10-21T14:56:44.391121Z,1697900204391
-0.18397793173789978,0.018357884138822556,0.06225717440247536,2023-10-21T14:56:44.405587Z,1697900204405
-0.18238160014152527,-0.015830349177122116,0.08660132437944412,2023-10-21T14:56:44.411401Z,1697900204411
-0.17772561311721802,-0.04642682522535324,0.10682160407304764,2023-10-21T14:56:44.422384Z,1697900204422
-0.1701430082321167,-0.07223428785800934,0.12172076106071472,2023-10-21T14:56:44.431555Z,1697900204431
-0.1597668081521988,-0.09232153743505478,0.12996850907802582,2023-10-21T14:56:44.442752Z,1697900204442
-0.14260618388652802,-0.09351879358291626,0.12265195697546005,2023-10-21T14:56:44.454990Z,1697900204454
-0.12930336594581604,-0.10509224236011505,0.11666569113731384,2023-10-21T14:56:44.462725Z,1697900204462
-0.11786293983459473,-0.11506935209035873,0.11147759109735489,2023-10-21T14:56:44.472146Z,1697900204472
-0.10070230811834335,-0.09830780327320099,0.09524815529584885,2023-10-21T14:56:44.482952Z,1697900204482
-0.08606921136379242,-0.0839407667517662,0.08128020167350769,2023-10-21T14:56:44.492488Z,1697900204492
-0.06465168297290802,-0.06678013503551483,0.04017450287938118,2023-10-21T14:56:44.505316Z,1697900204505
-0.040972672402858734,-0.035917602479457855,-0.010110139846801758,2023-10-21T14:56:44.512665Z,1697900204512
-0.024344151839613914,0.0047890134155750275,-0.04017450287938118,2023-10-21T14:56:44.523760Z,1697900204523
-0.011573448777198792,0.0433671772480011,-0.06717921793460846,2023-10-21T14:56:44.532865Z,1697900204532
-0.0026605629827827215,0.07742238789796829,-0.08939491957426071,2023-10-21T14:56:44.544084Z,1697900204544
0.003325703786686063,0.10668858140707016,-0.10562435537576675,2023-10-21T14:56:44.554903Z,1697900204554
0.007449576631188393,0.1316978633403778,-0.11613357812166214,2023-10-21T14:56:44.564181Z,1697900204564
0.009977111592888832,0.15218420326709747,-0.12145470082759857,2023-10-21T14:56:44.573475Z,1697900204573
0.010775280185043812,0.16668426990509033,-0.12225287407636642,2023-10-21T14:56:44.584240Z,1697900204584
0.009977111592888832,0.17546413838863373,-0.11959230899810791,2023-10-21T14:56:44.593786Z,1697900204593
0.00864682998508215,0.16548702120780945,-0.10895005613565445,2023-10-21T14:56:44.605397Z,1697900204605
0.009578026831150055,0.17187237739562988,-0.10416104644536972,2023-10-21T14:56:44.613991Z,1697900204613
0.010376195423305035,0.1773265302181244,-0.10017019510269165,2023-10-21T14:56:44.625060Z,1697900204625
0.012903730385005474,0.18131737411022186,-0.09405090659856796,2023-10-21T14:56:44.634091Z,1697900204634
0.015165209770202637,0.18477609753608704,-0.08872977644205093,2023-10-21T14:56:44.645352Z,1697900204645
0.017692744731903076,0.18091829121112823,-0.08154625445604324,2023-10-21T14:56:44.654752Z,1697900204654
0.019688166677951813,0.17772561311721802,-0.07529393583536148,2023-10-21T14:56:44.665343Z,1697900204665
0.016894575208425522,0.15178512036800385,-0.06425260007381439,2023-10-21T14:56:44.674832Z,1697900204674
0.022481758147478104,0.1492575854063034,-0.058532387018203735,2023-10-21T14:56:44.688686Z,1697900204688
0.02727077156305313,0.14699611067771912,-0.05361034348607063,2023-10-21T14:56:44.695060Z,1697900204695
0.02327992580831051,0.12557858228683472,-0.04576168581843376,2023-10-21T14:56:44.706042Z,1697900204706
0.034986402839422226,0.12863822281360626,-0.04057358577847481,2023-10-21T14:56:44.715311Z,1697900204715
0.04496351629495621,0.1311657577753067,-0.03605062887072563,2023-10-21T14:56:44.726400Z,1697900204726
0.038445137441158295,0.11200970411300659,-0.030862530693411827,2023-10-21T14:56:44.738187Z,1697900204738
0.04310112074017525,0.12278498709201813,-0.02381203882396221,2023-10-21T14:56:44.746473Z,1697900204746
0.04709196463227272,0.13209696114063263,-0.017825772985816002,2023-10-21T14:56:44.755868Z,1697900204755
0.040307529270648956,0.11280786991119385,-0.015165209770202637,2023-10-21T14:56:44.766649Z,1697900204766
0.03618365898728371,0.13036759197711945,-0.005321125965565443,2023-10-21T14:56:44.776184Z,1697900204776
0.03259189799427986,0.1453997641801834,0.003059647511690855,2023-10-21T14:56:44.788246Z,1697900204788
0.029000137001276016,0.15271632373332977,0.008912886492908001,2023-10-21T14:56:44.796345Z,1697900204796
0.025807460770010948,0.15883561968803406,0.013834928162395954,2023-10-21T14:56:44.807482Z,1697900204807
0.022082673385739326,0.13568872213363647,0.011839505285024643,2023-10-21T14:56:44.816506Z,1697900204816
0.022481758147478104,0.15550990402698517,0.020486336201429367,2023-10-21T14:56:44.827789Z,1697900204827
0.022747814655303955,0.17253752052783966,0.028068939223885536,2023-10-21T14:56:44.837858Z,1697900204837
0.01942211017012596,0.14739519357681274,0.023945067077875137,2023-10-21T14:56:44.847753Z,1697900204847
0.01662851870059967,0.12584462761878967,0.020486336201429367,2023-10-21T14:56:44.857170Z,1697900204857
0.014100983738899231,0.10748674720525742,0.017426688224077225,2023-10-21T14:56:44.867947Z,1697900204867
0.012105561792850494,0.09178942441940308,0.014899153262376785,2023-10-21T14:56:44.877466Z,1697900204877
0.010376195423305035,0.0784866064786911,0.012770703062415123,2023-10-21T14:56:44.888467Z,1697900204888
0.046293795108795166,0.12358315289020538,0.04735802114009857,2023-10-21T14:56:44.897628Z,1697900204897
0.07689027488231659,0.16216132044792175,0.07702329754829407,2023-10-21T14:56:44.908797Z,1697900204908
0.06571590900421143,0.13848230242729187,0.0658489316701889,2023-10-21T14:56:44.921274Z,1697900204921
0.08806463330984116,0.13209696114063263,0.06930766999721527,2023-10-21T14:56:44.928831Z,1697900204928
0.10708766430616379,0.12650977075099945,0.07223428785800934,2023-10-21T14:56:44.938209Z,1697900204938
0.11733082681894302,0.11772991716861725,0.06345442682504654,2023-10-21T14:56:44.949045Z,1697900204949
0.12611068785190582,0.11014731228351593,0.05587182566523552,2023-10-21T14:56:44.958526Z,1697900204958
0.14340434968471527,0.11759688705205917,0.037513937801122665,2023-10-21T14:56:44.971656Z,1697900204971
0.17759257555007935,0.13901442289352417,0.012504646554589272,2023-10-21T14:56:44.978783Z,1697900204978
0.19142751395702362,0.14992272853851318,-0.011307393200695515,2023-10-21T14:56:44.989775Z,1697900204989
0.20499637722969055,0.16109709441661835,-0.03711485490202904,2023-10-21T14:56:44.998926Z,1697900204998
0.2189643383026123,0.17267054319381714,-0.06385350972414017,2023-10-21T14:56:45.010087Z,1697900205010
0.23306532204151154,0.1843770146369934,-0.09045914560556412,2023-10-21T14:56:45.021293Z,1697900205021
0.24663420021533966,0.19555138051509857,-0.11560146510601044,2023-10-21T14:56:45.030131Z,1697900205030
0.2596709430217743,0.20659272372722626,-0.1388813853263855,2023-10-21T14:56:45.039576Z,1697900205039
0.27244165539741516,0.21776708960533142,-0.1596337854862213,2023-10-21T14:56:45.050293Z,1697900205050
0.28401511907577515,0.22747814655303955,-0.17719349265098572,2023-10-21T14:56:45.059866Z,1697900205059
0.2921298146247864,0.233198344707489,-0.19076237082481384,2023-10-21T14:56:45.071735Z,1697900205071
0.29612067341804504,0.23506075143814087,-0.20007434487342834,2023-10-21T14:56:45.080012Z,1697900205079
0.29705187678337097,0.2359919399023056,-0.205794557929039,2023-10-21T14:56:45.091191Z,1697900205091
0.29612067341804504,0.23812039196491241,-0.20778997242450714,2023-10-21T14:56:45.100188Z,1697900205100
0.29332706332206726,0.240913987159729,-0.2063266634941101,2023-10-21T14:56:45.111463Z,1697900205111
0.28867107629776,0.24357454478740692,-0.2008725106716156,2023-10-21T14:56:45.121247Z,1697900205121
0.2826848328113556,0.24596905708312988,-0.19142751395702362,2023-10-21T14:56:45.131448Z,1697900205131
0.2760334014892578,0.2480975091457367,-0.17825771868228912,2023-10-21T14:56:45.140871Z,1697900205140
0.2526204586029053,0.23067080974578857,-0.15830349922180176,2023-10-21T14:56:45.155005Z,1697900205154
0.2458360195159912,0.22854237258434296,-0.13967956602573395,2023-10-21T14:56:45.161150Z,1697900205161
0.23998278379440308,0.22681300342082977,-0.12371618300676346,2023-10-21T14:56:45.172186Z,1697900205172
0.20499637722969055,0.1936889886856079,-0.10575737804174423,2023-10-21T14:56:45.181361Z,1697900205181
0.20792299509048462,0.18969814479351044,-0.08034900575876236,2023-10-21T14:56:45.192519Z,1697900205192
0.21031750738620758,0.18637244403362274,-0.05866541340947151,2023-10-21T14:56:45.204521Z,1697900205204
0.17958800494670868,0.15923470258712769,-0.05015161260962486,2023-10-21T14:56:45.212541Z,1697900205212
0.18623940646648407,0.14912456274032593,-0.02354598231613636,2023-10-21T14:56:45.221893Z,1697900205221
0.19195961952209473,0.14061075448989868,-7.981689414009452E-4,2023-10-21T14:56:45.232752Z,1697900205232
0.16389068961143494,0.12012442201375961,-6.651407456956804E-4,2023-10-21T14:56:45.242271Z,1697900205242
0.1712072342634201,0.10309682041406631,0.021550560370087624,2023-10-21T14:56:45.254645Z,1697900205254
0.1773265302181244,0.08846372365951538,0.04044055938720703,2023-10-21T14:56:45.262430Z,1697900205262
0.15138603746891022,0.07555998861789703,0.0345873199403286,2023-10-21T14:56:45.273422Z,1697900205273
0.1536475121974945,0.05746816098690033,0.05467456951737404,2023-10-21T14:56:45.282621Z,1697900205282
0.1553768813610077,0.041903868317604065,0.07196822762489319,2023-10-21T14:56:45.293791Z,1697900205293
0.14034469425678253,0.027403799816966057,0.08101414144039154,2023-10-21T14:56:45.304359Z,1697900205304
0.12744097411632538,0.015032181516289711,0.08859674632549286,2023-10-21T14:56:45.313836Z,1697900205313
0.10881702601909637,0.012770703062415123,0.07569301873445511,2023-10-21T14:56:45.323334Z,1697900205323
0.10296379029750824,0.015032181516289711,0.09192245453596115,2023-10-21T14:56:45.334003Z,1697900205333
0.09790872037410736,0.016894575208425522,0.10589040815830231,2023-10-21T14:56:45.343586Z,1697900205343
0.08367470651865005,0.014367040246725082,0.09045914560556412,2023-10-21T14:56:45.354706Z,1697900205354
0.07143611460924149,0.012371618300676346,0.07715632766485214,2023-10-21T14:56:45.363747Z,1697900205363
0.061059921979904175,0.01050922367721796,0.06598196178674698,2023-10-21T14:56:45.374849Z,1697900205374
0.0521470345556736,0.008912886492908001,0.05627090856432915,2023-10-21T14:56:45.387463Z,1697900205387
0.04456442967057228,0.007715632673352957,0.048156190663576126,2023-10-21T14:56:45.394930Z,1697900205394
0.06678013503551483,0.033390067517757416,0.09298668056726456,2023-10-21T14:56:45.404262Z,1697900205404
0.08567012846469879,0.055339712649583817,0.13129878044128418,2023-10-21T14:56:45.415193Z,1697900205415
0.07316548377275467,0.04735802114009857,0.11214273422956467,2023-10-21T14:56:45.424623Z,1697900205424
0.06252323091030121,0.04044055938720703,0.09578026831150055,2023-10-21T14:56:45.437853Z,1697900205437
0.08101414144039154,0.030995558947324753,0.10256470739841461,2023-10-21T14:56:45.444858Z,1697900205444
0.09684449434280396,0.023013871163129807,0.10841794312000275,2023-10-21T14:56:45.455894Z,1697900205455
0.08274351060390472,0.019688166677951813,0.09258759021759033,2023-10-21T14:56:45.465035Z,1697900205465
0.07063794881105423,0.016761546954512596,0.07915174961090088,2023-10-21T14:56:45.476210Z,1697900205476
0.08926188945770264,0.033124011009931564,0.07476182281970978,2023-10-21T14:56:45.487588Z,1697900205487
0.10522526502609253,0.04709196463227272,0.07103703171014786,2023-10-21T14:56:45.496171Z,1697900205496
0.10003717243671417,0.06438562273979187,0.05746816098690033,2023-10-21T14:56:45.505597Z,1697900205505
0.09564723819494247,0.07928477972745895,0.04589471220970154,2023-10-21T14:56:45.516375Z,1697900205516
0.09205548465251923,0.10322984308004379,0.031261615455150604,2023-10-21T14:56:45.525918Z,1697900205525
0.09405090659856796,0.14420251548290253,0.01476612500846386,2023-10-21T14:56:45.538045Z,1697900205538
0.09085822850465775,0.1641567349433899,0.004522957373410463,2023-10-21T14:56:45.546076Z,1697900205546
0.08859674632549286,0.18078525364398956,-0.004123872611671686,2023-10-21T14:56:45.557206Z,1697900205557
0.08686738461256027,0.1931568831205368,-0.011041336692869663,2023-10-21T14:56:45.566269Z,1697900205566
0.07968386262655258,0.18357884883880615,-0.0130367586389184,2023-10-21T14:56:45.577499Z,1697900205577
0.07928477972745895,0.18756969273090363,-0.016894575208425522,2023-10-21T14:56:45.588368Z,1697900205588
0.0790187194943428,0.19089539349079132,-0.02008725143969059,2023-10-21T14:56:45.597570Z,1697900205597
0.07822055369615555,0.1859733611345291,-0.019954223185777664,2023-10-21T14:56:45.606954Z,1697900205606
0.07768844068050385,0.18184947967529297,-0.019954223185777664,2023-10-21T14:56:45.618456Z,1697900205618
0.0663810446858406,0.1553768813610077,-0.017027603462338448,2023-10-21T14:56:45.627255Z,1697900205627
0.056669991463422775,0.13262906670570374,-0.014500068500638008,2023-10-21T14:56:45.638181Z,1697900205638
0.06957372277975082,0.1383492797613144,-0.010243168100714684,2023-10-21T14:56:45.647364Z,1697900205647
0.08061505854129791,0.14313828945159912,-0.0065183793194592,2023-10-21T14:56:45.658562Z,1697900205658
0.06890857964754105,0.12225287407636642,-0.0055871824733912945,2023-10-21T14:56:45.670951Z,1697900205670
0.05879844352602959,0.10442709922790527,-0.0047890134155750275,2023-10-21T14:56:45.678592Z,1697900205678
0.05028464272618294,0.08912885934114456,-0.0039908443577587605,2023-10-21T14:56:45.687989Z,1697900205687
0.04296809434890747,0.07622513175010681,-0.0034587320405989885,2023-10-21T14:56:45.698845Z,1697900205698
0.03671576827764511,0.06505076587200165,-0.0029266192577779293,2023-10-21T14:56:45.708299Z,1697900205708
0.031261615455150604,0.05560576915740967,-0.0025275349617004395,2023-10-21T14:56:45.720953Z,1697900205720
0.026738658547401428,0.04749105125665665,-0.002128450432792306,2023-10-21T14:56:45.728455Z,1697900205728
0.02288084290921688,0.04057358577847481,-0.0018623941577970982,2023-10-21T14:56:45.739635Z,1697900205739
0.05587182566523552,0.05720210447907448,0.04416534677147865,2023-10-21T14:56:45.748670Z,1697900205748
0.0839407667517662,0.07130309194326401,0.0834086537361145,2023-10-21T14:56:45.759923Z,1697900205759
0.07595907151699066,0.05361034348607063,0.08926188945770264,2023-10-21T14:56:45.770666Z,1697900205770
0.0691746398806572,0.03831210732460022,0.09418392926454544,2023-10-21T14:56:45.779862Z,1697900205779
0.0647847130894661,0.025940489023923874,0.0965784415602684,2023-10-21T14:56:45.789376Z,1697900205789
0.0609268918633461,0.015298237092792988,0.09857386350631714,2023-10-21T14:56:45.800202Z,1697900205800
0.05201400816440582,0.013169786892831326,0.08420681953430176,2023-10-21T14:56:45.809695Z,1697900205809
0.044431403279304504,0.011174364946782589,0.07196822762489319,2023-10-21T14:56:45.820944Z,1697900205820
0.03791302442550659,0.009578026831150055,0.0614590048789978,2023-10-21T14:56:45.829822Z,1697900205829
0.032458867877721786,0.008114716969430447,0.05241309106349945,2023-10-21T14:56:45.841319Z,1697900205841
0.04842224717140198,0.011972533538937569,0.07422970980405807,2023-10-21T14:56:45.849944Z,1697900205849
0.06225717440247536,0.015298237092792988,0.09285365045070648,2023-10-21T14:56:45.861261Z,1697900205861
0.05307823419570923,0.0130367586389184,0.07928477972745895,2023-10-21T14:56:45.870551Z,1697900205870
0.045362599194049835,0.011174364946782589,0.06771133095026016,2023-10-21T14:56:45.881221Z,1697900205881
0.05906450003385544,0.03605062887072563,0.06278929114341736,2023-10-21T14:56:45.890661Z,1697900205890
0.0707709789276123,0.05733513459563255,0.058532387018203735,2023-10-21T14:56:45.904405Z,1697900205904
0.06052780896425247,0.04895436018705368,0.04988555610179901,2023-10-21T14:56:45.910831Z,1697900205910
0.06983978301286697,0.061991117894649506,0.04070661589503288,2023-10-21T14:56:45.921913Z,1697900205921
0.07782147079706192,0.07316548377275467,0.03285795450210571,2023-10-21T14:56:45.931030Z,1697900205930
0.06651407480239868,0.06252323091030121,0.028068939223885536,2023-10-21T14:56:45.942246Z,1697900205942
0.05680302157998085,0.05334429070353508,0.023945067077875137,2023-10-21T14:56:45.953869Z,1697900205953
0.07276640087366104,0.06717921793460846,0.016894575208425522,2023-10-21T14:56:45.962254Z,1697900205962
0.08646830171346664,0.0790187194943428,0.010775280185043812,2023-10-21T14:56:45.971664Z,1697900205971
0.07383062690496445,0.06757830083370209,0.009178942069411278,2023-10-21T14:56:45.982469Z,1697900205982
0.06305534392595291,0.057601191103458405,0.00784866139292717,2023-10-21T14:56:45.991983Z,1697900205991
0.053876399993896484,0.04922041669487953,0.006651407573372126,2023-10-21T14:56:46.004346Z,1697900206004
0.04602774232625961,0.04203689470887184,0.00572021072730422,2023-10-21T14:56:46.012146Z,1697900206012
0.06664710491895676,0.03990844637155533,0.022481758147478104,2023-10-21T14:56:46.023282Z,1697900206023
0.08420681953430176,0.03817908093333244,0.03671576827764511,2023-10-21T14:56:46.032332Z,1697900206032
0.07196822762489319,0.03259189799427986,0.03139464557170868,2023-10-21T14:56:46.043580Z,1697900206043
0.07143611460924149,0.015032181516289711,0.04562865570187569,2023-10-21T14:56:46.053758Z,1697900206053
0.07090400159358978,1.3302815204951912E-4,0.057867247611284256,2023-10-21T14:56:46.063635Z,1697900206063
0.06066083908081055,1.3302815204951912E-4,0.04935344308614731,2023-10-21T14:56:46.073057Z,1697900206072
0.05174795165657997,1.3302815204951912E-4,0.042169924825429916,2023-10-21T14:56:46.087367Z,1697900206087
0.06797738373279572,0.0034587320405989885,0.056004852056503296,2023-10-21T14:56:46.093281Z,1697900206093
0.0818123146891594,0.006252323277294636,0.06771133095026016,2023-10-21T14:56:46.104306Z,1697900206104
0.06997280567884445,0.005321125965565443,0.057867247611284256,2023-10-21T14:56:46.113440Z,1697900206113
0.05972963944077492,0.004522957373410463,0.04935344308614731,2023-10-21T14:56:46.124663Z,1697900206124
0.05094978213310242,0.0038578163366764784,0.042169924825429916,2023-10-21T14:56:46.136941Z,1697900206136
0.0790187194943428,0.032458867877721786,0.042569007724523544,2023-10-21T14:56:46.144637Z,1697900206144
0.10283076018095016,0.05680302157998085,0.04296809434890747,2023-10-21T14:56:46.154022Z,1697900206153
0.10256470739841461,0.06704618781805038,0.03299098089337349,2023-10-21T14:56:46.164870Z,1697900206164
0.10243167728185654,0.07582604885101318,0.02447718009352684,2023-10-21T14:56:46.174351Z,1697900206174
0.10322984308004379,0.08487196266651154,0.014633096754550934,2023-10-21T14:56:46.187647Z,1697900206187
0.10402801632881165,0.09258759021759033,0.00611929502338171,2023-10-21T14:56:46.194533Z,1697900206194
0.10522526502609253,0.09870688617229462,-0.0017293660202994943,2023-10-21T14:56:46.205675Z,1697900206205
0.10628949105739594,0.10402801632881165,-0.008513801731169224,2023-10-21T14:56:46.214731Z,1697900206214
0.1081518903374672,0.1086840033531189,-0.014367040246725082,2023-10-21T14:56:46.225939Z,1697900206225
0.1097482219338417,0.11267484724521637,-0.019289081916213036,2023-10-21T14:56:46.236960Z,1697900206236
0.10855097323656082,0.11200970411300659,-0.022348729893565178,2023-10-21T14:56:46.245938Z,1697900206245
0.10761977732181549,0.11161062121391296,-0.024876264855265617,2023-10-21T14:56:46.255416Z,1697900206255
0.09192245453596115,0.09524815529584885,-0.021284503862261772,2023-10-21T14:56:46.266120Z,1697900206266
0.09963808953762054,0.10189956426620483,-0.023945067077875137,2023-10-21T14:56:46.275697Z,1697900206275
0.10628949105739594,0.10761977732181549,-0.02633957378566265,2023-10-21T14:56:46.287531Z,1697900206287
0.09072519838809967,0.09192245453596115,-0.022481758147478104,2023-10-21T14:56:46.295852Z,1697900206295
0.07755541056394577,0.0784866064786911,-0.01915605366230011,2023-10-21T14:56:46.306915Z,1697900206306
0.06624802201986313,0.06704618781805038,-0.01636246219277382,2023-10-21T14:56:46.315978Z,1697900206315
0.08593618869781494,0.08367470651865005,-0.015032181516289711,2023-10-21T14:56:46.327261Z,1697900206327
0.10283076018095016,0.09804175049066544,-0.013834928162395954,2023-10-21T14:56:46.336939Z,1697900206336
0.0877985805273056,0.08367470651865005,-0.011839505285024643,2023-10-21T14:56:46.347249Z,1697900206347
0.07502787560224533,0.07143611460924149,-0.010110139846801758,2023-10-21T14:56:46.356728Z,1697900206356
0.06398653984069824,0.061059921979904175,-0.00864682998508215,2023-10-21T14:56:46.370500Z,1697900206370
0.05467456951737404,0.0521470345556736,-0.007316548377275467,2023-10-21T14:56:46.376915Z,1697900206376
0.06797738373279572,0.06717921793460846,-0.0037247883155941963,2023-10-21T14:56:46.387961Z,1697900206387
0.07941780984401703,0.08008294552564621,-6.651407456956804E-4,2023-10-21T14:56:46.397181Z,1697900206397
0.06784436106681824,0.06837646663188934,-5.321126081980765E-4,2023-10-21T14:56:46.408400Z,1697900206408
0.057867247611284256,0.05839935690164566,-3.990844707004726E-4,2023-10-21T14:56:46.420108Z,1697900206420
0.04948647320270538,0.04988555610179901,-3.990844707004726E-4,2023-10-21T14:56:46.428427Z,1697900206428
0.06372048705816269,0.06944069266319275,0.0011972533538937569,2023-10-21T14:56:46.437773Z,1697900206437
0.07595907151699066,0.08606921136379242,0.0025275349617004395,2023-10-21T14:56:46.448529Z,1697900206448
0.06491773575544357,0.07343153655529022,0.0022614786867052317,2023-10-21T14:56:46.458061Z,1697900206458
0.05547273904085159,0.06278929114341736,0.0018623941577970982,2023-10-21T14:56:46.470641Z,1697900206470
0.04735802114009857,0.05361034348607063,0.0015963378828018904,2023-10-21T14:56:46.478273Z,1697900206478
0.04044055938720703,0.04576168581843376,0.0013302814913913608,2023-10-21T14:56:46.489332Z,1697900206489
0.0345873199403286,0.039110276848077774,0.0011972533538937569,2023-10-21T14:56:46.498403Z,1697900206498
0.02953225001692772,0.033390067517757416,0.001064225216396153,2023-10-21T14:56:46.509680Z,1697900206509
0.04044055938720703,0.055339712649583817,0.006252323277294636,2023-10-21T14:56:46.519907Z,1697900206519
0.049752529710531235,0.0740966796875,0.010642251931130886,2023-10-21T14:56:46.529648Z,1697900206529
0.042569007724523544,0.06332139670848846,0.009045914746820927,2023-10-21T14:56:46.539074Z,1697900206539
0.03631668537855148,0.05400943011045456,0.007715632673352957,2023-10-21T14:56:46.553592Z,1697900206553
0.030995558947324753,0.04616076871752739,0.006651407573372126,2023-10-21T14:56:46.559320Z,1697900206559
0.026472602039575577,0.039376333355903625,0.00572021072730422,2023-10-21T14:56:46.570384Z,1697900206570
0.02261478640139103,0.03365612402558327,0.0047890134155750275,2023-10-21T14:56:46.579545Z,1697900206579
0.019289081916213036,0.028734080493450165,0.004123872611671686,2023-10-21T14:56:46.590672Z,1697900206590
0.016495490446686745,0.024610208347439766,0.0034587320405989885,2023-10-21T14:56:46.599669Z,1697900206599
0.014100983738899231,0.02101844735443592,0.003059647511690855,2023-10-21T14:56:46.610973Z,1697900206610
0.011972533538937569,0.017958801239728928,0.0025275349617004395,2023-10-21T14:56:46.620092Z,1697900206620
0.010243168100714684,0.015298237092792988,0.002128450432792306,2023-10-21T14:56:46.630875Z,1697900206630
0.037247881293296814,0.02354598231613636,0.007183520123362541,2023-10-21T14:56:46.640416Z,1697900206640
0.060394782572984695,0.030596474185585976,0.01144042145460844,2023-10-21T14:56:46.653690Z,1697900206653
0.05148189514875412,0.0260735172778368,0.00971105508506298,2023-10-21T14:56:46.660653Z,1697900206660
0.04403231665492058,0.022348729893565178,0.008380773477256298,2023-10-21T14:56:46.671699Z,1697900206671
0.03764696791768074,0.019023025408387184,0.0070504918694496155,2023-10-21T14:56:46.680803Z,1697900206680
0.03205978497862816,0.016229433938860893,0.00611929502338171,2023-10-21T14:56:46.692017Z,1697900206691
0.027403799816966057,0.01396795641630888,0.005188097711652517,2023-10-21T14:56:46.703038Z,1697900206703
0.037247881293296814,7.981689414009452E-4,0.00971105508506298,2023-10-21T14:56:46.712068Z,1697900206712
0.04576168581843376,-0.01050922367721796,0.013568871654570103,2023-10-21T14:56:46.721452Z,1697900206721
0.039110276848077774,-0.008912886492908001,0.011573448777198792,2023-10-21T14:56:46.732249Z,1697900206732
0.033390067517757416,-0.007582604885101318,0.009844083338975906,2023-10-21T14:56:46.741745Z,1697900206741
0.014633096754550934,-0.019688166677951813,0.024078095331788063,2023-10-21T14:56:46.753534Z,1697900206753
-0.0014633096288889647,-0.029931334778666496,0.03605062887072563,2023-10-21T14:56:46.761934Z,1697900206761
-0.014367040246725082,-0.04230295121669769,0.04642682522535324,2023-10-21T14:56:46.773072Z,1697900206773
-0.025275349617004395,-0.05281217768788338,0.055073656141757965,2023-10-21T14:56:46.782059Z,1697900206782
-0.03352309390902519,-0.06265626102685928,0.06119294837117195,2023-10-21T14:56:46.793390Z,1697900206793
-0.04057358577847481,-0.07103703171014786,0.0663810446858406,2023-10-21T14:56:46.803096Z,1697900206803
-0.0345873199403286,-0.06066083908081055,0.056669991463422775,2023-10-21T14:56:46.813285Z,1697900206813
-0.03857816383242607,-0.06704618781805038,0.05560576915740967,2023-10-21T14:56:46.822772Z,1697900206822
-0.041903868317604065,-0.07250034064054489,0.05467456951737404,2023-10-21T14:56:46.837325Z,1697900206837
-0.03578457236289978,-0.06185809150338173,0.04669288173317909,2023-10-21T14:56:46.843013Z,1697900206842
-0.030596474185585976,-0.05281217768788338,0.03990844637155533,2023-10-21T14:56:46.854025Z,1697900206853
-0.0260735172778368,-0.045096542686223984,0.034055206924676895,2023-10-21T14:56:46.863195Z,1697900206863
-0.0219496451318264,-0.03205978497862816,0.0055871824733912945,2023-10-21T14:56:46.874411Z,1697900206874
-0.018357884138822556,-0.020885419100522995,-0.018756968900561333,2023-10-21T14:56:46.886583Z,1697900206886
-0.01569732278585434,-0.017825772985816002,-0.015963377431035042,2023-10-21T14:56:46.894366Z,1697900206894
-0.013435843400657177,-0.015298237092792988,-0.013701899908483028,2023-10-21T14:56:46.903800Z,1697900206903
-0.01144042145460844,-0.0130367586389184,-0.011706477031111717,2023-10-21T14:56:46.914574Z,1697900206914
-0.0065183793194592,-0.03352309390902519,-0.001064225216396153,2023-10-21T14:56:46.924193Z,1697900206924
-0.0023945067077875137,-0.05094978213310242,0.008114716969430447,2023-10-21T14:56:46.936401Z,1697900206936
-0.0015963378828018904,-0.061725061386823654,0.023146897554397583,2023-10-21T14:56:46.944343Z,1697900206944
-7.981689414009452E-4,-0.07090400159358978,0.035917602479457855,2023-10-21T14:56:46.955444Z,1697900206955
-0.0026605629827827215,-0.07449576258659363,0.044697459787130356,2023-10-21T14:56:46.964505Z,1697900206964
-0.004256900865584612,-0.07768844068050385,0.0521470345556736,2023-10-21T14:56:46.975732Z,1697900206975
-0.0037247883155941963,-0.0663810446858406,0.044431403279304504,2023-10-21T14:56:46.986367Z,1697900206986
-0.0031926757656037807,-0.056669991463422775,0.03804605081677437,2023-10-21T14:56:46.995709Z,1697900206995
-0.0026605629827827215,-0.04842224717140198,0.032458867877721786,2023-10-21T14:56:47.005194Z,1697900207005
-0.0022614786867052317,-0.04137175530195236,0.027669856324791908,2023-10-21T14:56:47.015870Z,1697900207015
0.009578026831150055,-0.02261478640139103,0.010775280185043812,2023-10-21T14:56:47.025430Z,1697900207025
0.019688166677951813,-0.0065183793194592,-0.0037247883155941963,2023-10-21T14:56:47.036702Z,1697900207036
0.025807460770010948,0.005055069923400879,-0.01982119493186474,2023-10-21T14:56:47.045570Z,1697900207045
0.03112858720123768,0.015032181516289711,-0.03365612402558327,2023-10-21T14:56:47.056721Z,1697900207056
0.03418823331594467,0.025275349617004395,-0.046293795108795166,2023-10-21T14:56:47.065726Z,1697900207065
0.03698182478547096,0.03392218053340912,-0.05720210447907448,2023-10-21T14:56:47.077044Z,1697900207077
0.03857816383242607,0.04642682522535324,-0.06544984877109528,2023-10-21T14:56:47.086213Z,1697900207086
0.03990844637155533,0.05720210447907448,-0.07250034064054489,2023-10-21T14:56:47.096984Z,1697900207096
0.0389772467315197,0.06491773575544357,-0.07422970980405807,2023-10-21T14:56:47.106510Z,1697900207106
0.03804605081677437,0.07156914472579956,-0.07582604885101318,2023-10-21T14:56:47.120160Z,1697900207120
0.032458867877721786,0.061059921979904175,-0.0647847130894661,2023-10-21T14:56:47.126661Z,1697900207126
0.027802884578704834,0.0521470345556736,-0.055339712649583817,2023-10-21T14:56:47.137723Z,1697900207137
0.023679010570049286,0.04456442967057228,-0.047224994748830795,2023-10-21T14:56:47.146839Z,1697900207146
0.020220279693603516,0.03804605081677437,-0.040307529270648956,2023-10-21T14:56:47.158069Z,1697900207158
0.03605062887072563,0.0219496451318264,-0.03525245934724808,2023-10-21T14:56:47.169540Z,1697900207169
0.04948647320270538,0.008114716969430447,-0.030995558947324753,2023-10-21T14:56:47.178029Z,1697900207178
0.047224994748830795,-0.024610208347439766,-0.012903730385005474,2023-10-21T14:56:47.187528Z,1697900207187
0.04682590812444687,-0.07090400159358978,0.011839505285024643,2023-10-21T14:56:47.198257Z,1697900207198
0.04243598133325577,-0.09764266014099121,0.029133165255188942,2023-10-21T14:56:47.207789Z,1697900207207
0.036848798394203186,-0.12025745213031769,0.045096542686223984,2023-10-21T14:56:47.220155Z,1697900207220
0.029931334778666496,-0.13768413662910461,0.05813330411911011,2023-10-21T14:56:47.227981Z,1697900207227
0.022481758147478104,-0.14832639694213867,0.06731224805116653,2023-10-21T14:56:47.239075Z,1697900207239
0.01755971647799015,-0.14061075448989868,0.06558287888765335,2023-10-21T14:56:47.248155Z,1697900207248
0.01396795641630888,-0.13701899349689484,0.0658489316701889,2023-10-21T14:56:47.259482Z,1697900207259
0.011041336692869663,-0.1339593529701233,0.06598196178674698,2023-10-21T14:56:47.269933Z,1697900207269
0.00944499857723713,-0.11440420895814896,0.056403934955596924,2023-10-21T14:56:47.279446Z,1697900207279
0.008114716969430447,-0.09764266014099121,0.048156190663576126,2023-10-21T14:56:47.288806Z,1697900207288
0.017825772985816002,-0.06811041384935379,0.026206545531749725,2023-10-21T14:56:47.302968Z,1697900207302
0.030995558947324753,-0.030197391286492348,-0.0031926757656037807,2023-10-21T14:56:47.309099Z,1697900207309
0.03671576827764511,0.001064225216396153,-0.025940489023923874,2023-10-21T14:56:47.320134Z,1697900207320
0.04270203784108162,0.030197391286492348,-0.048156190663576126,2023-10-21T14:56:47.329221Z,1697900207329
0.04922041669487953,0.05547273904085159,-0.06784436106681824,2023-10-21T14:56:47.340487Z,1697900207340
0.05613787844777107,0.0751609057188034,-0.0834086537361145,2023-10-21T14:56:47.352826Z,1697900207352
0.06318837404251099,0.08939491957426071,-0.09391787648200989,2023-10-21T14:56:47.360403Z,1697900207360
0.06185809150338173,0.0883306935429573,-0.09072519838809967,2023-10-21T14:56:47.369844Z,1697900207369
0.07117006182670593,0.09697752445936203,-0.09351879358291626,2023-10-21T14:56:47.380620Z,1697900207380
0.07915174961090088,0.10442709922790527,-0.09591329842805862,2023-10-21T14:56:47.390200Z,1697900207390
0.06757830083370209,0.08926188945770264,-0.08194534480571747,2023-10-21T14:56:47.402657Z,1697900207402
0.0790187194943428,0.08540407568216324,-0.07928477972745895,2023-10-21T14:56:47.410315Z,1697900207410
0.08886280655860901,0.08207836747169495,-0.07702329754829407,2023-10-21T14:56:47.421409Z,1697900207421
0.07582604885101318,0.07010583579540253,-0.06571590900421143,2023-10-21T14:56:47.430542Z,1697900207430
0.07223428785800934,0.040972672402858734,-0.04895436018705368,2023-10-21T14:56:47.441734Z,1697900207441
0.06904160976409912,0.016096405684947968,-0.034720346331596375,2023-10-21T14:56:47.452841Z,1697900207452
0.05893146991729736,0.013701899908483028,-0.029665278270840645,2023-10-21T14:56:47.461774Z,1697900207461
0.050417669117450714,0.011706477031111717,-0.025275349617004395,2023-10-21T14:56:47.471220Z,1697900207471
0.04296809434890747,0.009977111592888832,-0.02168358862400055,2023-10-21T14:56:47.481923Z,1697900207481
0.05986266955733299,0.008247745223343372,-0.0070504918694496155,2023-10-21T14:56:47.491605Z,1697900207491
0.07436273992061615,0.006651407573372126,0.005321125965565443,2023-10-21T14:56:47.503220Z,1697900207503
0.07915174961090088,0.023679010570049286,-0.003059647511690855,2023-10-21T14:56:47.511598Z,1697900207511
0.08327562361955643,0.03817908093333244,-0.010376195423305035,2023-10-21T14:56:47.522769Z,1697900207522
0.0883306935429573,0.053211260586977005,-0.02288084290921688,2023-10-21T14:56:47.532209Z,1697900207532
0.09258759021759033,0.06611499190330505,-0.03352309390902519,2023-10-21T14:56:47.543481Z,1697900207543
0.0971105545759201,0.07715632766485214,-0.04589471220970154,2023-10-21T14:56:47.552577Z,1697900207552
0.10083533823490143,0.08660132437944412,-0.056403934955596924,2023-10-21T14:56:47.563470Z,1697900207563
0.10309682041406631,0.09365181624889374,-0.06704618781805038,2023-10-21T14:56:47.572913Z,1697900207572
0.10495921224355698,0.09950505942106247,-0.07595907151699066,2023-10-21T14:56:47.586588Z,1697900207586
0.10668858140707016,0.10961519926786423,-0.0867343544960022,2023-10-21T14:56:47.593167Z,1697900207593
0.11786293983459473,0.1350235790014267,-0.10828491300344467,2023-10-21T14:56:47.604951Z,1697900207604
0.12065653502941132,0.15058787167072296,-0.1179959699511528,2023-10-21T14:56:47.613328Z,1697900207613
0.12371618300676346,0.16548702120780945,-0.1267758309841156,2023-10-21T14:56:47.624486Z,1697900207624
0.12531252205371857,0.17573018372058868,-0.1327620893716812,2023-10-21T14:56:47.636175Z,1697900207636
0.12491343170404434,0.1799870878458023,-0.13489054143428802,2023-10-21T14:56:47.644472Z,1697900207644
0.11533540487289429,0.1673494130373001,-0.12504646182060242,2023-10-21T14:56:47.653904Z,1697900207653
0.11600054800510406,0.1624273806810379,-0.11972533911466599,2023-10-21T14:56:47.664709Z,1697900207664
0.11653266102075577,0.15830349922180176,-0.11520238220691681,2023-10-21T14:56:47.674262Z,1697900207674
0.09950505942106247,0.13515660166740417,-0.09844083338975906,2023-10-21T14:56:47.686465Z,1697900207686
0.08500499278306961,0.11546843498945236,-0.08407378941774368,2023-10-21T14:56:47.694396Z,1697900207694
0.10522526502609253,0.10881702601909637,-0.0653168261051178,2023-10-21T14:56:47.705463Z,1697900207705
0.12251892685890198,0.10309682041406631,-0.04935344308614731,2023-10-21T14:56:47.714588Z,1697900207714
0.10469315201044083,0.08806463330984116,-0.042169924825429916,2023-10-21T14:56:47.725819Z,1697900207725
0.11187667399644852,0.06678013503551483,-0.011307393200695515,2023-10-21T14:56:47.735838Z,1697900207735
0.11812900006771088,0.04855527728796005,0.015165209770202637,2023-10-21T14:56:47.745828Z,1697900207745
0.11214273422956467,0.026472602039575577,0.03618365898728371,2023-10-21T14:56:47.755284Z,1697900207755
0.10695463418960571,0.007582604885101318,0.054142456501722336,2023-10-21T14:56:47.769667Z,1697900207769
0.09910597652196884,-0.012637674808502197,0.07090400159358978,2023-10-21T14:56:47.775586Z,1697900207775
0.09245456755161285,-0.02979830652475357,0.08513801544904709,2023-10-21T14:56:47.786503Z,1697900207786
0.08513801544904709,-0.04110569879412651,0.0965784415602684,2023-10-21T14:56:47.795697Z,1697900207795
0.07888569682836533,-0.050683725625276566,0.10628949105739594,2023-10-21T14:56:47.806891Z,1697900207806
0.07250034064054489,-0.05587182566523552,0.11014731228351593,2023-10-21T14:56:47.819193Z,1697900207819
0.06717921793460846,-0.06026175245642662,0.11333998292684555,2023-10-21T14:56:47.826909Z,1697900207826
0.06252323091030121,-0.06358745694160461,0.10855097323656082,2023-10-21T14:56:47.836288Z,1697900207836
0.05866541340947151,-0.06651407480239868,0.10442709922790527,2023-10-21T14:56:47.847122Z,1697900207847
0.050018586218357086,-0.05680302157998085,0.08912885934114456,2023-10-21T14:56:47.856611Z,1697900207856
0.0691746398806572,-0.054807599633932114,0.06784436106681824,2023-10-21T14:56:47.869674Z,1697900207869
0.08540407568216324,-0.05307823419570923,0.04961949959397316,2023-10-21T14:56:47.876779Z,1697900207876
0.09923899918794632,-0.04310112074017525,0.02327992580831051,2023-10-21T14:56:47.887888Z,1697900207887
0.11094547808170319,-0.03445428982377052,7.981689414009452E-4,2023-10-21T14:56:47.897066Z,1697900207896
0.11839505285024643,-0.029133165255188942,-0.018357884138822556,2023-10-21T14:56:47.908245Z,1697900207908
0.12491343170404434,-0.024610208347439766,-0.034720346331596375,2023-10-21T14:56:47.919326Z,1697900207919
0.12358315289020538,-0.02381203882396221,-0.04483048617839813,2023-10-21T14:56:47.928246Z,1697900207928
0.12265195697546005,-0.023146897554397583,-0.053477317094802856,2023-10-21T14:56:47.937641Z,1697900207937
0.11972533911466599,-0.017160631716251373,-0.0609268918633461,2023-10-21T14:56:47.948390Z,1697900207948
0.11733082681894302,-0.012105561792850494,-0.06731224805116653,2023-10-21T14:56:47.957934Z,1697900207957
0.11719780415296555,6.651407456956804E-4,-0.07768844068050385,2023-10-21T14:56:47.969474Z,1697900207969
0.1273079365491867,0.02101844735443592,-0.09923899918794632,2023-10-21T14:56:47.978117Z,1697900207978
0.13103273510932922,0.0389772467315197,-0.11187667399644852,2023-10-21T14:56:47.989183Z,1697900207989
0.1366199105978012,0.05773421749472618,-0.12398223578929901,2023-10-21T14:56:47.998233Z,1697900207998
0.14207406342029572,0.07343153655529022,-0.13302814960479736,2023-10-21T14:56:48.009528Z,1697900208009
0.13382631540298462,0.0740966796875,-0.12664279341697693,2023-10-21T14:56:48.019132Z,1697900208019
0.13489054143428802,0.07529393583536148,-0.12770701944828033,2023-10-21T14:56:48.029504Z,1697900208029
0.13582174479961395,0.07635816186666489,-0.12850520014762878,2023-10-21T14:56:48.038978Z,1697900208038
0.11600054800510406,0.0653168261051178,-0.1097482219338417,2023-10-21T14:56:48.052966Z,1697900208052
0.11892716586589813,0.05893146991729736,-0.10456012934446335,2023-10-21T14:56:48.059232Z,1697900208059
0.12158773094415665,0.053477317094802856,-0.10017019510269165,2023-10-21T14:56:48.070183Z,1697900208070
0.1037619560956955,0.04562865570187569,-0.08553709834814072,2023-10-21T14:56:48.079439Z,1697900208079
0.08859674632549286,0.0389772467315197,-0.0730324536561966,2023-10-21T14:56:48.090532Z,1697900208090
0.0993720293045044,0.04709196463227272,-0.06678013503551483,2023-10-21T14:56:48.101981Z,1697900208101
0.10855097323656082,0.05400943011045456,-0.061325978487730026,2023-10-21T14:56:48.110571Z,1697900208110
0.09272062033414841,0.04616076871752739,-0.05241309106349945,2023-10-21T14:56:48.120072Z,1697900208120
0.10070230811834335,0.05933055654168129,-0.054807599633932114,2023-10-21T14:56:48.130729Z,1697900208130
0.10761977732181549,0.0707709789276123,-0.05693604797124863,2023-10-21T14:56:48.140312Z,1697900208140
0.09192245453596115,0.060394782572984695,-0.04868830367922783,2023-10-21T14:56:48.152511Z,1697900208152
0.10203259438276291,0.06771133095026016,-0.051614921540021896,2023-10-21T14:56:48.160542Z,1697900208160
0.11054639518260956,0.0740966796875,-0.05427548661828041,2023-10-21T14:56:48.171584Z,1697900208171
0.09444998949766159,0.06332139670848846,-0.046293795108795166,2023-10-21T14:56:48.180666Z,1697900208180
0.08061505854129791,0.05400943011045456,-0.0395093597471714,2023-10-21T14:56:48.191903Z,1697900208191
0.09391787648200989,0.06624802201986313,-0.0389772467315197,2023-10-21T14:56:48.202106Z,1697900208202
0.10522526502609253,0.07662421464920044,-0.03857816383242607,2023-10-21T14:56:48.211887Z,1697900208211
0.08992703258991241,0.06544984877109528,-0.03299098089337349,2023-10-21T14:56:48.221306Z,1697900208221
0.08593618869781494,0.07715632766485214,-0.02953225001692772,2023-10-21T14:56:48.232092Z,1697900208232
0.08247745782136917,0.08713343739509583,-0.026605630293488503,2023-10-21T14:56:48.241619Z,1697900208241
0.07050491869449615,0.07449576258659363,-0.022747814655303955,2023-10-21T14:56:48.252617Z,1697900208252
0.07502787560224533,0.09099125862121582,-0.022348729893565178,2023-10-21T14:56:48.261781Z,1697900208261
0.0790187194943428,0.10509224236011505,-0.022082673385739326,2023-10-21T14:56:48.272928Z,1697900208272
0.06744527071714401,0.08979400247335434,-0.018756968900561333,2023-10-21T14:56:48.285471Z,1697900208285
0.08221139758825302,0.09950505942106247,-0.020486336201429367,2023-10-21T14:56:48.292988Z,1697900208292
0.09484907239675522,0.10775279998779297,-0.0219496451318264,2023-10-21T14:56:48.302315Z,1697900208302
0.08101414144039154,0.09205548465251923,-0.018756968900561333,2023-10-21T14:56:48.313232Z,1697900208313
0.10136745125055313,0.0960463285446167,-0.019688166677951813,2023-10-21T14:56:48.322676Z,1697900208322
0.11866111308336258,0.09950505942106247,-0.020486336201429367,2023-10-21T14:56:48.336114Z,1697900208336
0.10136745125055313,0.08500499278306961,-0.01755971647799015,2023-10-21T14:56:48.342861Z,1697900208342
0.12078956514596939,0.08327562361955643,-0.010642251931130886,2023-10-21T14:56:48.353914Z,1697900208353
0.13741807639598846,0.0818123146891594,-0.004655985161662102,2023-10-21T14:56:48.363043Z,1697900208363
0.14300526678562164,0.07609210163354874,0.004522957373410463,2023-10-21T14:56:48.374262Z,1697900208374
0.14779427647590637,0.07117006182670593,0.012371618300676346,2023-10-21T14:56:48.385530Z,1697900208385
0.15245026350021362,0.06318837404251099,0.023146897554397583,2023-10-21T14:56:48.394298Z,1697900208394
0.15630808472633362,0.05627090856432915,0.03232584148645401,2023-10-21T14:56:48.403680Z,1697900208403
0.15763835608959198,0.04403231665492058,0.043500207364559174,2023-10-21T14:56:48.414407Z,1697900208414
0.15870258212089539,0.03352309390902519,0.05307823419570923,2023-10-21T14:56:48.424015Z,1697900208423
0.15950074791908264,0.022481758147478104,0.061059921979904175,2023-10-21T14:56:48.435828Z,1697900208435
0.16003286838531494,0.0130367586389184,0.06784436106681824,2023-10-21T14:56:48.444196Z,1697900208444
0.16535399854183197,0.009844083338975906,0.06797738373279572,2023-10-21T14:56:48.455278Z,1697900208455
0.16987694799900055,0.0070504918694496155,0.06797738373279572,2023-10-21T14:56:48.464294Z,1697900208464
0.17799167335033417,0.007715632673352957,0.059463582932949066,2023-10-21T14:56:48.475584Z,1697900208475
0.18477609753608704,0.008247745223343372,0.0521470345556736,2023-10-21T14:56:48.485406Z,1697900208485
0.1970146894454956,0.010243168100714684,0.03711485490202904,2023-10-21T14:56:48.495548Z,1697900208495
0.2294735610485077,0.014367040246725082,0.017958801239728928,2023-10-21T14:56:48.505044Z,1697900208504
0.24251031875610352,0.018091829493641853,0.001064225216396153,2023-10-21T14:56:48.519785Z,1697900208519
0.2578085660934448,0.022215701639652252,-0.017027603462338448,2023-10-21T14:56:48.525264Z,1697900208525
0.2740379869937897,0.025009293109178543,-0.03551851585507393,2023-10-21T14:56:48.536277Z,1697900208536
0.29119861125946045,0.02514232136309147,-0.05400943011045456,2023-10-21T14:56:48.545425Z,1697900208545
0.3094234764575958,0.02288084290921688,-0.07210125774145126,2023-10-21T14:56:48.556629Z,1697900208556
0.32897862792015076,0.0172936599701643,-0.0883306935429573,2023-10-21T14:56:48.568818Z,1697900208568
0.34879982471466064,0.005853238515555859,-0.1009683683514595,2023-10-21T14:56:48.576647Z,1697900208576
0.36795586347579956,-0.013701899908483028,-0.10748674720525742,2023-10-21T14:56:48.586046Z,1697900208586
0.3863137662410736,-0.04150478169322014,-0.10668858140707016,2023-10-21T14:56:48.596849Z,1697900208596
0.4034743905067444,-0.07542695850133896,-0.09883991628885269,2023-10-21T14:56:48.606358Z,1697900208606
0.4183735251426697,-0.11333998292684555,-0.08460590243339539,2023-10-21T14:56:48.619055Z,1697900208619
0.4296809434890747,-0.15271632373332977,-0.06598196178674698,2023-10-21T14:56:48.626584Z,1697900208626
0.43713051080703735,-0.19036328792572021,-0.045362599194049835,2023-10-21T14:56:48.637614Z,1697900208637
0.44072225689888,-0.22295518219470978,-0.025009293109178543,2023-10-21T14:56:48.646729Z,1697900208646
0.4424516260623932,-0.2470332831144333,-0.0070504918694496155,2023-10-21T14:56:48.657928Z,1697900208657
0.4429837465286255,-0.2617993950843811,0.008513801731169224,2023-10-21T14:56:48.668701Z,1697900208668
0.4417864978313446,-0.2689829170703888,0.023146897554397583,2023-10-21T14:56:48.677938Z,1697900208677
0.4379286766052246,-0.27137744426727295,0.039110276848077774,2023-10-21T14:56:48.687407Z,1697900208687
0.4303460717201233,-0.2712444067001343,0.058266330510377884,2023-10-21T14:56:48.698145Z,1697900208698
0.4198368489742279,-0.26911595463752747,0.08008294552564621,2023-10-21T14:56:48.707672Z,1697900208707
0.40746521949768066,-0.2644599676132202,0.10309682041406631,2023-10-21T14:56:48.718814Z,1697900208718
0.39429545402526855,-0.2563452422618866,0.12504646182060242,2023-10-21T14:56:48.727844Z,1697900208727
0.38125869631767273,-0.24490483105182648,0.14473463594913483,2023-10-21T14:56:48.738918Z,1697900208738
0.3692861497402191,-0.23013870418071747,0.16123011708259583,2023-10-21T14:56:48.747965Z,1697900208747
0.3590429723262787,-0.21257898211479187,0.17466595768928528,2023-10-21T14:56:48.759268Z,1697900208759
0.35052919387817383,-0.1942211091518402,0.18690454959869385,2023-10-21T14:56:48.768670Z,1697900208768
0.34268051385879517,-0.17932194471359253,0.20167067646980286,2023-10-21T14:56:48.779301Z,1697900208779
0.33496490120887756,-0.17054209113121033,0.22255609929561615,2023-10-21T14:56:48.788710Z,1697900208788
0.3288455903530121,-0.166817307472229,0.2507580518722534,2023-10-21T14:56:48.802466Z,1697900208802
0.32472172379493713,-0.16721639037132263,0.2865426540374756,2023-10-21T14:56:48.808946Z,1697900208808
0.3211299479007721,-0.17333568632602692,0.33017587661743164,2023-10-21T14:56:48.819945Z,1697900208819
0.3166069984436035,-0.18690454959869385,0.38019445538520813,2023-10-21T14:56:48.829161Z,1697900208829
0.3118179738521576,-0.20592758059501648,0.43287360668182373,2023-10-21T14:56:48.840343Z,1697900208840
0.3100886344909668,-0.2244184911251068,0.48156189918518066,2023-10-21T14:56:48.851933Z,1697900208851
0.31368038058280945,-0.23798736929893494,0.5208052396774292,2023-10-21T14:56:48.860409Z,1697900208860
0.3225932717323303,-0.2453039139509201,0.5490071773529053,2023-10-21T14:56:48.869759Z,1697900208869
0.3364281952381134,-0.24623510241508484,0.566832959651947,2023-10-21T14:56:48.880510Z,1697900208880
0.35438698530197144,-0.24104700982570648,0.5769430994987488,2023-10-21T14:56:48.890037Z,1697900208889
0.3748733401298523,-0.23013870418071747,0.5819981694221497,2023-10-21T14:56:48.902367Z,1697900208902
0.39642390608787537,-0.2140422910451889,0.5847917795181274,2023-10-21T14:56:48.910205Z,1697900208910
0.4175753593444824,-0.19408807158470154,0.5871862769126892,2023-10-21T14:56:48.921283Z,1697900208921
0.4368644654750824,-0.1729366034269333,0.5907780528068542,2023-10-21T14:56:48.930458Z,1697900208930
0.45469021797180176,-0.15111997723579407,0.5950348973274231,2023-10-21T14:56:48.941628Z,1697900208941
0.4746444523334503,-0.12611068785190582,0.597296416759491,2023-10-21T14:56:48.951873Z,1697900208951
0.5007179379463196,-0.09578026831150055,0.5957000851631165,2023-10-21T14:56:48.961636Z,1697900208961
0.5321125984191895,-0.06239020451903343,0.5919752717018127,2023-10-21T14:56:48.971067Z,1697900208971
0.5665668845176697,-0.030330419540405273,0.589181661605835,2023-10-21T14:56:48.985665Z,1697900208985
0.6022184491157532,-0.0025275349617004395,0.5897138118743896,2023-10-21T14:56:48.991383Z,1697900208991
0.6378700137138367,0.018756968900561333,0.5962321758270264,2023-10-21T14:56:49.002308Z,1697900209002
0.6727233529090881,0.03285795450210571,0.6103331446647644,2023-10-21T14:56:49.011564Z,1697900209011
0.7074437141418457,0.04177083820104599,0.6317507028579712,2023-10-21T14:56:49.022670Z,1697900209022
0.7432282567024231,0.04749105125665665,0.6583563089370728,2023-10-21T14:56:49.035098Z,1697900209035
0.7800770998001099,0.05148189514875412,0.6876225471496582,2023-10-21T14:56:49.042677Z,1697900209042
0.8179901242256165,0.055073656141757965,0.7160905599594116,2023-10-21T14:56:49.052107Z,1697900209052
0.8578985333442688,0.060394782572984695,0.7393704652786255,2023-10-21T14:56:49.062867Z,1697900209062
0.9015318155288696,0.07090400159358978,0.7529393434524536,2023-10-21T14:56:49.072446Z,1697900209072
0.9512842893600464,0.08979400247335434,0.7529393434524536,2023-10-21T14:56:49.085460Z,1697900209085
1.0075552463531494,0.11812900006771088,0.737774133682251,2023-10-21T14:56:49.092629Z,1697900209092
1.0691472291946411,0.15497779846191406,0.7078428268432617,2023-10-21T14:56:49.103666Z,1697900209103
1.1380558013916016,0.20047342777252197,0.6614159941673279,2023-10-21T14:56:49.112888Z,1697900209112
1.220001220703125,0.25767552852630615,0.5941037535667419,2023-10-21T14:56:49.123992Z,1697900209123
1.3188410997390747,0.3283134698867798,0.5028464198112488,2023-10-21T14:56:49.135501Z,1697900209135
1.4352407455444336,0.4121212065219879,0.38724493980407715,2023-10-21T14:56:49.144055Z,1697900209144
1.5693330764770508,0.5089657306671143,0.24836355447769165,2023-10-21T14:56:49.153441Z,1697900209153
1.719255805015564,0.6176497340202332,0.08912885934114456,2023-10-21T14:56:49.164382Z,1697900209164
1.8799538612365723,0.7352465987205505,-0.08433984965085983,2023-10-21T14:56:49.173742Z,1697900209173
2.0447757244110107,0.858696699142456,-0.26419392228126526,2023-10-21T14:56:49.185326Z,1697900209185
2.2046756744384766,0.9840092658996582,-0.44045621156692505,2023-10-21T14:56:49.193892Z,1697900209193
2.347813844680786,1.1047987937927246,-0.6012872457504272,2023-10-21T14:56:49.205025Z,1697900209205
2.466475009918213,1.2166755199432373,-0.7393704652786255,2023-10-21T14:56:49.214055Z,1697900209214
2.5627872943878174,1.3208365440368652,-0.855903148651123,2023-10-21T14:56:49.225397Z,1697900209225
2.6403427124023438,1.4184792041778564,-0.9546099901199341,2023-10-21T14:56:49.234987Z,1697900209234
2.697145700454712,1.5080071687698364,-1.0370874404907227,2023-10-21T14:56:49.245295Z,1697900209245
2.7341275215148926,1.5883561372756958,-1.1079914569854736,2023-10-21T14:56:49.254792Z,1697900209254
2.762063503265381,1.6628519296646118,-1.1794276237487793,2023-10-21T14:56:49.268740Z,1697900209268
2.79399037361145,1.7356183528900146,-1.2642995119094849,2023-10-21T14:56:49.274980Z,1697900209274
2.8358941078186035,1.8079856634140015,-1.3684606552124023,2023-10-21T14:56:49.285983Z,1697900209285
2.8868439197540283,1.8784905672073364,-1.4903143644332886,2023-10-21T14:56:49.295293Z,1697900209295
2.9416515827178955,1.9438073635101318,-1.6232094764709473,2023-10-21T14:56:49.306368Z,1697900209306
2.9936654567718506,2.0004773139953613,-1.7575680017471313,2023-10-21T14:56:49.318397Z,1697900209318
3.03277587890625,2.044243574142456,-1.8807519674301147,2023-10-21T14:56:49.326400Z,1697900209326
3.0482070446014404,2.0709822177886963,-1.9802570343017578,2023-10-21T14:56:49.335804Z,1697900209335
3.0322437286376953,2.0777666568756104,-2.047436237335205,2023-10-21T14:56:49.346622Z,1697900209346
2.985018730163574,2.066326379776001,-2.0817575454711914,2023-10-21T14:56:49.356166Z,1697900209356
2.914247751235962,2.0417160987854004,-2.0904042720794678,2023-10-21T14:56:49.368656Z,1697900209368
2.8285775184631348,2.009124279022217,-2.0829548835754395,2023-10-21T14:56:49.376295Z,1697900209376
2.7330634593963623,1.9710781574249268,-2.0661933422088623,2023-10-21T14:56:49.387455Z,1697900209387
2.6312968730926514,1.9293073415756226,-2.0453078746795654,2023-10-21T14:56:49.396507Z,1697900209396
2.5270028114318848,1.8858070373535156,-2.0249545574188232,2023-10-21T14:56:49.407715Z,1697900209407
2.421910524368286,1.841375708580017,-2.005798578262329,2023-10-21T14:56:49.418267Z,1697900209418
2.314556837081909,1.7954809665679932,-1.9849131107330322,2023-10-21T14:56:49.427644Z,1697900209427
2.202946186065674,1.7462605237960815,-1.957775354385376,2023-10-21T14:56:49.437170Z,1697900209437
2.086812734603882,1.693847417831421,-1.9218577146530151,2023-10-21T14:56:49.451728Z,1697900209451
1.9672203063964844,1.6398379802703857,-1.8776923418045044,2023-10-21T14:56:49.457406Z,1697900209457
1.8443022966384888,1.5851634740829468,-1.8256783485412598,2023-10-21T14:56:49.468489Z,1697900209468
1.7159301042556763,1.5296907424926758,-1.765150547027588,2023-10-21T14:56:49.477601Z,1697900209477
1.5793101787567139,1.472754716873169,-1.6954437494277954,2023-10-21T14:56:49.488749Z,1697900209488
1.434309482574463,1.4155526161193848,-1.617356300354004,2023-10-21T14:56:49.501523Z,1697900209501
1.2827904224395752,1.3604788780212402,-1.5323512554168701,2023-10-21T14:56:49.508719Z,1697900209508
1.1271475553512573,1.309662103652954,-1.4413599967956543,2023-10-21T14:56:49.518146Z,1697900209518
0.9693761467933655,1.2644325494766235,-1.3453136682510376,2023-10-21T14:56:49.528991Z,1697900209528
0.8117377758026123,1.2239919900894165,-1.2448774576187134,2023-10-21T14:56:49.538683Z,1697900209538
0.6562278866767883,1.1867440938949585,-1.141913652420044,2023-10-21T14:56:49.551894Z,1697900209551
0.5064381957054138,1.1517577171325684,-1.0397480726242065,2023-10-21T14:56:49.558674Z,1697900209558
0.36742374300956726,1.1185007095336914,-0.9438347220420837,2023-10-21T14:56:49.569669Z,1697900209569
0.24304243922233582,1.087372064590454,-0.8585637211799622,2023-10-21T14:56:49.578900Z,1697900209578
0.13542266190052032,1.0579729080200195,-0.7873936295509338,2023-10-21T14:56:49.590042Z,1697900209589
0.044431403279304504,1.0296379327774048,-0.7309896945953369,2023-10-21T14:56:49.601384Z,1697900209601
-0.03139464557170868,1.0017019510269165,-0.6881546378135681,2023-10-21T14:56:49.610061Z,1697900209610
-0.09458301961421967,0.9737660884857178,-0.6555627584457397,2023-10-21T14:56:49.619542Z,1697900209619
-0.148193359375,0.9459632039070129,-0.6292231678962708,2023-10-21T14:56:49.630252Z,1697900209630
-0.1948862373828888,0.9181603193283081,-0.604080855846405,2023-10-21T14:56:49.639836Z,1697900209639
-0.2371891885995865,0.8896923065185547,-0.5765439867973328,2023-10-21T14:56:49.651779Z,1697900209651
-0.27523523569107056,0.8601600527763367,-0.5442181825637817,2023-10-21T14:56:49.660008Z,1697900209659
-0.30756109952926636,0.8298296332359314,-0.5075023770332336,2023-10-21T14:56:49.671120Z,1697900209671
-0.33283644914627075,0.7981688976287842,-0.4674609303474426,2023-10-21T14:56:49.680218Z,1697900209680
-0.3502631187438965,0.7638476490974426,-0.42569008469581604,2023-10-21T14:56:49.691437Z,1697900209691
-0.35811179876327515,0.7269988656044006,-0.38618072867393494,2023-10-21T14:56:49.701426Z,1697900209701
-0.35199248790740967,0.6898840069770813,-0.35438698530197144,2023-10-21T14:56:49.711439Z,1697900209711
-0.3281804621219635,0.6551636457443237,-0.3354969918727875,2023-10-21T14:56:49.720838Z,1697900209720
-0.28773990273475647,0.622704803943634,-0.33177220821380615,2023-10-21T14:56:49.735594Z,1697900209735
-0.23426257073879242,0.5897138118743896,-0.34268051385879517,2023-10-21T14:56:49.741074Z,1697900209741
-0.17080815136432648,0.5539292097091675,-0.36742374300956726,2023-10-21T14:56:49.752124Z,1697900209752
-0.09737660735845566,0.5142868161201477,-0.4057358503341675,2023-10-21T14:56:49.761306Z,1697900209761
-0.012504646554589272,0.4713187515735626,-0.4584150016307831,2023-10-21T14:56:49.772623Z,1697900209772
0.08513801544904709,0.42515796422958374,-0.5265254378318787,2023-10-21T14:56:49.784581Z,1697900209784
0.19555138051509857,0.3758045434951782,-0.611397385597229,2023-10-21T14:56:49.792445Z,1697900209792
0.3172721564769745,0.32299235463142395,-0.7106363773345947,2023-10-21T14:56:49.801861Z,1697900209801
0.44857093691825867,0.2679187059402466,-0.818256139755249,2023-10-21T14:56:49.812675Z,1697900209812
0.5869202017784119,0.21364320814609528,-0.9241465926170349,2023-10-21T14:56:49.822215Z,1697900209822
0.7283291220664978,0.16269342601299286,-1.0185965299606323,2023-10-21T14:56:49.835101Z,1697900209835
0.8692059516906738,0.11772991716861725,-1.0954868793487549,2023-10-21T14:56:49.842368Z,1697900209842
1.007289171218872,0.08101414144039154,-1.1537531614303589,2023-10-21T14:56:49.853369Z,1697900209853
1.1417806148529053,0.053477317094802856,-1.1976524591445923,2023-10-21T14:56:49.862567Z,1697900209862
1.2724143266677856,0.03432126343250275,-1.2321066856384277,2023-10-21T14:56:49.873765Z,1697900209873
1.3977267742156982,0.02008725143969059,-1.2609738111495972,2023-10-21T14:56:49.884669Z,1697900209884
1.5162549018859863,0.00864682998508215,-1.2866482734680176,2023-10-21T14:56:49.893827Z,1697900209893
1.6258701086044312,-0.0014633096288889647,-1.309529185295105,2023-10-21T14:56:49.903346Z,1697900209903
1.722847580909729,-0.009977111592888832,-1.3276209831237793,2023-10-21T14:56:49.913981Z,1697900209913
1.8026645183563232,-0.01636246219277382,-1.336932897567749,2023-10-21T14:56:49.923528Z,1697900209923
1.86066472530365,-0.020220279693603516,-1.333740234375,2023-10-21T14:56:49.934749Z,1697900209934
1.8933897018432617,-0.021284503862261772,-1.3167126178741455,2023-10-21T14:56:49.943693Z,1697900209943
1.8973805904388428,-0.01942211017012596,-1.286914348602295,2023-10-21T14:56:49.954817Z,1697900209954
1.871040940284729,-0.014899153262376785,-1.2475379705429077,2023-10-21T14:56:49.963889Z,1697900209963
1.8143709897994995,-0.00971105508506298,-1.2003129720687866,2023-10-21T14:56:49.975080Z,1697900209975
1.728301763534546,-0.007582604885101318,-1.1453723907470703,2023-10-21T14:56:49.984510Z,1697900209984
1.615094780921936,-0.009977111592888832,-1.084179401397705,2023-10-21T14:56:49.995097Z,1697900209995
1.4772776365280151,-0.016761546954512596,-1.0212571620941162,2023-10-21T14:56:50.004563Z,1697900210004
1.3169786930084229,-0.028468023985624313,-0.9628577828407288,2023-10-21T14:56:50.018205Z,1697900210018
1.1360604763031006,-0.04802316427230835,-0.9156327843666077,2023-10-21T14:56:50.024789Z,1697900210024
0.9379814863204956,-0.07782147079706192,-0.8854354023933411,2023-10-21T14:56:50.035843Z,1697900210035
0.7297924160957336,-0.11812900006771088,-0.8767885565757751,2023-10-21T14:56:50.045Z,1697900210044
0.5197409987449646,-0.1678815335035324,-0.892352819442749,2023-10-21T14:56:50.056152Z,1697900210056
0.31687304377555847,-0.22534969449043274,-0.9345227479934692,2023-10-21T14:56:50.067678Z,1697900210067
0.127840057015419,-0.29000136256217957,-1.0050276517868042,2023-10-21T14:56:50.076112Z,1697900210076
-0.04802316427230835,-0.36409804224967957,-1.1069272756576538,2023-10-21T14:56:50.085562Z,1697900210085
-0.21803313493728638,-0.45136451721191406,-1.2432811260223389,2023-10-21T14:56:50.096290Z,1697900210096
-0.3896394670009613,-0.5528650283813477,-1.4104975461959839,2023-10-21T14:56:50.105885Z,1697900210105
-0.5601815581321716,-0.6630123257637024,-1.5948745012283325,2023-10-21T14:56:50.118104Z,1697900210118
-0.7143611907958984,-0.7700999975204468,-1.7756597995758057,2023-10-21T14:56:50.126076Z,1697900210126
-0.8354167938232422,-0.8621554374694824,-1.9322339296340942,2023-10-21T14:56:50.137092Z,1697900210137
-0.9115089178085327,-0.930531919002533,-2.0427803993225098,2023-10-21T14:56:50.146208Z,1697900210146
-0.9367842674255371,-0.9699082374572754,-2.083885908126831,2023-10-21T14:56:50.157416Z,1697900210157
-0.9093804359436035,-0.9765596389770508,-2.0377252101898193,2023-10-21T14:56:50.167643Z,1697900210167
-0.8323571681976318,-0.9503531455993652,-1.8993759155273438,2023-10-21T14:56:50.177423Z,1697900210177
-0.7252694964408875,-0.8614903092384338,-1.674558401107788,2023-10-21T14:56:50.186903Z,1697900210186
-0.5951679348945618,-0.7956413626670837,-1.3849561214447021,2023-10-21T14:56:50.201445Z,1697900210201
-0.463204026222229,-0.7574623227119446,-1.0481288433074951,2023-10-21T14:56:50.207188Z,1697900210207
-0.35372185707092285,-0.6801729202270508,-0.6720582246780396,2023-10-21T14:56:50.218074Z,1697900210218
-0.24676722288131714,-0.604080855846405,-0.2781618535518646,2023-10-21T14:56:50.227429Z,1697900210227
-0.11121153831481934,-0.5157501697540283,0.10642252117395401,2023-10-21T14:56:50.238490Z,1697900210238
0.06119294837117195,-0.4082633852958679,0.46347007155418396,2023-10-21T14:56:50.250932Z,1697900210250
0.23665708303451538,-0.2951894700527191,0.8037561178207397,2023-10-21T14:56:50.258477Z,1697900210258
0.36915311217308044,-0.19674864411354065,1.1742395162582397,2023-10-21T14:56:50.267890Z,1697900210267
0.44471311569213867,-0.11906019598245621,1.6234755516052246,2023-10-21T14:56:50.278749Z,1697900210278
0.46453431248664856,-0.06491773575544357,2.1585147380828857,2023-10-21T14:56:50.288257Z,1697900210288
0.3985523581504822,-0.05427548661828041,2.7514212131500244,2023-10-21T14:56:50.301377Z,1697900210301
0.20260187983512878,-0.11227575689554214,3.3662774562835693,2023-10-21T14:56:50.308423Z,1697900210308
0.2244184911251068,-0.08540407568216324,3.973151922225952,2023-10-21T14:56:50.319480Z,1697900210319
0.12491343170404434,-0.11772991716861725,4.509255409240723,2023-10-21T14:56:50.328637Z,1697900210328
-0.33735939860343933,-0.3088913559913635,4.866968154907227,2023-10-21T14:56:50.339843Z,1697900210339
-0.6848289370536804,-0.44152042269706726,4.983234405517578,2023-10-21T14:56:50.350870Z,1697900210350
-0.9278713464736938,-0.5148189663887024,4.904481887817383,2023-10-21T14:56:50.359818Z,1697900210359
-1.11969792842865,-0.5516677498817444,4.750302314758301,2023-10-21T14:56:50.369240Z,1697900210369
-1.302345633506775,-0.5737504363059998,4.616076946258545,2023-10-21T14:56:50.380004Z,1697900210379
-1.4880529642105103,-0.5890486836433411,4.5297417640686035,2023-10-21T14:56:50.389543Z,1697900210389
-1.6762877702713013,-0.5945028066635132,4.475998401641846,2023-10-21T14:56:50.401152Z,1697900210401
-1.8609308004379272,-0.5819981694221497,4.428374290466309,2023-10-21T14:56:50.409717Z,1697900210409
-2.0347986221313477,-0.544617235660553,4.369043827056885,2023-10-21T14:56:50.420794Z,1697900210420
-2.1887121200561523,-0.47943344712257385,4.288694381713867,2023-10-21T14:56:50.429919Z,1697900210429
-2.30936861038208,-0.38671284914016724,4.17721700668335,2023-10-21T14:56:50.441098Z,1697900210441
-2.3789424896240234,-0.2695150375366211,4.022372245788574,2023-10-21T14:56:50.450765Z,1697900210450
-2.377479076385498,-0.13435843586921692,3.8148484230041504,2023-10-21T14:56:50.461067Z,1697900210461
