ACC_X,ACC_Y,ACC_Z,DATE,UNIX_TIMESTAMP
0.04763960838317871,0.23378562927246094,0.015816569328308105,2023-10-21T14:56:38.727259Z,1697900198727
0.06688904762268066,0.2924947738647461,0.014628171920776367,2023-10-21T14:56:38.747586Z,1697900198747
0.09839367866516113,0.37660980224609375,0.012213349342346191,2023-10-21T14:56:38.767836Z,1697900198767
0.10193777084350586,0.3694324493408203,0.00554320216178894,2023-10-21T14:56:38.788002Z,1697900198787
0.07247710227966309,0.2836923599243164,0.00538402795791626,2023-10-21T14:56:38.808305Z,1697900198808
0.028585195541381836,0.13503646850585938,0.0033754706382751465,2023-10-21T14:56:38.828615Z,1697900198828
0.020627617835998535,0.10199546813964844,0.003963470458984375,2023-10-21T14:56:38.848903Z,1697900198848
0.0290224552154541,0.13556480407714844,0.00847768783569336,2023-10-21T14:56:38.869174Z,1697900198869
0.055948495864868164,0.23868751525878906,0.01671236753463745,2023-10-21T14:56:38.891697Z,1697900198891
0.05799412727355957,0.24536514282226562,0.018142521381378174,2023-10-21T14:56:38.909686Z,1697900198909
0.05712103843688965,0.24285507202148438,0.010985076427459717,2023-10-21T14:56:38.930049Z,1697900198930
0.05611586570739746,0.23888683319091797,0.011089950799942017,2023-10-21T14:56:38.950294Z,1697900198950
0.05317115783691406,0.22951698303222656,0.011333316564559937,2023-10-21T14:56:38.970450Z,1697900198970
0.04995393753051758,0.22005176544189453,0.011861443519592285,2023-10-21T14:56:38.991085Z,1697900198991
0.04820108413696289,0.21470069885253906,0.012290477752685547,2023-10-21T14:56:39.011078Z,1697900199011
0.05067753791809082,0.22366714477539062,0.013194262981414795,2023-10-21T14:56:39.031428Z,1697900199031
0.054430246353149414,0.23648548126220703,0.013803422451019287,2023-10-21T14:56:39.051701Z,1697900199051
0.05848050117492676,0.2513885498046875,0.013819336891174316,2023-10-21T14:56:39.074702Z,1697900199074
0.057634592056274414,0.24837684631347656,0.012729287147521973,2023-10-21T14:56:39.092088Z,1697900199092
0.05602407455444336,0.24261856079101562,0.01162940263748169,2023-10-21T14:56:39.112444Z,1697900199112
0.05351686477661133,0.23256397247314453,0.010746091604232788,2023-10-21T14:56:39.132737Z,1697900199132
0.05179238319396973,0.22489166259765625,0.010180652141571045,2023-10-21T14:56:39.153032Z,1697900199152
0.05059409141540527,0.2193775177001953,0.009678065776824951,2023-10-21T14:56:39.174945Z,1697900199174
0.050391435623168945,0.21748638153076172,0.009428411722183228,2023-10-21T14:56:39.193409Z,1697900199193
0.0525815486907959,0.22573471069335938,0.009735405445098877,2023-10-21T14:56:39.213724Z,1697900199213
0.0553898811340332,0.23658466339111328,0.010612010955810547,2023-10-21T14:56:39.233941Z,1697900199233
0.057743072509765625,0.24687957763671875,0.011787593364715576,2023-10-21T14:56:39.254088Z,1697900199254
0.05835533142089844,0.2504291534423828,0.01283562183380127,2023-10-21T14:56:39.274394Z,1697900199274
0.05978965759277344,0.25695037841796875,0.013964593410491943,2023-10-21T14:56:39.294757Z,1697900199294
0.06171894073486328,0.26401615142822266,0.014860332012176514,2023-10-21T14:56:39.314982Z,1697900199314
0.06432986259460449,0.2727813720703125,0.015666604042053223,2023-10-21T14:56:39.335226Z,1697900199335
0.06699728965759277,0.28215503692626953,0.01630622148513794,2023-10-21T14:56:39.357518Z,1697900199357
0.06792569160461426,0.2854166030883789,0.01660388708114624,2023-10-21T14:56:39.375761Z,1697900199375
0.06712985038757324,0.2832307815551758,0.016421198844909668,2023-10-21T14:56:39.396068Z,1697900199396
0.056885719299316406,0.24461650848388672,0.01261436939239502,2023-10-21T14:56:39.416311Z,1697900199416
0.05704450607299805,0.2452068328857422,0.012747883796691895,2023-10-21T14:56:39.436513Z,1697900199436
0.057116031646728516,0.24535465240478516,0.012819528579711914,2023-10-21T14:56:39.457506Z,1697900199457
0.05719184875488281,0.24532318115234375,0.012829065322875977,2023-10-21T14:56:39.477132Z,1697900199477
0.05730462074279785,0.2452239990234375,0.012765347957611084,2023-10-21T14:56:39.497422Z,1697900199497
0.05739903450012207,0.24497032165527344,0.012647688388824463,2023-10-21T14:56:39.517666Z,1697900199517
0.057311058044433594,0.24405765533447266,0.0124644935131073,2023-10-21T14:56:39.537818Z,1697900199537
0.05706644058227539,0.24262142181396484,0.0122641921043396,2023-10-21T14:56:39.558152Z,1697900199558
0.056728363037109375,0.24087238311767578,0.012083351612091064,2023-10-21T14:56:39.578469Z,1697900199578
0.056528329849243164,0.23965167999267578,0.011975735425949097,2023-10-21T14:56:39.598659Z,1697900199598
0.05648994445800781,0.23907184600830078,0.01194685697555542,2023-10-21T14:56:39.618930Z,1697900199618
0.056616783142089844,0.23920631408691406,0.011987179517745972,2023-10-21T14:56:39.640890Z,1697900199640
0.05683755874633789,0.23980140686035156,0.01207473874092102,2023-10-21T14:56:39.659544Z,1697900199659
0.057119131088256836,0.2407054901123047,0.012204349040985107,2023-10-21T14:56:39.679834Z,1697900199679
0.05747389793395996,0.241973876953125,0.012365728616714478,2023-10-21T14:56:39.700046Z,1697900199700
0.057831525802612305,0.24332523345947266,0.012533783912658691,2023-10-21T14:56:39.720322Z,1697900199720
0.0580441951751709,0.24417972564697266,0.012658357620239258,2023-10-21T14:56:39.740531Z,1697900199740
0.058080434799194336,0.24428939819335938,0.012715756893157959,2023-10-21T14:56:39.760836Z,1697900199760
0.05791616439819336,0.24350833892822266,0.012690424919128418,2023-10-21T14:56:39.781150Z,1697900199781
0.057650089263916016,0.2422170639038086,0.012596726417541504,2023-10-21T14:56:39.801340Z,1697900199801
0.05736494064331055,0.2408275604248047,0.01246553659439087,2023-10-21T14:56:39.823882Z,1697900199823
0.05703902244567871,0.2393341064453125,0.01230776309967041,2023-10-21T14:56:39.841845Z,1697900199841
0.05666184425354004,0.2376852035522461,0.012133359909057617,2023-10-21T14:56:39.862158Z,1697900199862
0.05628061294555664,0.2360057830810547,0.01195073127746582,2023-10-21T14:56:39.882393Z,1697900199882
0.055899858474731445,0.23419952392578125,0.011765241622924805,2023-10-21T14:56:39.902583Z,1697900199902
0.05557417869567871,0.2325124740600586,0.011592477560043335,2023-10-21T14:56:39.923811Z,1697900199923
0.05545163154602051,0.23159027099609375,0.01146632432937622,2023-10-21T14:56:39.943211Z,1697900199943
0.05550217628479004,0.23143386840820312,0.011386901140213013,2023-10-21T14:56:39.963515Z,1697900199963
0.055765390396118164,0.2322235107421875,0.011361241340637207,2023-10-21T14:56:39.983721Z,1697900199983
0.05609440803527832,0.23337554931640625,0.011365652084350586,2023-10-21T14:56:40.003941Z,1697900200003
0.05641579627990723,0.23450946807861328,0.011377453804016113,2023-10-21T14:56:40.024220Z,1697900200024
0.056763648986816406,0.23572540283203125,0.011406779289245605,2023-10-21T14:56:40.044536Z,1697900200044
0.057060956954956055,0.23673725128173828,0.011445224285125732,2023-10-21T14:56:40.064808Z,1697900200064
0.05723977088928223,0.23730182647705078,0.011488676071166992,2023-10-21T14:56:40.084997Z,1697900200084
0.05729842185974121,0.23745059967041016,0.011544793844223022,2023-10-21T14:56:40.106895Z,1697900200106
0.05724072456359863,0.23718547821044922,0.011604875326156616,2023-10-21T14:56:40.125507Z,1697900200125
0.05712437629699707,0.23673725128173828,0.011668801307678223,2023-10-21T14:56:40.145834Z,1697900200145
0.05707573890686035,0.23659801483154297,0.01174849271774292,2023-10-21T14:56:40.166087Z,1697900200166
0.05722379684448242,0.2372283935546875,0.011853784322738647,2023-10-21T14:56:40.186290Z,1697900200186
0.0576014518737793,0.23865222930908203,0.011980891227722168,2023-10-21T14:56:40.206804Z,1697900200206
0.0580906867980957,0.2402811050415039,0.012103646993637085,2023-10-21T14:56:40.226893Z,1697900200226
0.058670759201049805,0.24195384979248047,0.012184947729110718,2023-10-21T14:56:40.247189Z,1697900200247
0.05936026573181152,0.24367809295654297,0.012195348739624023,2023-10-21T14:56:40.267391Z,1697900200267
0.0602574348449707,0.2458028793334961,0.012114763259887695,2023-10-21T14:56:40.290971Z,1697900200290
0.06122398376464844,0.24773597717285156,0.011910021305084229,2023-10-21T14:56:40.308693Z,1697900200308
0.06201767921447754,0.2484912872314453,0.011546999216079712,2023-10-21T14:56:40.328242Z,1697900200328
0.0624852180480957,0.24743938446044922,0.01103028655052185,2023-10-21T14:56:40.348509Z,1697900200348
0.06259489059448242,0.24447059631347656,0.010374695062637329,2023-10-21T14:56:40.368772Z,1697900200368
0.06237316131591797,0.23982620239257812,0.009615659713745117,2023-10-21T14:56:40.391134Z,1697900200391
0.06190896034240723,0.2340984344482422,0.008781790733337402,2023-10-21T14:56:40.409278Z,1697900200409
0.06137251853942871,0.22814273834228516,0.007906824350357056,2023-10-21T14:56:40.429516Z,1697900200429
0.06078982353210449,0.22214984893798828,0.007023990154266357,2023-10-21T14:56:40.449792Z,1697900200449
0.06023883819580078,0.21641159057617188,0.006175577640533447,2023-10-21T14:56:40.470001Z,1697900200469
0.05974173545837402,0.2110137939453125,0.005378589034080505,2023-10-21T14:56:40.490670Z,1697900200490
0.05958127975463867,0.20690536499023438,0.0046570152044296265,2023-10-21T14:56:40.510566Z,1697900200510
0.06011152267456055,0.2052440643310547,0.004010200500488281,2023-10-21T14:56:40.530867Z,1697900200530
0.061449289321899414,0.20633792877197266,0.0034140944480895996,2023-10-21T14:56:40.551076Z,1697900200551
0.06355524063110352,0.20995807647705078,0.0028389394283294678,2023-10-21T14:56:40.573918Z,1697900200573
0.0662546157836914,0.2154245376586914,0.002255059778690338,2023-10-21T14:56:40.591642Z,1697900200591
0.06937813758850098,0.2220907211303711,0.0016372054815292358,2023-10-21T14:56:40.611978Z,1697900200611
0.07281756401062012,0.229461669921875,9.751543402671814E-4,2023-10-21T14:56:40.632217Z,1697900200632
0.07646322250366211,0.2370443344116211,2.576485276222229E-4,2023-10-21T14:56:40.652412Z,1697900200652
0.0801081657409668,0.24414920806884766,-5.235224962234497E-4,2023-10-21T14:56:40.673914Z,1697900200673
0.08333826065063477,0.2495574951171875,-0.00135740265250206,2023-10-21T14:56:40.693037Z,1697900200692
0.08581686019897461,0.2523841857910156,-0.00223580002784729,2023-10-21T14:56:40.713243Z,1697900200713
0.08762168884277344,0.2528972625732422,-0.0031559765338897705,2023-10-21T14:56:40.733453Z,1697900200733
0.08900308609008789,0.2518730163574219,-0.004122644662857056,2023-10-21T14:56:40.753662Z,1697900200753
0.08996415138244629,0.24944496154785156,-0.005114257335662842,2023-10-21T14:56:40.773969Z,1697900200773
0.09040665626525879,0.24552345275878906,-0.006085604429244995,2023-10-21T14:56:40.794289Z,1697900200794
0.09027624130249023,0.24012470245361328,-0.006997495889663696,2023-10-21T14:56:40.814537Z,1697900200814
0.08983612060546875,0.23406696319580078,-0.007861435413360596,2023-10-21T14:56:40.834785Z,1697900200834
0.08941030502319336,0.2282867431640625,-0.008725762367248535,2023-10-21T14:56:40.857162Z,1697900200857
0.08922839164733887,0.22341442108154297,-0.009624719619750977,2023-10-21T14:56:40.875341Z,1697900200875
0.08962059020996094,0.22021961212158203,-0.010602831840515137,2023-10-21T14:56:40.895606Z,1697900200895
0.09074211120605469,0.21896648406982422,-0.01168125867843628,2023-10-21T14:56:40.916018Z,1697900200915
0.09227252006530762,0.21879100799560547,-0.012801587581634521,2023-10-21T14:56:40.936122Z,1697900200936
0.09394264221191406,0.21901226043701172,-0.01393193006515503,2023-10-21T14:56:40.957155Z,1697900200957
0.09583306312561035,0.2197437286376953,-0.015093684196472168,2023-10-21T14:56:40.976672Z,1697900200976
0.0980219841003418,0.22109127044677734,-0.016300618648529053,2023-10-21T14:56:40.996960Z,1697900200996
0.10040140151977539,0.22278213500976562,-0.017539680004119873,2023-10-21T14:56:41.017276Z,1697900201017
0.10248184204101562,0.22373485565185547,-0.018708765506744385,2023-10-21T14:56:41.041428Z,1697900201041
0.10408687591552734,0.22359657287597656,-0.019773900508880615,2023-10-21T14:56:41.058628Z,1697900201058
0.1053004264831543,0.22256851196289062,-0.02075648307800293,2023-10-21T14:56:41.077996Z,1697900201077
0.10618162155151367,0.22080516815185547,-0.021685123443603516,2023-10-21T14:56:41.098280Z,1697900201098
0.10680341720581055,0.218505859375,-0.022583365440368652,2023-10-21T14:56:41.118418Z,1697900201118
0.10753679275512695,0.2164297103881836,-0.023538947105407715,2023-10-21T14:56:41.140188Z,1697900201140
0.10847711563110352,0.21477127075195312,-0.024559617042541504,2023-10-21T14:56:41.159015Z,1697900201158
0.10954570770263672,0.21338748931884766,-0.02561044692993164,2023-10-21T14:56:41.179344Z,1697900201179
0.11078214645385742,0.21239566802978516,-0.02669823169708252,2023-10-21T14:56:41.199641Z,1697900201199
0.11209440231323242,0.21168899536132812,-0.02780628204345703,2023-10-21T14:56:41.219762Z,1697900201219
0.11345529556274414,0.21131229400634766,-0.028928041458129883,2023-10-21T14:56:41.240202Z,1697900201240
0.11456680297851562,0.21078205108642578,-0.02995133399963379,2023-10-21T14:56:41.260350Z,1697900201260
0.11544561386108398,0.21013832092285156,-0.030840516090393066,2023-10-21T14:56:41.280625Z,1697900201280
0.11640310287475586,0.20993423461914062,-0.031665921211242676,2023-10-21T14:56:41.300951Z,1697900201300
0.11757135391235352,0.21038818359375,-0.032471418380737305,2023-10-21T14:56:41.323899Z,1697900201323
0.11868143081665039,0.21103382110595703,-0.033190369606018066,2023-10-21T14:56:41.341391Z,1697900201341
0.11957550048828125,0.21157360076904297,-0.03378951549530029,2023-10-21T14:56:41.361674Z,1697900201361
0.12016725540161133,0.21181392669677734,-0.0342484712600708,2023-10-21T14:56:41.381957Z,1697900201381
0.12025260925292969,0.2113332748413086,-0.03450906276702881,2023-10-21T14:56:41.402134Z,1697900201402
0.11992692947387695,0.21020889282226562,-0.03459334373474121,2023-10-21T14:56:41.423274Z,1697900201423
0.11957025527954102,0.20898818969726562,-0.03461599349975586,2023-10-21T14:56:41.442701Z,1697900201442
0.1193699836730957,0.20790576934814453,-0.03464639186859131,2023-10-21T14:56:41.463012Z,1697900201462
0.11917352676391602,0.20670032501220703,-0.03466618061065674,2023-10-21T14:56:41.483281Z,1697900201483
0.11873579025268555,0.2049713134765625,-0.0346299409866333,2023-10-21T14:56:41.506816Z,1697900201506
0.11791706085205078,0.2025003433227539,-0.03450918197631836,2023-10-21T14:56:41.523763Z,1697900201523
0.11681270599365234,0.19947147369384766,-0.03433728218078613,2023-10-21T14:56:41.544052Z,1697900201544
0.1153564453125,0.1957998275756836,-0.0340803861618042,2023-10-21T14:56:41.564337Z,1697900201564
0.11365365982055664,0.19168472290039062,-0.033762335777282715,2023-10-21T14:56:41.584516Z,1697900201584
0.1121206283569336,0.18784046173095703,-0.03349745273590088,2023-10-21T14:56:41.606566Z,1697900201606
0.11094999313354492,0.18461894989013672,-0.03334689140319824,2023-10-21T14:56:41.625065Z,1697900201625
0.10983657836914062,0.18156719207763672,-0.03321516513824463,2023-10-21T14:56:41.645420Z,1697900201645
0.10872030258178711,0.17864227294921875,-0.03308403491973877,2023-10-21T14:56:41.665595Z,1697900201665
0.10774946212768555,0.17609786987304688,-0.03299534320831299,2023-10-21T14:56:41.685759Z,1697900201685
0.10720157623291016,0.17435646057128906,-0.033011794090270996,2023-10-21T14:56:41.706305Z,1697900201706
0.10747289657592773,0.1740255355834961,-0.03323698043823242,2023-10-21T14:56:41.726396Z,1697900201726
0.10849666595458984,0.17494869232177734,-0.033629655838012695,2023-10-21T14:56:41.746695Z,1697900201746
0.11016368865966797,0.17693614959716797,-0.03416776657104492,2023-10-21T14:56:41.766870Z,1697900201766
0.11215496063232422,0.17947959899902344,-0.034775495529174805,2023-10-21T14:56:41.789156Z,1697900201789
0.11395597457885742,0.18175697326660156,-0.03529965877532959,2023-10-21T14:56:41.807447Z,1697900201807
0.11545658111572266,0.18358993530273438,-0.03571903705596924,2023-10-21T14:56:41.827769Z,1697900201827
0.11686992645263672,0.18524456024169922,-0.036097168922424316,2023-10-21T14:56:41.847988Z,1697900201847
0.11839962005615234,0.1869964599609375,-0.03649020195007324,2023-10-21T14:56:41.868347Z,1697900201868
0.12012147903442383,0.18893814086914062,-0.03692328929901123,2023-10-21T14:56:41.889947Z,1697900201889
0.12183284759521484,0.19076824188232422,-0.03734457492828369,2023-10-21T14:56:41.908905Z,1697900201908
0.12307024002075195,0.19183635711669922,-0.03764486312866211,2023-10-21T14:56:41.929077Z,1697900201929
0.12353992462158203,0.19176483154296875,-0.037744998931884766,2023-10-21T14:56:41.949326Z,1697900201949
0.12323904037475586,0.19060325622558594,-0.037644386291503906,2023-10-21T14:56:41.969529Z,1697900201969
0.12247657775878906,0.18883132934570312,-0.037418365478515625,2023-10-21T14:56:41.989771Z,1697900201989
0.12164831161499023,0.1870279312133789,-0.03716766834259033,2023-10-21T14:56:42.010096Z,1697900202010
0.12100601196289062,0.18555927276611328,-0.03695833683013916,2023-10-21T14:56:42.030322Z,1697900202030
0.12067317962646484,0.18463516235351562,-0.03684103488922119,2023-10-21T14:56:42.050570Z,1697900202050
0.1205282211303711,0.18408870697021484,-0.03677809238433838,2023-10-21T14:56:42.072710Z,1697900202072
0.12039947509765625,0.18367290496826172,-0.036705613136291504,2023-10-21T14:56:42.091112Z,1697900202091
0.12026357650756836,0.18334293365478516,-0.036602020263671875,2023-10-21T14:56:42.111461Z,1697900202111
0.12036418914794922,0.18341350555419922,-0.03652536869049072,2023-10-21T14:56:42.131682Z,1697900202131
0.12085294723510742,0.1840534210205078,-0.03652536869049072,2023-10-21T14:56:42.151905Z,1697900202151
0.1218113899230957,0.18534469604492188,-0.03664708137512207,2023-10-21T14:56:42.172639Z,1697900202172
0.12311458587646484,0.18707942962646484,-0.036876559257507324,2023-10-21T14:56:42.192440Z,1697900202192
0.12458562850952148,0.1889963150024414,-0.03718411922454834,2023-10-21T14:56:42.212749Z,1697900202212
0.12585830688476562,0.19055843353271484,-0.03748035430908203,2023-10-21T14:56:42.232975Z,1697900202232
0.1266627311706543,0.19136714935302734,-0.037691473960876465,2023-10-21T14:56:42.255512Z,1697900202255
0.1271347999572754,0.19161510467529297,-0.03785538673400879,2023-10-21T14:56:42.273494Z,1697900202273
0.12761831283569336,0.19181346893310547,-0.03808426856994629,2023-10-21T14:56:42.293806Z,1697900202293
0.1284637451171875,0.19248676300048828,-0.038466572761535645,2023-10-21T14:56:42.314050Z,1697900202314
0.12953901290893555,0.1934652328491211,-0.03894853591918945,2023-10-21T14:56:42.334223Z,1697900202334
0.13072729110717773,0.19463825225830078,-0.039470791816711426,2023-10-21T14:56:42.356050Z,1697900202356
0.1317591667175293,0.19565486907958984,-0.03991198539733887,2023-10-21T14:56:42.374852Z,1697900202374
0.13248634338378906,0.1963357925415039,-0.04020416736602783,2023-10-21T14:56:42.395130Z,1697900202395
0.1332406997680664,0.1971759796142578,-0.04043567180633545,2023-10-21T14:56:42.415364Z,1697900202415
0.13452482223510742,0.19889163970947266,-0.04075503349304199,2023-10-21T14:56:42.435546Z,1697900202435
0.1365795135498047,0.2018108367919922,-0.041245460510253906,2023-10-21T14:56:42.455846Z,1697900202455
0.13909149169921875,0.20547199249267578,-0.04181957244873047,2023-10-21T14:56:42.476182Z,1697900202476
0.1414332389831543,0.20897197723388672,-0.04230976104736328,2023-10-21T14:56:42.496441Z,1697900202496
0.14295101165771484,0.2113628387451172,-0.04255115985870361,2023-10-21T14:56:42.516669Z,1697900202516
0.1435565948486328,0.21250343322753906,-0.04254806041717529,2023-10-21T14:56:42.539315Z,1697900202539
0.1432957649230957,0.2124042510986328,-0.0423281192779541,2023-10-21T14:56:42.557193Z,1697900202557
0.14256858825683594,0.21159934997558594,-0.04202735424041748,2023-10-21T14:56:42.577497Z,1697900202577
0.14176177978515625,0.21060943603515625,-0.041773080825805664,2023-10-21T14:56:42.597775Z,1697900202597
0.14072179794311523,0.20919227600097656,-0.041521668434143066,2023-10-21T14:56:42.618022Z,1697900202617
0.13912391662597656,0.20689868927001953,-0.04116654396057129,2023-10-21T14:56:42.639188Z,1697900202639
0.13682270050048828,0.20356369018554688,-0.04063308238983154,2023-10-21T14:56:42.658526Z,1697900202658
0.13404035568237305,0.1995410919189453,-0.039957642555236816,2023-10-21T14:56:42.678846Z,1697900202678
0.13122987747192383,0.19549274444580078,-0.03924691677093506,2023-10-21T14:56:42.699074Z,1697900202699
0.12879276275634766,0.19198322296142578,-0.03861081600189209,2023-10-21T14:56:42.722366Z,1697900202722
0.12705278396606445,0.18946075439453125,-0.03814268112182617,2023-10-21T14:56:42.739571Z,1697900202739
0.1262216567993164,0.18824481964111328,-0.037898898124694824,2023-10-21T14:56:42.759884Z,1697900202759
0.12595510482788086,0.18787097930908203,-0.0377732515335083,2023-10-21T14:56:42.780171Z,1697900202780
0.1255941390991211,0.1874217987060547,-0.03755521774291992,2023-10-21T14:56:42.800314Z,1697900202800
0.12475824356079102,0.1863555908203125,-0.037137746810913086,2023-10-21T14:56:42.822144Z,1697900202822
0.12367010116577148,0.1849651336669922,-0.03660857677459717,2023-10-21T14:56:42.840892Z,1697900202840
0.12275218963623047,0.18381977081298828,-0.036138176918029785,2023-10-21T14:56:42.861193Z,1697900202861
0.1222238540649414,0.1832132339477539,-0.03582882881164551,2023-10-21T14:56:42.881444Z,1697900202881
0.12185144424438477,0.1827840805053711,-0.03562653064727783,2023-10-21T14:56:42.901666Z,1697900202901
0.12106180191040039,0.18170738220214844,-0.0353550910949707,2023-10-21T14:56:42.921995Z,1697900202921
0.11937093734741211,0.17926883697509766,-0.03485226631164551,2023-10-21T14:56:42.942273Z,1697900202942
0.11684322357177734,0.1755523681640625,-0.03412652015686035,2023-10-21T14:56:42.962509Z,1697900202962
0.11415815353393555,0.17153358459472656,-0.033371925354003906,2023-10-21T14:56:42.982705Z,1697900202982
0.11216211318969727,0.16844558715820312,-0.032845258712768555,2023-10-21T14:56:43.005639Z,1697900203005
0.11133193969726562,0.16700172424316406,-0.03267180919647217,2023-10-21T14:56:43.023275Z,1697900203023
0.11155366897583008,0.1670379638671875,-0.032796263694763184,2023-10-21T14:56:43.043595Z,1697900203043
0.11261177062988281,0.16825389862060547,-0.033129096031188965,2023-10-21T14:56:43.063807Z,1697900203063
0.11412191390991211,0.1701040267944336,-0.03353559970855713,2023-10-21T14:56:43.084011Z,1697900203083
0.11594486236572266,0.17239856719970703,-0.033966064453125,2023-10-21T14:56:43.105079Z,1697900203105
0.11816692352294922,0.1752920150756836,-0.0344620943069458,2023-10-21T14:56:43.124602Z,1697900203124
0.1208353042602539,0.17887020111083984,-0.03506433963775635,2023-10-21T14:56:43.144874Z,1697900203144
0.12387323379516602,0.18302440643310547,-0.03577589988708496,2023-10-21T14:56:43.165084Z,1697900203165
0.12685823440551758,0.18714046478271484,-0.036488890647888184,2023-10-21T14:56:43.185304Z,1697900203185
0.12939023971557617,0.19063854217529297,-0.03709566593170166,2023-10-21T14:56:43.205610Z,1697900203205
0.13124322891235352,0.19320106506347656,-0.037535667419433594,2023-10-21T14:56:43.225913Z,1697900203225
0.13215017318725586,0.19446372985839844,-0.03774404525756836,2023-10-21T14:56:43.246119Z,1697900203246
0.13196992874145508,0.19420528411865234,-0.037690043449401855,2023-10-21T14:56:43.266383Z,1697900203266
0.13099098205566406,0.19278812408447266,-0.03746473789215088,2023-10-21T14:56:43.288667Z,1697900203288
0.12971210479736328,0.19086265563964844,-0.03719806671142578,2023-10-21T14:56:43.306939Z,1697900203306
0.12841463088989258,0.1887960433959961,-0.03696322441101074,2023-10-21T14:56:43.327278Z,1697900203327
0.12711811065673828,0.1866130828857422,-0.03673577308654785,2023-10-21T14:56:43.347461Z,1697900203347
0.1255474090576172,0.1839437484741211,-0.03641819953918457,2023-10-21T14:56:43.367670Z,1697900203367
0.12367820739746094,0.18078327178955078,-0.03599393367767334,2023-10-21T14:56:43.388513Z,1697900203388
0.12180042266845703,0.17755699157714844,-0.03554642200469971,2023-10-21T14:56:43.408281Z,1697900203408
0.12031078338623047,0.17483186721801758,-0.03520989418029785,2023-10-21T14:56:43.428587Z,1697900203428
0.11970996856689453,0.17331695556640625,-0.035140395164489746,2023-10-21T14:56:43.448759Z,1697900203448
0.12019538879394531,0.17329692840576172,-0.035393595695495605,2023-10-21T14:56:43.471560Z,1697900203471
0.1217193603515625,0.17472267150878906,-0.03594791889190674,2023-10-21T14:56:43.489293Z,1697900203489
0.12403249740600586,0.1772599220275879,-0.03672444820404053,2023-10-21T14:56:43.509601Z,1697900203509
0.12716388702392578,0.18094921112060547,-0.03772687911987305,2023-10-21T14:56:43.529843Z,1697900203529
0.13127756118774414,0.18600749969482422,-0.039012789726257324,2023-10-21T14:56:43.550078Z,1697900203550
0.13633060455322266,0.19234800338745117,-0.0405881404876709,2023-10-21T14:56:43.571837Z,1697900203571
0.1421222686767578,0.19964981079101562,-0.04240000247955322,2023-10-21T14:56:43.590672Z,1697900203590
0.14815187454223633,0.20719528198242188,-0.04429352283477783,2023-10-21T14:56:43.610931Z,1697900203610
0.15425443649291992,0.21471834182739258,-0.046199798583984375,2023-10-21T14:56:43.631177Z,1697900203631
0.16073894500732422,0.22262334823608398,-0.048197150230407715,2023-10-21T14:56:43.651380Z,1697900203651
0.16785669326782227,0.2312335968017578,-0.05034744739532471,2023-10-21T14:56:43.671683Z,1697900203671
0.17557716369628906,0.2405071258544922,-0.052634358406066895,2023-10-21T14:56:43.691977Z,1697900203691
0.18355655670166016,0.25000619888305664,-0.05493736267089844,2023-10-21T14:56:43.712285Z,1697900203712
0.19118976593017578,0.2589874267578125,-0.05707216262817383,2023-10-21T14:56:43.732458Z,1697900203732
0.19812679290771484,0.2670469284057617,-0.05891561508178711,2023-10-21T14:56:43.755145Z,1697900203755
0.2040700912475586,0.2738823890686035,-0.06038069725036621,2023-10-21T14:56:43.773021Z,1697900203772
0.20865201950073242,0.27910423278808594,-0.06137216091156006,2023-10-21T14:56:43.793340Z,1697900203793
0.21166372299194336,0.28254222869873047,-0.06185305118560791,2023-10-21T14:56:43.813574Z,1697900203813
0.21289730072021484,0.28400325775146484,-0.0617985725402832,2023-10-21T14:56:43.833769Z,1697900203833
0.21222257614135742,0.2833433151245117,-0.06120014190673828,2023-10-21T14:56:43.854973Z,1697900203854
0.20983028411865234,0.28079891204833984,-0.060115814208984375,2023-10-21T14:56:43.874381Z,1697900203874
0.20607614517211914,0.27678394317626953,-0.05865442752838135,2023-10-21T14:56:43.894634Z,1697900203894
0.20139265060424805,0.2717862129211426,-0.05694007873535156,2023-10-21T14:56:43.914858Z,1697900203914
0.19622373580932617,0.26629066467285156,-0.055081725120544434,2023-10-21T14:56:43.938395Z,1697900203938
0.1907486915588379,0.26044368743896484,-0.05312836170196533,2023-10-21T14:56:43.955444Z,1697900203955
0.18516254425048828,0.2544260025024414,-0.05112659931182861,2023-10-21T14:56:43.975711Z,1697900203975
0.17961788177490234,0.24840068817138672,-0.04912221431732178,2023-10-21T14:56:43.995957Z,1697900203995
0.17411422729492188,0.24233436584472656,-0.04712080955505371,2023-10-21T14:56:44.016173Z,1697900204016
0.1683816909790039,0.23585987091064453,-0.04506731033325195,2023-10-21T14:56:44.037871Z,1697900204037
0.16196870803833008,0.22835445404052734,-0.042853593826293945,2023-10-21T14:56:44.056711Z,1697900204056
0.1545581817626953,0.21936798095703125,-0.04042327404022217,2023-10-21T14:56:44.077012Z,1697900204076
0.1460857391357422,0.2087841033935547,-0.03777742385864258,2023-10-21T14:56:44.097246Z,1697900204097
0.13673734664916992,0.19684171676635742,-0.034986019134521484,2023-10-21T14:56:44.117432Z,1697900204117
0.1266627311706543,0.18375110626220703,-0.03211104869842529,2023-10-21T14:56:44.138069Z,1697900204138
0.11576652526855469,0.16935443878173828,-0.02913355827331543,2023-10-21T14:56:44.158056Z,1697900204158
0.10410594940185547,0.15369415283203125,-0.026064634323120117,2023-10-21T14:56:44.178337Z,1697900204178
0.09198760986328125,0.13715648651123047,-0.022963523864746094,2023-10-21T14:56:44.198552Z,1697900204198
0.07992172241210938,0.1204214096069336,-0.019934654235839844,2023-10-21T14:56:44.221228Z,1697900204221
0.0685582160949707,0.10440826416015625,-0.01710498332977295,2023-10-21T14:56:44.239095Z,1697900204239
0.0584416389465332,0.08994674682617188,-0.014588475227355957,2023-10-21T14:56:44.259415Z,1697900204259
0.050096988677978516,0.07788562774658203,-0.012498021125793457,2023-10-21T14:56:44.279612Z,1697900204279
0.04417228698730469,0.06932258605957031,-0.010998368263244629,2023-10-21T14:56:44.299836Z,1697900204299
0.041059017181396484,0.06497383117675781,-0.010171651840209961,2023-10-21T14:56:44.321139Z,1697900204321
0.04076528549194336,0.0649576187133789,-0.010021805763244629,2023-10-21T14:56:44.340489Z,1697900204340
0.042845726013183594,0.06864166259765625,-0.01042187213897705,2023-10-21T14:56:44.360704Z,1697900204360
0.046692848205566406,0.07507610321044922,-0.011210083961486816,2023-10-21T14:56:44.380911Z,1697900204380
0.05180644989013672,0.0834512710571289,-0.012245893478393555,2023-10-21T14:56:44.401110Z,1697900204401
0.05793428421020508,0.09334659576416016,-0.013465166091918945,2023-10-21T14:56:44.421437Z,1697900204421
0.06490707397460938,0.10448646545410156,-0.014823079109191895,2023-10-21T14:56:44.441762Z,1697900204441
0.0724482536315918,0.11644363403320312,-0.01626908779144287,2023-10-21T14:56:44.461988Z,1697900204461
0.07990074157714844,0.12821292877197266,-0.017674803733825684,2023-10-21T14:56:44.482213Z,1697900204482
0.08636856079101562,0.13842201232910156,-0.018864154815673828,2023-10-21T14:56:44.504424Z,1697900204504
0.09122133255004883,0.1461200714111328,-0.01971256732940674,2023-10-21T14:56:44.522788Z,1697900204522
0.09456872940063477,0.151519775390625,-0.020247817039489746,2023-10-21T14:56:44.543082Z,1697900204543
0.09711647033691406,0.1557464599609375,-0.020615100860595703,2023-10-21T14:56:44.563406Z,1697900204563
0.09972763061523438,0.16018199920654297,-0.020984292030334473,2023-10-21T14:56:44.583525Z,1697900204583
0.10302019119262695,0.16582202911376953,-0.021473169326782227,2023-10-21T14:56:44.604471Z,1697900204604
0.10713768005371094,0.17290687561035156,-0.022092103958129883,2023-10-21T14:56:44.624097Z,1697900204624
0.11187267303466797,0.1810750961303711,-0.022770166397094727,2023-10-21T14:56:44.644385Z,1697900204644
0.11699724197387695,0.18991565704345703,-0.02343881130218506,2023-10-21T14:56:44.664612Z,1697900204664
0.12237739562988281,0.19913291931152344,-0.024048686027526855,2023-10-21T14:56:44.687772Z,1697900204687
0.1280665397644043,0.20873546600341797,-0.02460944652557373,2023-10-21T14:56:44.705128Z,1697900204705
0.13405466079711914,0.2186565399169922,-0.025132358074188232,2023-10-21T14:56:44.725450Z,1697900204725
0.14006710052490234,0.22843647003173828,-0.025595128536224365,2023-10-21T14:56:44.745725Z,1697900204745
0.14574432373046875,0.2375030517578125,-0.02596592903137207,2023-10-21T14:56:44.765918Z,1697900204765
0.15071582794189453,0.2452716827392578,-0.026225268840789795,2023-10-21T14:56:44.787357Z,1697900204787
0.1544966697692871,0.2509803771972656,-0.026323556900024414,2023-10-21T14:56:44.806531Z,1697900204806
0.15682220458984375,0.2542276382446289,-0.02624732255935669,2023-10-21T14:56:44.826775Z,1697900204826
0.15782737731933594,0.2552804946899414,-0.026029348373413086,2023-10-21T14:56:44.846960Z,1697900204846
0.15794849395751953,0.25490570068359375,-0.025747478008270264,2023-10-21T14:56:44.867245Z,1697900204867
0.15773248672485352,0.25404930114746094,-0.025495171546936035,2023-10-21T14:56:44.887524Z,1697900204887
0.1574091911315918,0.25312042236328125,-0.025296509265899658,2023-10-21T14:56:44.907794Z,1697900204907
0.15698862075805664,0.2521705627441406,-0.025146126747131348,2023-10-21T14:56:44.928094Z,1697900204928
0.15631389617919922,0.2509574890136719,-0.025008797645568848,2023-10-21T14:56:44.948309Z,1697900204948
0.15549325942993164,0.2496509552001953,-0.024885356426239014,2023-10-21T14:56:44.970719Z,1697900204970
0.1546778678894043,0.2484731674194336,-0.02478814125061035,2023-10-21T14:56:44.988851Z,1697900204988
0.15416669845581055,0.24788951873779297,-0.0247647762298584,2023-10-21T14:56:45.009142Z,1697900205009
0.15416479110717773,0.2482013702392578,-0.024860501289367676,2023-10-21T14:56:45.029399Z,1697900205029
0.15436315536499023,0.24891185760498047,-0.02503746747970581,2023-10-21T14:56:45.049592Z,1697900205049
0.15429973602294922,0.24926471710205078,-0.025237619876861572,2023-10-21T14:56:45.070782Z,1697900205070
0.15340232849121094,0.24831867218017578,-0.025366127490997314,2023-10-21T14:56:45.090207Z,1697900205090
0.1512908935546875,0.24542713165283203,-0.025351643562316895,2023-10-21T14:56:45.110451Z,1697900205110
0.1480545997619629,0.2406911849975586,-0.02520078420639038,2023-10-21T14:56:45.130680Z,1697900205130
0.14417362213134766,0.23485565185546875,-0.024968504905700684,2023-10-21T14:56:45.154112Z,1697900205154
0.14003229141235352,0.22852134704589844,-0.024711310863494873,2023-10-21T14:56:45.171227Z,1697900205171
0.13597726821899414,0.2222585678100586,-0.024480760097503662,2023-10-21T14:56:45.191549Z,1697900205191
0.13215017318725586,0.21630001068115234,-0.024282515048980713,2023-10-21T14:56:45.211770Z,1697900205211
0.12869882583618164,0.21090221405029297,-0.02413886785507202,2023-10-21T14:56:45.232001Z,1697900205231
0.12587690353393555,0.20647144317626953,-0.024099290370941162,2023-10-21T14:56:45.253742Z,1697900205253
0.12389516830444336,0.20335102081298828,-0.02421391010284424,2023-10-21T14:56:45.272532Z,1697900205272
0.12280702590942383,0.20161819458007812,-0.02449953556060791,2023-10-21T14:56:45.292846Z,1697900205292
0.12248516082763672,0.2010660171508789,-0.024938464164733887,2023-10-21T14:56:45.313058Z,1697900205313
0.12250280380249023,0.20101165771484375,-0.02544867992401123,2023-10-21T14:56:45.333270Z,1697900205333
0.12229681015014648,0.20055389404296875,-0.0259091854095459,2023-10-21T14:56:45.353841Z,1697900205353
0.1215829849243164,0.19925880432128906,-0.02626323699951172,2023-10-21T14:56:45.373876Z,1697900205373
0.12020444869995117,0.19687366485595703,-0.026468396186828613,2023-10-21T14:56:45.394156Z,1697900205394
0.11829853057861328,0.19364166259765625,-0.026546835899353027,2023-10-21T14:56:45.414379Z,1697900205414
0.11599254608154297,0.18976688385009766,-0.02651059627532959,2023-10-21T14:56:45.436952Z,1697900205436
0.11343050003051758,0.18547630310058594,-0.02637350559234619,2023-10-21T14:56:45.454922Z,1697900205454
0.11053657531738281,0.18062400817871094,-0.026093482971191406,2023-10-21T14:56:45.475222Z,1697900205475
0.1075143814086914,0.17552852630615234,-0.02570939064025879,2023-10-21T14:56:45.495440Z,1697900205495
0.1046757698059082,0.170684814453125,-0.02528250217437744,2023-10-21T14:56:45.515653Z,1697900205515
0.10239219665527344,0.16668701171875,-0.02490973472595215,2023-10-21T14:56:45.537136Z,1697900205537
0.10111808776855469,0.1642627716064453,-0.02471613883972168,2023-10-21T14:56:45.556282Z,1697900205556
0.10098123550415039,0.16359806060791016,-0.02473306655883789,2023-10-21T14:56:45.576531Z,1697900205576
0.10206747055053711,0.16481971740722656,-0.024994254112243652,2023-10-21T14:56:45.596813Z,1697900205596
0.10429811477661133,0.16778564453125,-0.02548503875732422,2023-10-21T14:56:45.617009Z,1697900205616
0.10731649398803711,0.1719074249267578,-0.026122450828552246,2023-10-21T14:56:45.637273Z,1697900205637
0.11069679260253906,0.1765146255493164,-0.0268096923828125,2023-10-21T14:56:45.657582Z,1697900205657
0.1140437126159668,0.18100643157958984,-0.027462005615234375,2023-10-21T14:56:45.677818Z,1697900205677
0.11699485778808594,0.18483638763427734,-0.027999401092529297,2023-10-21T14:56:45.698077Z,1697900205698
0.11930418014526367,0.18764781951904297,-0.02837848663330078,2023-10-21T14:56:45.720040Z,1697900205720
0.12085580825805664,0.1892843246459961,-0.028581976890563965,2023-10-21T14:56:45.738603Z,1697900205738
0.12167739868164062,0.18981361389160156,-0.028628826141357422,2023-10-21T14:56:45.758930Z,1697900205758
0.12181663513183594,0.18932723999023438,-0.028534412384033203,2023-10-21T14:56:45.779098Z,1697900205779
0.12128782272338867,0.18787097930908203,-0.028301596641540527,2023-10-21T14:56:45.799335Z,1697900205799
0.1201944351196289,0.18561935424804688,-0.02795720100402832,2023-10-21T14:56:45.820051Z,1697900205819
0.11886024475097656,0.18306732177734375,-0.027565479278564453,2023-10-21T14:56:45.840186Z,1697900205840
0.11776924133300781,0.18095111846923828,-0.027237534523010254,2023-10-21T14:56:45.860258Z,1697900205860
0.11731767654418945,0.17986297607421875,-0.027062535285949707,2023-10-21T14:56:45.880467Z,1697900205880
0.11768627166748047,0.1800699234008789,-0.027080655097961426,2023-10-21T14:56:45.903523Z,1697900205903
0.11879348754882812,0.18143939971923828,-0.027275562286376953,2023-10-21T14:56:45.920966Z,1697900205920
0.12032890319824219,0.1835002899169922,-0.027569174766540527,2023-10-21T14:56:45.941268Z,1697900205941
0.12192058563232422,0.18567562103271484,-0.027873873710632324,2023-10-21T14:56:45.961486Z,1697900205961
0.12339258193969727,0.1876821517944336,-0.028157711029052734,2023-10-21T14:56:45.981736Z,1697900205981
0.12476396560668945,0.18952274322509766,-0.02843177318572998,2023-10-21T14:56:46.003438Z,1697900206003
0.12598228454589844,0.1910877227783203,-0.028690457344055176,2023-10-21T14:56:46.022324Z,1697900206022
0.12702274322509766,0.19232559204101562,-0.02893364429473877,2023-10-21T14:56:46.042603Z,1697900206042
0.1276836395263672,0.19292640686035156,-0.029115796089172363,2023-10-21T14:56:46.062801Z,1697900206062
0.12795400619506836,0.19287109375,-0.029227495193481445,2023-10-21T14:56:46.083030Z,1697900206083
0.12781143188476562,0.19213199615478516,-0.029265642166137695,2023-10-21T14:56:46.103372Z,1697900206103
0.12736272811889648,0.1908864974975586,-0.02925252914428711,2023-10-21T14:56:46.123682Z,1697900206123
0.12700748443603516,0.18975353240966797,-0.029282450675964355,2023-10-21T14:56:46.143870Z,1697900206143
0.12688732147216797,0.18896198272705078,-0.029381275177001953,2023-10-21T14:56:46.164103Z,1697900206164
0.12717199325561523,0.18878936767578125,-0.029586195945739746,2023-10-21T14:56:46.186683Z,1697900206186
0.1278390884399414,0.18921852111816406,-0.029886603355407715,2023-10-21T14:56:46.204656Z,1697900206204
0.1288776397705078,0.19025802612304688,-0.03026902675628662,2023-10-21T14:56:46.224966Z,1697900206224
0.13016271591186523,0.19173812866210938,-0.03070211410522461,2023-10-21T14:56:46.245209Z,1697900206245
0.1315150260925293,0.1934041976928711,-0.031136393547058105,2023-10-21T14:56:46.265432Z,1697900206265
0.1328282356262207,0.19509506225585938,-0.031546831130981445,2023-10-21T14:56:46.286570Z,1697900206286
0.1341700553894043,0.1968975067138672,-0.03195369243621826,2023-10-21T14:56:46.305972Z,1697900206305
0.13565874099731445,0.19897079467773438,-0.03238976001739502,2023-10-21T14:56:46.326291Z,1697900206326
0.13734912872314453,0.20137691497802734,-0.03288090229034424,2023-10-21T14:56:46.346466Z,1697900206346
0.13921403884887695,0.20406055450439453,-0.03342175483703613,2023-10-21T14:56:46.369630Z,1697900206369
0.14110136032104492,0.20677757263183594,-0.03397238254547119,2023-10-21T14:56:46.387024Z,1697900206386
0.14271926879882812,0.2090930938720703,-0.03445613384246826,2023-10-21T14:56:46.407368Z,1697900206407
0.14381980895996094,0.21062374114990234,-0.03480422496795654,2023-10-21T14:56:46.427616Z,1697900206427
0.14452648162841797,0.21154308319091797,-0.03504669666290283,2023-10-21T14:56:46.447822Z,1697900206447
0.14504766464233398,0.21214962005615234,-0.035231590270996094,2023-10-21T14:56:46.469665Z,1697900206469
0.14553451538085938,0.212677001953125,-0.03540217876434326,2023-10-21T14:56:46.488379Z,1697900206488
0.1459183692932129,0.213043212890625,-0.03553569316864014,2023-10-21T14:56:46.508659Z,1697900206508
0.14613056182861328,0.21315574645996094,-0.03561270236968994,2023-10-21T14:56:46.528861Z,1697900206528
0.14604806900024414,0.21284198760986328,-0.03560042381286621,2023-10-21T14:56:46.549062Z,1697900206549
0.14564800262451172,0.2120800018310547,-0.0354924201965332,2023-10-21T14:56:46.569466Z,1697900206569
0.1449127197265625,0.2108612060546875,-0.03528749942779541,2023-10-21T14:56:46.589699Z,1697900206589
0.14408016204833984,0.20954179763793945,-0.035046935081481934,2023-10-21T14:56:46.609965Z,1697900206609
0.1434016227722168,0.20848560333251953,-0.03484547138214111,2023-10-21T14:56:46.630132Z,1697900206630
0.14280414581298828,0.20757722854614258,-0.0346682071685791,2023-10-21T14:56:46.652783Z,1697900206652
0.14227294921875,0.2067713737487793,-0.03451502323150635,2023-10-21T14:56:46.670716Z,1697900206670
0.1417226791381836,0.20592927932739258,-0.034363746643066406,2023-10-21T14:56:46.691025Z,1697900206690
0.1411571502685547,0.20505428314208984,-0.034213900566101074,2023-10-21T14:56:46.711281Z,1697900206711
0.14059829711914062,0.20415735244750977,-0.03405964374542236,2023-10-21T14:56:46.731540Z,1697900206731
0.14017438888549805,0.2034158706665039,-0.03393375873565674,2023-10-21T14:56:46.752644Z,1697900206752
0.1400437355041504,0.20304203033447266,-0.03387582302093506,2023-10-21T14:56:46.772125Z,1697900206772
0.1402420997619629,0.20308780670166016,-0.03388679027557373,2023-10-21T14:56:46.792384Z,1697900206792
0.14064550399780273,0.2033853530883789,-0.03394269943237305,2023-10-21T14:56:46.812534Z,1697900206812
0.1410670280456543,0.20369434356689453,-0.03399801254272461,2023-10-21T14:56:46.832780Z,1697900206832
0.14136600494384766,0.20384597778320312,-0.03401374816894531,2023-10-21T14:56:46.853097Z,1697900206853
0.1414628028869629,0.20373916625976562,-0.033966779708862305,2023-10-21T14:56:46.873420Z,1697900206873
0.14135122299194336,0.2033519744873047,-0.03386366367340088,2023-10-21T14:56:46.893621Z,1697900206893
0.14125299453735352,0.20297479629516602,-0.03377127647399902,2023-10-21T14:56:46.913833Z,1697900206913
0.14133405685424805,0.20284461975097656,-0.03374624252319336,2023-10-21T14:56:46.935517Z,1697900206935
0.14152002334594727,0.2028670310974121,-0.033768415451049805,2023-10-21T14:56:46.954423Z,1697900206954
0.14164209365844727,0.20282649993896484,-0.03379261493682861,2023-10-21T14:56:46.974706Z,1697900206974
0.14162969589233398,0.20262479782104492,-0.03379523754119873,2023-10-21T14:56:46.994908Z,1697900206994
0.14147663116455078,0.2022542953491211,-0.033772945404052734,2023-10-21T14:56:47.015115Z,1697900207015
0.1412367820739746,0.2017965316772461,-0.03374803066253662,2023-10-21T14:56:47.035797Z,1697900207035
0.1409907341003418,0.20136070251464844,-0.03373241424560547,2023-10-21T14:56:47.055757Z,1697900207055
0.140869140625,0.20113468170166016,-0.03375089168548584,2023-10-21T14:56:47.076104Z,1697900207076
0.14084625244140625,0.2010793685913086,-0.0337907075881958,2023-10-21T14:56:47.096261Z,1697900207096
0.1407155990600586,0.2009105682373047,-0.0337904691696167,2023-10-21T14:56:47.119258Z,1697900207119
0.1402444839477539,0.20029640197753906,-0.03370225429534912,2023-10-21T14:56:47.136809Z,1697900207136
0.1393585205078125,0.19912481307983398,-0.033510684967041016,2023-10-21T14:56:47.157094Z,1697900207157
0.13826370239257812,0.19766712188720703,-0.03328561782836914,2023-10-21T14:56:47.177292Z,1697900207177
0.13723325729370117,0.19628429412841797,-0.033107757568359375,2023-10-21T14:56:47.197528Z,1697900207197
0.1365041732788086,0.1952800750732422,-0.033030152320861816,2023-10-21T14:56:47.219274Z,1697900207219
0.13613605499267578,0.19473791122436523,-0.033060669898986816,2023-10-21T14:56:47.238139Z,1697900207238
0.13604354858398438,0.19454431533813477,-0.033176541328430176,2023-10-21T14:56:47.258435Z,1697900207258
0.13599348068237305,0.19440269470214844,-0.03332173824310303,2023-10-21T14:56:47.278606Z,1697900207278
0.13585138320922852,0.19415283203125,-0.03345823287963867,2023-10-21T14:56:47.298826Z,1697900207298
0.13543987274169922,0.19357681274414062,-0.03354501724243164,2023-10-21T14:56:47.319182Z,1697900207319
0.13489913940429688,0.1928701400756836,-0.033606767654418945,2023-10-21T14:56:47.339501Z,1697900207339
0.1344761848449707,0.19236421585083008,-0.03370463848114014,2023-10-21T14:56:47.359692Z,1697900207359
0.13423585891723633,0.19214820861816406,-0.03385031223297119,2023-10-21T14:56:47.379901Z,1697900207379
0.13404417037963867,0.1920461654663086,-0.03400075435638428,2023-10-21T14:56:47.401796Z,1697900207401
0.13357973098754883,0.19162464141845703,-0.0340656042098999,2023-10-21T14:56:47.420474Z,1697900207420
0.13275766372680664,0.1907491683959961,-0.03402590751647949,2023-10-21T14:56:47.440789Z,1697900207440
0.13167142868041992,0.18951654434204102,-0.033904433250427246,2023-10-21T14:56:47.461005Z,1697900207460
0.13055181503295898,0.18822193145751953,-0.03377580642700195,2023-10-21T14:56:47.481201Z,1697900207481
0.12970876693725586,0.1872882843017578,-0.03372669219970703,2023-10-21T14:56:47.502266Z,1697900207502
0.12937211990356445,0.187042236328125,-0.033820509910583496,2023-10-21T14:56:47.521821Z,1697900207521
0.12959718704223633,0.1875743865966797,-0.03406834602355957,2023-10-21T14:56:47.542470Z,1697900207542
0.13015079498291016,0.1885671615600586,-0.03440558910369873,2023-10-21T14:56:47.562705Z,1697900207562
0.13068771362304688,0.18953990936279297,-0.034742116928100586,2023-10-21T14:56:47.585674Z,1697900207585
0.1311202049255371,0.1903848648071289,-0.0350569486618042,2023-10-21T14:56:47.603240Z,1697900207603
0.13142871856689453,0.19107532501220703,-0.03534245491027832,2023-10-21T14:56:47.623534Z,1697900207623
0.1316204071044922,0.191619873046875,-0.03560030460357666,2023-10-21T14:56:47.643752Z,1697900207643
0.13180160522460938,0.19217634201049805,-0.03584897518157959,2023-10-21T14:56:47.663977Z,1697900207663
0.1320209503173828,0.19280433654785156,-0.03609275817871094,2023-10-21T14:56:47.685588Z,1697900207685
0.13213682174682617,0.19330310821533203,-0.03628861904144287,2023-10-21T14:56:47.704539Z,1697900207704
0.13199377059936523,0.1934337615966797,-0.036397457122802734,2023-10-21T14:56:47.724825Z,1697900207724
0.13152170181274414,0.1930713653564453,-0.036411166191101074,2023-10-21T14:56:47.745058Z,1697900207745
0.13081836700439453,0.19234466552734375,-0.03636348247528076,2023-10-21T14:56:47.765258Z,1697900207765
0.130157470703125,0.1916208267211914,-0.0363309383392334,2023-10-21T14:56:47.785592Z,1697900207785
0.1297321319580078,0.19114398956298828,-0.03636956214904785,2023-10-21T14:56:47.805916Z,1697900207805
0.12985897064208984,0.19134998321533203,-0.036568403244018555,2023-10-21T14:56:47.826141Z,1697900207826
0.13060855865478516,0.1923542022705078,-0.03696334362030029,2023-10-21T14:56:47.846391Z,1697900207846
0.13164377212524414,0.19370365142822266,-0.03747451305389404,2023-10-21T14:56:47.868758Z,1697900207868
0.13263368606567383,0.1949596405029297,-0.0380253791809082,2023-10-21T14:56:47.886901Z,1697900207886
0.13362407684326172,0.19620466232299805,-0.038622140884399414,2023-10-21T14:56:47.907251Z,1697900207907
0.13492345809936523,0.19791030883789062,-0.03935086727142334,2023-10-21T14:56:47.927503Z,1697900207927
0.13651371002197266,0.20007705688476562,-0.04018247127532959,2023-10-21T14:56:47.947667Z,1697900207947
0.1380915641784668,0.20231151580810547,-0.04103243350982666,2023-10-21T14:56:47.968543Z,1697900207968
0.13924646377563477,0.2040557861328125,-0.041776180267333984,2023-10-21T14:56:47.988231Z,1697900207988
0.13969993591308594,0.20490694046020508,-0.04233276844024658,2023-10-21T14:56:48.008538Z,1697900208008
0.13946914672851562,0.20487213134765625,-0.042699217796325684,2023-10-21T14:56:48.028750Z,1697900208028
0.13872194290161133,0.20415210723876953,-0.04291355609893799,2023-10-21T14:56:48.052065Z,1697900208052
0.13785266876220703,0.20325899124145508,-0.04307389259338379,2023-10-21T14:56:48.069290Z,1697900208069
0.13715219497680664,0.2025747299194336,-0.04326820373535156,2023-10-21T14:56:48.089576Z,1697900208089
0.1366276741027832,0.20208740234375,-0.0435025691986084,2023-10-21T14:56:48.109865Z,1697900208109
0.13614225387573242,0.20159101486206055,-0.04375016689300537,2023-10-21T14:56:48.130022Z,1697900208129
0.1357898712158203,0.2012166976928711,-0.044046878814697266,2023-10-21T14:56:48.151601Z,1697900208151
0.13570499420166016,0.2011556625366211,-0.044431209564208984,2023-10-21T14:56:48.170636Z,1697900208170
0.13599634170532227,0.20157480239868164,-0.04492628574371338,2023-10-21T14:56:48.190914Z,1697900208190
0.13663530349731445,0.2024679183959961,-0.04550445079803467,2023-10-21T14:56:48.211134Z,1697900208211
0.1374530792236328,0.20363378524780273,-0.04610884189605713,2023-10-21T14:56:48.231391Z,1697900208231
0.13825035095214844,0.20482301712036133,-0.046674251556396484,2023-10-21T14:56:48.251724Z,1697900208251
0.13889598846435547,0.20587158203125,-0.047170162200927734,2023-10-21T14:56:48.271948Z,1697900208271
0.13926172256469727,0.20661067962646484,-0.047570228576660156,2023-10-21T14:56:48.292207Z,1697900208292
0.13926410675048828,0.20691585540771484,-0.0478442907333374,2023-10-21T14:56:48.312473Z,1697900208312
0.13882112503051758,0.20664405822753906,-0.04796183109283447,2023-10-21T14:56:48.335136Z,1697900208335
0.13781452178955078,0.20557498931884766,-0.047872185707092285,2023-10-21T14:56:48.352968Z,1697900208352
0.13643980026245117,0.20392799377441406,-0.047632455825805664,2023-10-21T14:56:48.373275Z,1697900208373
0.1349945068359375,0.20209026336669922,-0.047347426414489746,2023-10-21T14:56:48.393559Z,1697900208393
0.1335601806640625,0.2001667022705078,-0.047063589096069336,2023-10-21T14:56:48.413701Z,1697900208413
0.13191890716552734,0.1978168487548828,-0.04672062397003174,2023-10-21T14:56:48.434890Z,1697900208434
0.1299142837524414,0.19480228424072266,-0.046272993087768555,2023-10-21T14:56:48.454322Z,1697900208454
0.12753725051879883,0.19110774993896484,-0.04571211338043213,2023-10-21T14:56:48.474588Z,1697900208474
0.12497425079345703,0.1870107650756836,-0.04510331153869629,2023-10-21T14:56:48.494756Z,1697900208494
0.12228727340698242,0.1826324462890625,-0.044463396072387695,2023-10-21T14:56:48.514965Z,1697900208514
0.119384765625,0.17788934707641602,-0.04377317428588867,2023-10-21T14:56:48.535374Z,1697900208535
0.11602783203125,0.17249011993408203,-0.04295825958251953,2023-10-21T14:56:48.555652Z,1697900208555
0.1120448112487793,0.16623735427856445,-0.04198575019836426,2023-10-21T14:56:48.575889Z,1697900208575
0.10756683349609375,0.15934181213378906,-0.04091453552246094,2023-10-21T14:56:48.596089Z,1697900208596
0.10309934616088867,0.15252447128295898,-0.03993511199951172,2023-10-21T14:56:48.618152Z,1697900208618
0.09917640686035156,0.14654827117919922,-0.03923678398132324,2023-10-21T14:56:48.636666Z,1697900208636
0.0960245132446289,0.14172935485839844,-0.03889918327331543,2023-10-21T14:56:48.656961Z,1697900208656
0.09384870529174805,0.13836097717285156,-0.03901243209838867,2023-10-21T14:56:48.677203Z,1697900208677
0.0930318832397461,0.13698768615722656,-0.03975653648376465,2023-10-21T14:56:48.697371Z,1697900208697
0.09393119812011719,0.1380934715270996,-0.04132723808288574,2023-10-21T14:56:48.717905Z,1697900208717
0.09657859802246094,0.1416783332824707,-0.043788909912109375,2023-10-21T14:56:48.737992Z,1697900208737
0.10048627853393555,0.14697551727294922,-0.046966552734375,2023-10-21T14:56:48.758291Z,1697900208758
0.10515642166137695,0.1531996726989746,-0.05063796043395996,2023-10-21T14:56:48.778498Z,1697900208778
0.11028003692626953,0.1598367691040039,-0.0546572208404541,2023-10-21T14:56:48.801592Z,1697900208801
0.11595344543457031,0.1669626235961914,-0.05906271934509277,2023-10-21T14:56:48.819027Z,1697900208818
0.12247610092163086,0.1749277114868164,-0.06402730941772461,2023-10-21T14:56:48.839371Z,1697900208839
0.1299600601196289,0.18383169174194336,-0.06964302062988281,2023-10-21T14:56:48.859661Z,1697900208859
0.13805055618286133,0.19311189651489258,-0.0757596492767334,2023-10-21T14:56:48.879795Z,1697900208879
0.14607524871826172,0.20179510116577148,-0.0820169448852539,2023-10-21T14:56:48.901472Z,1697900208901
0.1534123420715332,0.2090005874633789,-0.08804082870483398,2023-10-21T14:56:48.920356Z,1697900208920
0.15971899032592773,0.21426868438720703,-0.09358716011047363,2023-10-21T14:56:48.940648Z,1697900208940
0.165252685546875,0.2179560661315918,-0.09876632690429688,2023-10-21T14:56:48.960915Z,1697900208960
0.17031431198120117,0.22046327590942383,-0.10372233390808105,2023-10-21T14:56:48.981070Z,1697900208981
0.17527484893798828,0.22226572036743164,-0.10866641998291016,2023-10-21T14:56:49.001393Z,1697900209001
0.1801600456237793,0.22336626052856445,-0.11360573768615723,2023-10-21T14:56:49.021733Z,1697900209021
0.18492746353149414,0.22367000579833984,-0.1184842586517334,2023-10-21T14:56:49.041970Z,1697900209041
0.1901388168334961,0.22378253936767578,-0.12363147735595703,2023-10-21T14:56:49.062145Z,1697900209062
0.19676637649536133,0.22471332550048828,-0.1296391487121582,2023-10-21T14:56:49.084567Z,1697900209084
0.20543622970581055,0.22701454162597656,-0.1369152069091797,2023-10-21T14:56:49.102728Z,1697900209102
0.21657466888427734,0.23098516464233398,-0.14576435089111328,2023-10-21T14:56:49.123025Z,1697900209122
0.2306838035583496,0.23694896697998047,-0.15656375885009766,2023-10-21T14:56:49.143300Z,1697900209143
0.24808025360107422,0.24498319625854492,-0.1695699691772461,2023-10-21T14:56:49.163570Z,1697900209163
0.26813316345214844,0.2542405128479004,-0.18437671661376953,2023-10-21T14:56:49.184450Z,1697900209184
0.28903675079345703,0.2629060745239258,-0.19970417022705078,2023-10-21T14:56:49.204061Z,1697900209204
0.3092222213745117,0.26966381072998047,-0.2143993377685547,2023-10-21T14:56:49.224403Z,1697900209224
0.32874584197998047,0.2747969627380371,-0.22840547561645508,2023-10-21T14:56:49.244547Z,1697900209244
0.3489365577697754,0.2796449661254883,-0.2425689697265625,2023-10-21T14:56:49.267846Z,1697900209267
0.37031078338623047,0.2848482131958008,-0.2572641372680664,2023-10-21T14:56:49.285090Z,1697900209285
0.3921823501586914,0.2901453971862793,-0.2720680236816406,2023-10-21T14:56:49.305407Z,1697900209305
0.4133601188659668,0.29493236541748047,-0.2862129211425781,2023-10-21T14:56:49.325654Z,1697900209325
0.43373537063598633,0.2993474006652832,-0.29960012435913086,2023-10-21T14:56:49.345878Z,1697900209345
0.4545879364013672,0.3043837547302246,-0.3130202293395996,2023-10-21T14:56:49.367777Z,1697900209367
0.4771881103515625,0.31099939346313477,-0.3272590637207031,2023-10-21T14:56:49.386449Z,1697900209386
0.501274585723877,0.31923723220825195,-0.34215736389160156,2023-10-21T14:56:49.406750Z,1697900209406
0.5251593589782715,0.3283357620239258,-0.35665464401245117,2023-10-21T14:56:49.426905Z,1697900209426
0.5458478927612305,0.3367466926574707,-0.36883020401000977,2023-10-21T14:56:49.447151Z,1697900209447
0.5597372055053711,0.3424692153930664,-0.3763284683227539,2023-10-21T14:56:49.467618Z,1697900209467
0.5644993782043457,0.34409618377685547,-0.3775496482849121,2023-10-21T14:56:49.487827Z,1697900209487
0.5589184761047363,0.34073400497436523,-0.3715705871582031,2023-10-21T14:56:49.508010Z,1697900209507
0.5427799224853516,0.3320469856262207,-0.35812902450561523,2023-10-21T14:56:49.528236Z,1697900209528
0.5153121948242188,0.3173646926879883,-0.336759090423584,2023-10-21T14:56:49.551Z,1697900209550
0.47512340545654297,0.29555606842041016,-0.306821346282959,2023-10-21T14:56:49.568769Z,1697900209568
0.4217095375061035,0.26584434509277344,-0.2684645652770996,2023-10-21T14:56:49.589078Z,1697900209589
0.3568415641784668,0.22867774963378906,-0.22337007522583008,2023-10-21T14:56:49.609302Z,1697900209609
0.28340673446655273,0.18512916564941406,-0.17391109466552734,2023-10-21T14:56:49.629534Z,1697900209629
0.20471906661987305,0.13660907745361328,-0.12271308898925781,2023-10-21T14:56:49.650852Z,1697900209650
0.12431526184082031,0.08487892150878906,-0.07250070571899414,2023-10-21T14:56:49.670182Z,1697900209670
0.04603719711303711,0.032196044921875,-0.0260162353515625,2023-10-21T14:56:49.690433Z,1697900209690
-0.026263713836669922,-0.018829822540283203,0.014333486557006836,2023-10-21T14:56:49.710630Z,1697900209710
-0.08963823318481445,-0.06594610214233398,0.04714179039001465,2023-10-21T14:56:49.730817Z,1697900209730
-0.1424107551574707,-0.10763263702392578,0.07213282585144043,2023-10-21T14:56:49.751193Z,1697900209751
-0.18252134323120117,-0.14190340042114258,0.0891408920288086,2023-10-21T14:56:49.771697Z,1697900209771
-0.20577669143676758,-0.16477203369140625,0.09717965126037598,2023-10-21T14:56:49.791711Z,1697900209791
-0.20659971237182617,-0.1705765724182129,0.09481096267700195,2023-10-21T14:56:49.811932Z,1697900209811
-0.18166542053222656,-0.15479326248168945,0.08160519599914551,2023-10-21T14:56:49.834219Z,1697900209834
-0.13375091552734375,-0.11771297454833984,0.05938076972961426,2023-10-21T14:56:49.852469Z,1697900209852
-0.07175159454345703,-0.06527137756347656,0.03185319900512695,2023-10-21T14:56:49.872791Z,1697900209872
-0.004825115203857422,-0.004539012908935547,0.002168893814086914,2023-10-21T14:56:49.893061Z,1697900209893
0.06234598159790039,0.060680389404296875,-0.028734445571899414,2023-10-21T14:56:49.913268Z,1697900209913
0.12907791137695312,0.12984609603881836,-0.06165504455566406,2023-10-21T14:56:49.933844Z,1697900209933
0.1956334114074707,0.20306777954101562,-0.09766650199890137,2023-10-21T14:56:49.953840Z,1697900209953
0.2606325149536133,0.2785682678222656,-0.1367640495300293,2023-10-21T14:56:49.974128Z,1697900209974
0.3214426040649414,0.3530139923095703,-0.1778731346130371,2023-10-21T14:56:49.994364Z,1697900209994
0.3755021095275879,0.4229750633239746,-0.21943426132202148,2023-10-21T14:56:50.017297Z,1697900210017
0.4219551086425781,0.4872746467590332,-0.2605624198913574,2023-10-21T14:56:50.034853Z,1697900210034
0.462526798248291,0.5481548309326172,-0.30190134048461914,2023-10-21T14:56:50.055224Z,1697900210055
0.502345085144043,0.6125473976135254,-0.34666967391967773,2023-10-21T14:56:50.075400Z,1697900210075
0.5475521087646484,0.690241813659668,-0.39980030059814453,2023-10-21T14:56:50.095592Z,1697900210095
0.6019930839538574,0.790557861328125,-0.4658212661743164,2023-10-21T14:56:50.117252Z,1697900210117
0.6641011238098145,0.9173016548156738,-0.5463099479675293,2023-10-21T14:56:50.136206Z,1697900210136
0.7294268608093262,1.069735050201416,-0.6405434608459473,2023-10-21T14:56:50.156488Z,1697900210156
0.793975830078125,1.2434673309326172,-0.7468585968017578,2023-10-21T14:56:50.176665Z,1697900210176
0.8561701774597168,1.435478687286377,-0.8645362854003906,2023-10-21T14:56:50.196881Z,1697900210196
0.9154295921325684,1.6420507431030273,-0.9920496940612793,2023-10-21T14:56:50.217222Z,1697900210217
0.9706296920776367,1.8549456596374512,-1.1267690658569336,2023-10-21T14:56:50.237530Z,1697900210237
1.0187451839447021,2.0585365295410156,-1.262040615081787,2023-10-21T14:56:50.257736Z,1697900210257
1.0550673007965088,2.223820686340332,-1.3807482719421387,2023-10-21T14:56:50.278008Z,1697900210277
1.0799884796142578,2.331265926361084,-1.471756935119629,2023-10-21T14:56:50.300510Z,1697900210300
1.087141752243042,2.3568949699401855,-1.5163631439208984,2023-10-21T14:56:50.318527Z,1697900210318
1.0790560245513916,2.3036608695983887,-1.5153288841247559,2023-10-21T14:56:50.338839Z,1697900210338
1.0520226955413818,2.1778736114501953,-1.4673147201538086,2023-10-21T14:56:50.359074Z,1697900210359
1.00779128074646,1.9958086013793945,-1.3768959045410156,2023-10-21T14:56:50.379347Z,1697900210379
0.946157693862915,1.77205228805542,-1.24973726272583,2023-10-21T14:56:50.400301Z,1697900210400
0.8630275726318359,1.5150880813598633,-1.0894384384155273,2023-10-21T14:56:50.419858Z,1697900210419
0.7539510726928711,1.2325420379638672,-0.899479866027832,2023-10-21T14:56:50.440178Z,1697900210440
0.6194829940795898,0.939051628112793,-0.6908574104309082,2023-10-21T14:56:50.460374Z,1697900210460
0.4682731628417969,0.6589884757995605,-0.48534584045410156,2023-10-21T14:56:50.483620Z,1697900210483
0.30460214614868164,0.3998541831970215,-0.29262781143188477,2023-10-21T14:56:50.500918Z,1697900210500
0.13966941833496094,0.1717061996459961,-0.1243886947631836,2023-10-21T14:56:50.521217Z,1697900210521
-0.029211044311523438,-0.03368568420410156,0.024080276489257812,2023-10-21T14:56:50.541474Z,1697900210541
-0.1978168487548828,-0.21310663223266602,0.15039968490600586,2023-10-21T14:56:50.561670Z,1697900210561
-0.36843395233154297,-0.3688483238220215,0.25787782669067383,2023-10-21T14:56:50.583591Z,1697900210583
-0.5471377372741699,-0.5045452117919922,0.3520529270172119,2023-10-21T14:56:50.602238Z,1697900210602
-0.739142894744873,-0.6184873580932617,0.4366152286529541,2023-10-21T14:56:50.622544Z,1697900210622
-0.9430646896362305,-0.7011752128601074,0.5106573104858398,2023-10-21T14:56:50.642753Z,1697900210642
-1.1500916481018066,-0.7400937080383301,0.5700380802154541,2023-10-21T14:56:50.662980Z,1697900210662
-1.345881462097168,-0.7279472351074219,0.60953688621521,2023-10-21T14:56:50.683843Z,1697900210683
-1.5154900550842285,-0.6648669242858887,0.6256613731384277,2023-10-21T14:56:50.703595Z,1697900210703
-1.6460332870483398,-0.5583369731903076,0.6181478500366211,2023-10-21T14:56:50.723814Z,1697900210723
-1.7281074523925781,-0.42247021198272705,0.5878410339355469,2023-10-21T14:56:50.744045Z,1697900210744
-1.7558608055114746,-0.2755089998245239,0.5376825332641602,2023-10-21T14:56:50.766768Z,1697900210766
-1.7331056594848633,-0.13869619369506836,0.4781057834625244,2023-10-21T14:56:50.784598Z,1697900210784
-1.683011531829834,-0.025934316217899323,0.4201899766921997,2023-10-21T14:56:50.804926Z,1697900210804
-1.617307186126709,0.05824431777000427,0.37116730213165283,2023-10-21T14:56:50.825158Z,1697900210825
-1.5599470138549805,0.11753654479980469,0.3335740566253662,2023-10-21T14:56:50.845356Z,1697900210845
-1.5090856552124023,0.15710389614105225,0.3046560287475586,2023-10-21T14:56:50.866646Z,1697900210866
-1.4676752090454102,0.18188047409057617,0.28363358974456787,2023-10-21T14:56:50.885971Z,1697900210885
-1.4307317733764648,0.19416069984436035,0.2680751085281372,2023-10-21T14:56:50.906215Z,1697900210906
-1.387578010559082,0.19373393058776855,0.25530874729156494,2023-10-21T14:56:50.926417Z,1697900210926
-1.3299541473388672,0.18131685256958008,0.2444833517074585,2023-10-21T14:56:50.946642Z,1697900210946
-1.2545366287231445,0.1602635383605957,0.23458755016326904,2023-10-21T14:56:50.966955Z,1697900210966
-1.1543617248535156,0.13510578870773315,0.2202843427658081,2023-10-21T14:56:50.987308Z,1697900210987
-1.023045539855957,0.10783535242080688,0.19875776767730713,2023-10-21T14:56:51.007531Z,1697900211007
-0.8743381500244141,0.08143579959869385,0.1707911491394043,2023-10-21T14:56:51.027751Z,1697900211027
-0.7115192413330078,0.05642050504684448,0.1390606164932251,2023-10-21T14:56:51.049956Z,1697900211049
-0.5552358627319336,0.035242676734924316,0.10834777355194092,2023-10-21T14:56:51.068333Z,1697900211068
-0.4059867858886719,0.018687546253204346,0.07898843288421631,2023-10-21T14:56:51.088594Z,1697900211088
-0.26637744903564453,0.007207393646240234,0.05169343948364258,2023-10-21T14:56:51.108846Z,1697900211108
-0.14060497283935547,8.975490927696228E-4,0.027240872383117676,2023-10-21T14:56:51.129075Z,1697900211128
-0.028967857360839844,-4.6882033348083496E-4,0.005610227584838867,2023-10-21T14:56:51.149923Z,1697900211149
0.0701751708984375,0.0028742849826812744,-0.013610482215881348,2023-10-21T14:56:51.169603Z,1697900211169
0.15657711029052734,0.010678231716156006,-0.030563831329345703,2023-10-21T14:56:51.189920Z,1697900211189
0.22792720794677734,0.02235335111618042,-0.04508030414581299,2023-10-21T14:56:51.210124Z,1697900211210
0.2838926315307617,0.03711199760437012,-0.05728471279144287,2023-10-21T14:56:51.233369Z,1697900211233
0.3273782730102539,0.054410457611083984,-0.06778883934020996,2023-10-21T14:56:51.250663Z,1697900211250
0.36437034606933594,0.07441353797912598,-0.07780909538269043,2023-10-21T14:56:51.270972Z,1697900211270
0.39874935150146484,0.09743189811706543,-0.0881500244140625,2023-10-21T14:56:51.291237Z,1697900211291
0.43131542205810547,0.12339115142822266,-0.09894514083862305,2023-10-21T14:56:51.311407Z,1697900211311
0.46045780181884766,0.15148425102233887,-0.10962295532226562,2023-10-21T14:56:51.333026Z,1697900211332
0.48415374755859375,0.1804049015045166,-0.11936211585998535,2023-10-21T14:56:51.352061Z,1697900211352
0.5021219253540039,0.20915937423706055,-0.12782979011535645,2023-10-21T14:56:51.372326Z,1697900211372
0.5149974822998047,0.23706865310668945,-0.13506436347961426,2023-10-21T14:56:51.392516Z,1697900211392
0.5228290557861328,0.26323413848876953,-0.14105725288391113,2023-10-21T14:56:51.412700Z,1697900211412
0.5239963531494141,0.2859325408935547,-0.14528298377990723,2023-10-21T14:56:51.433022Z,1697900211432
0.5162601470947266,0.3029007911682129,-0.14693641662597656,2023-10-21T14:56:51.453397Z,1697900211453
0.4982423782348633,0.31220340728759766,-0.14542627334594727,2023-10-21T14:56:51.473590Z,1697900211473
0.47062015533447266,0.3131599426269531,-0.1408519744873047,2023-10-21T14:56:51.493984Z,1697900211493
0.4362812042236328,0.30675411224365234,-0.13402986526489258,2023-10-21T14:56:51.516315Z,1697900211516
0.3990335464477539,0.29503726959228516,-0.12610316276550293,2023-10-21T14:56:51.534370Z,1697900211534
0.3634476661682129,0.2812004089355469,-0.11846041679382324,2023-10-21T14:56:51.554651Z,1697900211554
0.3325366973876953,0.2679300308227539,-0.11199355125427246,2023-10-21T14:56:51.574901Z,1697900211574
0.3067293167114258,0.2562747001647949,-0.10675454139709473,2023-10-21T14:56:51.595132Z,1697900211595
0.2849764823913574,0.2460188865661621,-0.10229325294494629,2023-10-21T14:56:51.616159Z,1697900211616
0.2667222023010254,0.23711824417114258,-0.09840774536132812,2023-10-21T14:56:51.635701Z,1697900211635
0.2526235580444336,0.23042964935302734,-0.09540414810180664,2023-10-21T14:56:51.655990Z,1697900211655
0.24326038360595703,0.22677946090698242,-0.09357047080993652,2023-10-21T14:56:51.676186Z,1697900211676
0.23798131942749023,0.2259058952331543,-0.09269094467163086,2023-10-21T14:56:51.699577Z,1697900211699
0.2353200912475586,0.2266998291015625,-0.09221243858337402,2023-10-21T14:56:51.716727Z,1697900211716
0.23412418365478516,0.22829246520996094,-0.09174704551696777,2023-10-21T14:56:51.737050Z,1697900211737
0.23338603973388672,0.22994518280029297,-0.09107494354248047,2023-10-21T14:56:51.757281Z,1697900211757
0.23172283172607422,0.2304854393005371,-0.08983492851257324,2023-10-21T14:56:51.777509Z,1697900211777
0.2287607192993164,0.2295689582824707,-0.0880281925201416,2023-10-21T14:56:51.799379Z,1697900211799
0.22500896453857422,0.22765302658081055,-0.0859375,2023-10-21T14:56:51.818046Z,1697900211818
0.22130584716796875,0.22556734085083008,-0.08393716812133789,2023-10-21T14:56:51.838363Z,1697900211838
0.21748781204223633,0.22323369979858398,-0.08205056190490723,2023-10-21T14:56:51.858530Z,1697900211858
0.2126636505126953,0.21984100341796875,-0.08002734184265137,2023-10-21T14:56:51.878790Z,1697900211878
0.20652151107788086,0.21508455276489258,-0.07784056663513184,2023-10-21T14:56:51.899413Z,1697900211899
0.19929885864257812,0.2092151641845703,-0.07562994956970215,2023-10-21T14:56:51.919433Z,1697900211919
0.19116640090942383,0.20241212844848633,-0.07343006134033203,2023-10-21T14:56:51.939694Z,1697900211939
0.18214845657348633,0.1946582794189453,-0.07114171981811523,2023-10-21T14:56:51.959910Z,1697900211959
0.17348384857177734,0.18713092803955078,-0.06910181045532227,2023-10-21T14:56:51.982641Z,1697900211982
0.16695690155029297,0.18158864974975586,-0.06793856620788574,2023-10-21T14:56:52.000461Z,1697900212000
0.1632823944091797,0.17880582809448242,-0.06795334815979004,2023-10-21T14:56:52.020735Z,1697900212020
0.16101980209350586,0.17735576629638672,-0.06859588623046875,2023-10-21T14:56:52.041037Z,1697900212040
0.157928466796875,0.1749577522277832,-0.06891322135925293,2023-10-21T14:56:52.061214Z,1697900212061
0.15334653854370117,0.1709003448486328,-0.06857728958129883,2023-10-21T14:56:52.082503Z,1697900212082
0.1490478515625,0.1669769287109375,-0.06833243370056152,2023-10-21T14:56:52.101788Z,1697900212101
0.1473255157470703,0.16559982299804688,-0.06925225257873535,2023-10-21T14:56:52.122053Z,1697900212122
0.14886903762817383,0.16747617721557617,-0.07172441482543945,2023-10-21T14:56:52.142287Z,1697900212142
0.15227794647216797,0.17110967636108398,-0.07516813278198242,2023-10-21T14:56:52.162533Z,1697900212162
0.15556669235229492,0.1744394302368164,-0.07870244979858398,2023-10-21T14:56:52.182810Z,1697900212182
0.15788984298706055,0.17665863037109375,-0.08194780349731445,2023-10-21T14:56:52.203151Z,1697900212203
0.16048431396484375,0.17912960052490234,-0.08555793762207031,2023-10-21T14:56:52.223395Z,1697900212223
0.16551876068115234,0.18412160873413086,-0.09073400497436523,2023-10-21T14:56:52.243623Z,1697900212243
0.17463922500610352,0.19325590133666992,-0.09845423698425293,2023-10-21T14:56:52.265759Z,1697900212265
0.18865394592285156,0.20726823806762695,-0.10929226875305176,2023-10-21T14:56:52.284139Z,1697900212284
0.2064971923828125,0.22494268417358398,-0.1227419376373291,2023-10-21T14:56:52.304456Z,1697900212304
0.22607898712158203,0.24397611618041992,-0.13758087158203125,2023-10-21T14:56:52.324690Z,1697900212324
0.24556684494018555,0.26236534118652344,-0.15266156196594238,2023-10-21T14:56:52.344875Z,1697900212344
0.2644224166870117,0.27943944931030273,-0.16751813888549805,2023-10-21T14:56:52.365587Z,1697900212365
0.28267383575439453,0.29512691497802734,-0.18196606636047363,2023-10-21T14:56:52.385456Z,1697900212385
0.2997250556945801,0.30881834030151367,-0.19539928436279297,2023-10-21T14:56:52.405770Z,1697900212405
0.31422853469848633,0.3192558288574219,-0.20671987533569336,2023-10-21T14:56:52.425936Z,1697900212425
0.32522153854370117,0.32557106018066406,-0.21515226364135742,2023-10-21T14:56:52.448997Z,1697900212448
0.3328061103820801,0.32804203033447266,-0.2207789421081543,2023-10-21T14:56:52.466496Z,1697900212466
0.3365316390991211,0.3265261650085449,-0.2234354019165039,2023-10-21T14:56:52.486787Z,1697900212486
0.3356356620788574,0.3207120895385742,-0.22277545928955078,2023-10-21T14:56:52.507029Z,1697900212506
0.33022594451904297,0.3110380172729492,-0.21895170211791992,2023-10-21T14:56:52.527301Z,1697900212527
0.3222193717956543,0.29939746856689453,-0.21323299407958984,2023-10-21T14:56:52.548768Z,1697900212548
0.31352710723876953,0.28751134872436523,-0.2068500518798828,2023-10-21T14:56:52.567873Z,1697900212567
0.30478620529174805,0.275909423828125,-0.20018243789672852,2023-10-21T14:56:52.588112Z,1697900212588
0.2948307991027832,0.26357603073120117,-0.1924591064453125,2023-10-21T14:56:52.608321Z,1697900212608
0.2826194763183594,0.24969148635864258,-0.18303918838500977,2023-10-21T14:56:52.628554Z,1697900212628
0.26839685440063477,0.23458337783813477,-0.17213964462280273,2023-10-21T14:56:52.648883Z,1697900212648
0.25307512283325195,0.2190413475036621,-0.16034317016601562,2023-10-21T14:56:52.669190Z,1697900212669
0.23721837997436523,0.20346927642822266,-0.14801645278930664,2023-10-21T14:56:52.689432Z,1697900212689
0.22107267379760742,0.18796157836914062,-0.1353764533996582,2023-10-21T14:56:52.709616Z,1697900212709
0.20448684692382812,0.17236757278442383,-0.1224527359008789,2023-10-21T14:56:52.732085Z,1697900212732
0.18709659576416016,0.15642166137695312,-0.10918569564819336,2023-10-21T14:56:52.750200Z,1697900212750
0.16898393630981445,0.14020967483520508,-0.09578347206115723,2023-10-21T14:56:52.770513Z,1697900212770
0.1496872901916504,0.12335205078125,-0.08217334747314453,2023-10-21T14:56:52.790745Z,1697900212790
0.12952566146850586,0.10610723495483398,-0.06873273849487305,2023-10-21T14:56:52.810975Z,1697900212810
0.10921382904052734,0.08904600143432617,-0.055976152420043945,2023-10-21T14:56:52.831950Z,1697900212831
0.0892648696899414,0.07254791259765625,-0.04419541358947754,2023-10-21T14:56:52.851527Z,1697900212851
0.07019901275634766,0.056977272033691406,-0.03360700607299805,2023-10-21T14:56:52.871818Z,1697900212871
0.053037166595458984,0.04307889938354492,-0.024592876434326172,2023-10-21T14:56:52.892040Z,1697900212892
0.039162635803222656,0.03191089630126953,-0.017633914947509766,2023-10-21T14:56:52.915269Z,1697900212915
0.030565261840820312,0.02505350112915039,-0.01339864730834961,2023-10-21T14:56:52.932547Z,1697900212932
0.029273509979248047,0.024213314056396484,-0.01253962516784668,2023-10-21T14:56:52.952848Z,1697900212952
0.0371403694152832,0.031101226806640625,-0.01559901237487793,2023-10-21T14:56:52.973107Z,1697900212973
0.056059837341308594,0.047679901123046875,-0.023178815841674805,2023-10-21T14:56:52.993327Z,1697900212993
0.08746767044067383,0.07576560974121094,-0.035733938217163086,2023-10-21T14:56:53.015028Z,1697900213014
0.13219022750854492,0.11687564849853516,-0.053585052490234375,2023-10-21T14:56:53.033910Z,1697900213033
0.18976116180419922,0.1715717315673828,-0.0767209529876709,2023-10-21T14:56:53.054212Z,1697900213054
0.25733327865600586,0.23830652236938477,-0.10444378852844238,2023-10-21T14:56:53.074446Z,1697900213074
0.33065223693847656,0.3140077590942383,-0.13571715354919434,2023-10-21T14:56:53.094676Z,1697900213094
0.40517139434814453,0.3947873115539551,-0.16947054862976074,2023-10-21T14:56:53.115149Z,1697900213115
0.47734880447387695,0.4770650863647461,-0.20497608184814453,2023-10-21T14:56:53.135290Z,1697900213135
0.5444035530090332,0.5574641227722168,-0.24161791801452637,2023-10-21T14:56:53.155535Z,1697900213155
0.6048130989074707,0.6336402893066406,-0.27919912338256836,2023-10-21T14:56:53.175811Z,1697900213175
0.6591496467590332,0.7054986953735352,-0.3184232711791992,2023-10-21T14:56:53.199434Z,1697900213199
0.7093377113342285,0.7750020027160645,-0.3608722686767578,2023-10-21T14:56:53.216268Z,1697900213216
0.7569150924682617,0.8442020416259766,-0.4080047607421875,2023-10-21T14:56:53.236615Z,1697900213236
0.803551197052002,0.9152946472167969,-0.4612259864807129,2023-10-21T14:56:53.256827Z,1697900213256
0.8516879081726074,0.991663932800293,-0.5223543643951416,2023-10-21T14:56:53.277109Z,1697900213277
0.9047026634216309,1.0788002014160156,-0.5947682857513428,2023-10-21T14:56:53.298429Z,1697900213298
0.9636783599853516,1.1805577278137207,-0.6816840171813965,2023-10-21T14:56:53.317635Z,1697900213317
1.0267677307128906,1.2957744598388672,-0.7839508056640625,2023-10-21T14:56:53.338057Z,1697900213338
1.0929603576660156,1.4204492568969727,-0.901578426361084,2023-10-21T14:56:53.358145Z,1697900213358
1.1578826904296875,1.5451631546020508,-1.0312628746032715,2023-10-21T14:56:53.378344Z,1697900213378
1.2090935707092285,1.6495146751403809,-1.1584444046020508,2023-10-21T14:56:53.398804Z,1697900213398
1.246462345123291,1.7245149612426758,-1.276463508605957,2023-10-21T14:56:53.418924Z,1697900213418
1.2707905769348145,1.7631726264953613,-1.3792448043823242,2023-10-21T14:56:53.439204Z,1697900213439
1.2837252616882324,1.7643232345581055,-1.465385913848877,2023-10-21T14:56:53.459389Z,1697900213459
1.2797460556030273,1.7248826026916504,-1.5292668342590332,2023-10-21T14:56:53.481624Z,1697900213481
1.2447566986083984,1.6311383247375488,-1.550032615661621,2023-10-21T14:56:53.499954Z,1697900213499
1.182138442993164,1.4860796928405762,-1.5210518836975098,2023-10-21T14:56:53.520249Z,1697900213520
1.0981874465942383,1.301712989807129,-1.4438772201538086,2023-10-21T14:56:53.540489Z,1697900213540
0.9919981956481934,1.0902976989746094,-1.318563461303711,2023-10-21T14:56:53.560698Z,1697900213560
0.8623814582824707,0.8653521537780762,-1.147226333618164,2023-10-21T14:56:53.581425Z,1697900213581
0.7175264358520508,0.6472539901733398,-0.9471697807312012,2023-10-21T14:56:53.601280Z,1697900213601
0.5574417114257812,0.4456815719604492,-0.725553035736084,2023-10-21T14:56:53.621551Z,1697900213621
0.38199663162231445,0.26686811447143555,-0.4878706932067871,2023-10-21T14:56:53.641789Z,1697900213641
0.18799495697021484,0.11281824111938477,-0.23428010940551758,2023-10-21T14:56:53.664813Z,1697900213664
-0.021569252014160156,-0.010832548141479492,0.02601003646850586,2023-10-21T14:56:53.682294Z,1697900213682
-0.23174619674682617,-0.09376406669616699,0.2679567337036133,2023-10-21T14:56:53.702631Z,1697900213702
-0.4423947334289551,-0.1368197202682495,0.48711395263671875,2023-10-21T14:56:53.722903Z,1697900213722
-0.6556763648986816,-0.14228558540344238,0.6840720176696777,2023-10-21T14:56:53.743062Z,1697900213743
-0.8678555488586426,-0.11070829629898071,0.8542594909667969,2023-10-21T14:56:53.764684Z,1697900213764
-1.0694847106933594,-0.042555928230285645,0.9891452789306641,2023-10-21T14:56:53.783699Z,1697900213783
-1.2496328353881836,0.059602051973342896,1.0795435905456543,2023-10-21T14:56:53.803936Z,1697900213803
-1.398653507232666,0.18982356786727905,1.1182498931884766,2023-10-21T14:56:53.824167Z,1697900213824
-1.5059285163879395,0.3367372751235962,1.1014189720153809,2023-10-21T14:56:53.844351Z,1697900213844
-1.5669503211975098,0.48586833477020264,1.0350689888000488,2023-10-21T14:56:53.864704Z,1697900213864
-1.5768218040466309,0.6201052665710449,0.9272427558898926,2023-10-21T14:56:53.884964Z,1697900213884
-1.5253005027770996,0.7165977954864502,0.7884948253631592,2023-10-21T14:56:53.905234Z,1697900213905
-1.431532382965088,0.7706074714660645,0.6440761089324951,2023-10-21T14:56:53.925448Z,1697900213925
-1.320448398590088,0.789750337600708,0.512566089630127,2023-10-21T14:56:53.947907Z,1697900213947
-1.2080392837524414,0.7845258712768555,0.398967981338501,2023-10-21T14:56:53.966010Z,1697900213965
-1.0920209884643555,0.7547340393066406,0.30008113384246826,2023-10-21T14:56:53.986325Z,1697900213986
-0.9691781997680664,0.6979618072509766,0.21793556213378906,2023-10-21T14:56:54.006544Z,1697900214006
-0.8603968620300293,0.6345171928405762,0.1576904058456421,2023-10-21T14:56:54.026740Z,1697900214026
-0.7822709083557129,0.5830473899841309,0.1179283857345581,2023-10-21T14:56:54.047995Z,1697900214047
-0.7325544357299805,0.545567512512207,0.09321272373199463,2023-10-21T14:56:54.067385Z,1697900214067
-0.702857494354248,0.5176920890808105,0.07898902893066406,2023-10-21T14:56:54.087641Z,1697900214087
-0.687467098236084,0.49660444259643555,0.07120561599731445,2023-10-21T14:56:54.107875Z,1697900214107
-0.6714019775390625,0.47132349014282227,0.06684470176696777,2023-10-21T14:56:54.131431Z,1697900214131
-0.6427173614501953,0.43425989151000977,0.06394004821777344,2023-10-21T14:56:54.148349Z,1697900214148
-0.5984344482421875,0.3853740692138672,0.06216543912887573,2023-10-21T14:56:54.168659Z,1697900214168
-0.5520033836364746,0.3358345031738281,0.062090277671813965,2023-10-21T14:56:54.188937Z,1697900214188
-0.5206084251403809,0.29737043380737305,0.06376665830612183,2023-10-21T14:56:54.209145Z,1697900214209
-0.4992046356201172,0.2657155990600586,0.06616318225860596,2023-10-21T14:56:54.230992Z,1697900214230
-0.4767894744873047,0.23417282104492188,0.06771445274353027,2023-10-21T14:56:54.249711Z,1697900214249
-0.4466676712036133,0.20017385482788086,0.06723499298095703,2023-10-21T14:56:54.269976Z,1697900214269
-0.40793704986572266,0.16475439071655273,0.06429874897003174,2023-10-21T14:56:54.290213Z,1697900214290
-0.3649864196777344,0.13109779357910156,0.059590816497802734,2023-10-21T14:56:54.310426Z,1697900214310
-0.3211650848388672,0.10102009773254395,0.05395245552062988,2023-10-21T14:56:54.330883Z,1697900214330
-0.28024768829345703,0.07566714286804199,0.04832124710083008,2023-10-21T14:56:54.351078Z,1697900214351
-0.24411964416503906,0.0549321174621582,0.043273091316223145,2023-10-21T14:56:54.371319Z,1697900214371
-0.2118854522705078,0.03796243667602539,0.0387570858001709,2023-10-21T14:56:54.391552Z,1697900214391
-0.18146705627441406,0.02402031421661377,0.03441202640533447,2023-10-21T14:56:54.414289Z,1697900214414
-0.14799022674560547,0.012559831142425537,0.02921760082244873,2023-10-21T14:56:54.432085Z,1697900214432
-0.10941886901855469,0.004053205251693726,0.02257859706878662,2023-10-21T14:56:54.452354Z,1697900214452
-0.06833362579345703,-7.724910974502563E-4,0.014796972274780273,2023-10-21T14:56:54.472657Z,1697900214472
-0.027670860290527344,-0.0016744136810302734,0.0063130855560302734,2023-10-21T14:56:54.492882Z,1697900214492
0.012724876403808594,0.0014107227325439453,-0.0030660629272460938,2023-10-21T14:56:54.514200Z,1697900214514
0.05352783203125,0.008700728416442871,-0.01361846923828125,2023-10-21T14:56:54.533440Z,1697900214533
0.09569263458251953,0.020603418350219727,-0.025644302368164062,2023-10-21T14:56:54.553680Z,1697900214553
0.13818836212158203,0.037137508392333984,-0.03884458541870117,2023-10-21T14:56:54.573920Z,1697900214573
0.17791271209716797,0.057358741760253906,-0.052247047424316406,2023-10-21T14:56:54.594199Z,1697900214594
0.21082019805908203,0.0792844295501709,-0.0644373893737793,2023-10-21T14:56:54.614422Z,1697900214614
0.23455142974853516,0.10087227821350098,-0.0744321346282959,2023-10-21T14:56:54.634760Z,1697900214634
0.2486104965209961,0.12051773071289062,-0.08180022239685059,2023-10-21T14:56:54.654942Z,1697900214654
0.2554178237915039,0.13794326782226562,-0.08705520629882812,2023-10-21T14:56:54.675230Z,1697900214675
0.2574005126953125,0.15326452255249023,-0.09076523780822754,2023-10-21T14:56:54.697481Z,1697900214697
0.25704097747802734,0.16709232330322266,-0.09361839294433594,2023-10-21T14:56:54.715771Z,1697900214715
0.25556087493896484,0.17969846725463867,-0.09598278999328613,2023-10-21T14:56:54.736089Z,1697900214736
0.2513132095336914,0.18955516815185547,-0.09722566604614258,2023-10-21T14:56:54.756318Z,1697900214756
0.24201583862304688,0.1943984031677246,-0.09641528129577637,2023-10-21T14:56:54.776509Z,1697900214776
0.22675180435180664,0.19276952743530273,-0.09305739402770996,2023-10-21T14:56:54.797273Z,1697900214797
0.20804643630981445,0.18613862991333008,-0.08799910545349121,2023-10-21T14:56:54.817096Z,1697900214817
0.18925762176513672,0.17728281021118164,-0.0824880599975586,2023-10-21T14:56:54.837404Z,1697900214837
0.17278289794921875,0.1686239242553711,-0.0774850845336914,2023-10-21T14:56:54.857579Z,1697900214857
0.15816211700439453,0.16016578674316406,-0.07282066345214844,2023-10-21T14:56:54.880600Z,1697900214880
0.14406776428222656,0.15096187591552734,-0.06793475151062012,2023-10-21T14:56:54.898113Z,1697900214898
0.12966251373291016,0.14035844802856445,-0.062463998794555664,2023-10-21T14:56:54.918437Z,1697900214918
0.11567115783691406,0.12917566299438477,-0.05677604675292969,2023-10-21T14:56:54.938680Z,1697900214938
0.10405874252319336,0.11962747573852539,-0.05186176300048828,2023-10-21T14:56:54.958887Z,1697900214958
0.09652471542358398,0.1138763427734375,-0.04865312576293945,2023-10-21T14:56:54.980357Z,1697900214980
0.09357261657714844,0.11285829544067383,-0.04748106002807617,2023-10-21T14:56:54.999511Z,1697900214999
0.0942678451538086,0.1157827377319336,-0.047931671142578125,2023-10-21T14:56:55.019784Z,1697900215019
0.0970926284790039,0.12098407745361328,-0.049299001693725586,2023-10-21T14:56:55.039959Z,1697900215039
0.10094261169433594,0.1271524429321289,-0.05110812187194824,2023-10-21T14:56:55.060181Z,1697900215060
0.1057577133178711,0.13414573669433594,-0.05340743064880371,2023-10-21T14:56:55.080497Z,1697900215080
0.1116480827331543,0.14197778701782227,-0.05632376670837402,2023-10-21T14:56:55.100805Z,1697900215100
0.1184377670288086,0.15032243728637695,-0.05982851982116699,2023-10-21T14:56:55.121043Z,1697900215121
0.12591075897216797,0.15891408920288086,-0.06390213966369629,2023-10-21T14:56:55.141284Z,1697900215141
0.1340465545654297,0.1678614616394043,-0.06861591339111328,2023-10-21T14:56:55.163722Z,1697900215163
0.14237689971923828,0.17678308486938477,-0.0738229751586914,2023-10-21T14:56:55.181865Z,1697900215181
0.1504812240600586,0.18537282943725586,-0.07944059371948242,2023-10-21T14:56:55.202121Z,1697900215202
0.15780019760131836,0.19311189651489258,-0.08530378341674805,2023-10-21T14:56:55.222347Z,1697900215222
0.16441774368286133,0.20012998580932617,-0.09148597717285156,2023-10-21T14:56:55.242593Z,1697900215242
0.17127418518066406,0.20751476287841797,-0.0984349250793457,2023-10-21T14:56:55.263605Z,1697900215263
0.1790637969970703,0.2160491943359375,-0.10643148422241211,2023-10-21T14:56:55.283147Z,1697900215283
0.18756628036499023,0.2254805564880371,-0.11527085304260254,2023-10-21T14:56:55.303467Z,1697900215303
0.1958904266357422,0.23472166061401367,-0.12434124946594238,2023-10-21T14:56:55.323653Z,1697900215323
0.2031865119934082,0.24265432357788086,-0.1330578327178955,2023-10-21T14:56:55.346885Z,1697900215346
0.20968866348266602,0.24935245513916016,-0.1414949893951416,2023-10-21T14:56:55.364192Z,1697900215364
0.21676063537597656,0.25615406036376953,-0.15046405792236328,2023-10-21T14:56:55.384505Z,1697900215384
0.22576141357421875,0.2643404006958008,-0.16076946258544922,2023-10-21T14:56:55.404767Z,1697900215404
0.23763084411621094,0.2746458053588867,-0.17292165756225586,2023-10-21T14:56:55.424951Z,1697900215424
0.25218963623046875,0.28667449951171875,-0.18670082092285156,2023-10-21T14:56:55.446658Z,1697900215446
0.26770544052124023,0.29840660095214844,-0.20076799392700195,2023-10-21T14:56:55.465552Z,1697900215465
0.28215885162353516,0.30768871307373047,-0.21359634399414062,2023-10-21T14:56:55.485836Z,1697900215485
0.2948756217956543,0.3138880729675293,-0.2247309684753418,2023-10-21T14:56:55.506087Z,1697900215506
0.3067445755004883,0.31804561614990234,-0.2349839210510254,2023-10-21T14:56:55.526256Z,1697900215526
0.3187122344970703,0.3212556838989258,-0.24514389038085938,2023-10-21T14:56:55.546730Z,1697900215546
0.33075428009033203,0.3236823081970215,-0.25521230697631836,2023-10-21T14:56:55.566909Z,1697900215566
0.341768741607666,0.3245534896850586,-0.2643580436706543,2023-10-21T14:56:55.587104Z,1697900215587
0.3506155014038086,0.3232269287109375,-0.27173948287963867,2023-10-21T14:56:55.607352Z,1697900215607
0.3557605743408203,0.3187727928161621,-0.27618932723999023,2023-10-21T14:56:55.630064Z,1697900215630
0.35530805587768555,0.30993080139160156,-0.27617359161376953,2023-10-21T14:56:55.647888Z,1697900215647
0.34909915924072266,0.2968320846557617,-0.2714381217956543,2023-10-21T14:56:55.668196Z,1697900215668
0.3387160301208496,0.2809624671936035,-0.2630786895751953,2023-10-21T14:56:55.688474Z,1697900215688
0.3262057304382324,0.26407814025878906,-0.25249814987182617,2023-10-21T14:56:55.708655Z,1697900215708
0.3121614456176758,0.24666309356689453,-0.239990234375,2023-10-21T14:56:55.729918Z,1697900215729
0.29590511322021484,0.22824430465698242,-0.2250518798828125,2023-10-21T14:56:55.749282Z,1697900215749
0.27672624588012695,0.20833444595336914,-0.20732355117797852,2023-10-21T14:56:55.769543Z,1697900215769
0.2546825408935547,0.18709993362426758,-0.18723440170288086,2023-10-21T14:56:55.789753Z,1697900215789
0.23024463653564453,0.16503334045410156,-0.16552257537841797,2023-10-21T14:56:55.813311Z,1697900215813
0.20444202423095703,0.14303112030029297,-0.14330244064331055,2023-10-21T14:56:55.830382Z,1697900215830
0.17865848541259766,0.1221318244934082,-0.12177753448486328,2023-10-21T14:56:55.850546Z,1697900215850
0.15317058563232422,0.10250186920166016,-0.10129690170288086,2023-10-21T14:56:55.870755Z,1697900215870
0.1265091896057129,0.08307886123657227,-0.08101701736450195,2023-10-21T14:56:55.891052Z,1697900215891
0.09640979766845703,0.062314510345458984,-0.059722900390625,2023-10-21T14:56:55.913220Z,1697900215913
0.06214332580566406,0.03967714309692383,-0.0372319221496582,2023-10-21T14:56:55.931609Z,1697900215931
0.024904251098632812,0.015772342681884766,-0.014441967010498047,2023-10-21T14:56:55.951890Z,1697900215951
-0.012557029724121094,-0.00792837142944336,0.007061004638671875,2023-10-21T14:56:55.972087Z,1697900215972
-0.04742860794067383,-0.03002309799194336,0.025922775268554688,2023-10-21T14:56:55.992348Z,1697900215992
-0.07710409164428711,-0.0492405891418457,0.04107785224914551,2023-10-21T14:56:56.013096Z,1697900216013
-0.09882354736328125,-0.06408309936523438,0.05148935317993164,2023-10-21T14:56:56.032905Z,1697900216032
-0.10999298095703125,-0.07288694381713867,0.056281328201293945,2023-10-21T14:56:56.053237Z,1697900216053
-0.10910987854003906,-0.07434225082397461,0.05511164665222168,2023-10-21T14:56:56.073440Z,1697900216073
-0.09458494186401367,-0.06663846969604492,0.0474393367767334,2023-10-21T14:56:56.096406Z,1697900216096
-0.06483030319213867,-0.04743623733520508,0.03249526023864746,2023-10-21T14:56:56.113943Z,1697900216113
-0.018944740295410156,-0.014438152313232422,0.009553909301757812,2023-10-21T14:56:56.134269Z,1697900216134
0.042699337005615234,0.033962249755859375,-0.021834135055541992,2023-10-21T14:56:56.154511Z,1697900216154
0.11680364608764648,0.09707880020141602,-0.06101632118225098,2023-10-21T14:56:56.174732Z,1697900216174
0.19949769973754883,0.17344188690185547,-0.10729694366455078,2023-10-21T14:56:56.196325Z,1697900216196
0.2872185707092285,0.26142406463623047,-0.16028809547424316,2023-10-21T14:56:56.215341Z,1697900216215
0.3780241012573242,0.3604588508605957,-0.22070860862731934,2023-10-21T14:56:56.235591Z,1697900216235
0.47083044052124023,0.4704766273498535,-0.2899172306060791,2023-10-21T14:56:56.255806Z,1697900216255
0.5648283958435059,0.5910587310791016,-0.3694572448730469,2023-10-21T14:56:56.276013Z,1697900216275
0.6591730117797852,0.720707893371582,-0.46053218841552734,2023-10-21T14:56:56.296311Z,1697900216296
0.7525715827941895,0.8564944267272949,-0.5636940002441406,2023-10-21T14:56:56.316611Z,1697900216316
0.8411798477172852,0.9915685653686523,-0.6765375137329102,2023-10-21T14:56:56.336887Z,1697900216336
0.9201345443725586,1.1163959503173828,-0.7933053970336914,2023-10-21T14:56:56.357172Z,1697900216357
0.9889359474182129,1.2258291244506836,-0.9110469818115234,2023-10-21T14:56:56.379583Z,1697900216379
1.041226863861084,1.3071246147155762,-1.0175576210021973,2023-10-21T14:56:56.397714Z,1697900216397
1.0814695358276367,1.358748435974121,-1.1077237129211426,2023-10-21T14:56:56.417951Z,1697900216417
1.1148157119750977,1.3845138549804688,-1.180868148803711,2023-10-21T14:56:56.438174Z,1697900216438
1.1409282684326172,1.3852672576904297,-1.234623908996582,2023-10-21T14:56:56.458364Z,1697900216458
1.1606154441833496,1.3679113388061523,-1.2742376327514648,2023-10-21T14:56:56.479496Z,1697900216479
1.1613497734069824,1.3235406875610352,-1.288595199584961,2023-10-21T14:56:56.498978Z,1697900216498
1.1398544311523438,1.2504258155822754,-1.2716903686523438,2023-10-21T14:56:56.519311Z,1697900216519
1.0985264778137207,1.153294563293457,-1.2243952751159668,2023-10-21T14:56:56.539555Z,1697900216539
1.0392541885375977,1.0374031066894531,-1.1497316360473633,2023-10-21T14:56:56.562786Z,1697900216562
0.9597892761230469,0.9046754837036133,-1.046764850616455,2023-10-21T14:56:56.580082Z,1697900216580
0.8663215637207031,0.7659025192260742,-0.9270119667053223,2023-10-21T14:56:56.600317Z,1697900216600
0.7554116249084473,0.6234383583068848,-0.792360782623291,2023-10-21T14:56:56.620549Z,1697900216620
0.620758056640625,0.47521543502807617,-0.638209342956543,2023-10-21T14:56:56.640737Z,1697900216640
0.45982837677001953,0.32317209243774414,-0.4627842903137207,2023-10-21T14:56:56.662649Z,1697900216662
0.26828622817993164,0.1700448989868164,-0.2626476287841797,2023-10-21T14:56:56.681332Z,1697900216681
0.06011533737182617,0.03355050086975098,-0.05672264099121094,2023-10-21T14:56:56.701616Z,1697900216701
-0.15813446044921875,-0.07562947273254395,0.14262819290161133,2023-10-21T14:56:56.721805Z,1697900216721
-0.38426828384399414,-0.1524066925048828,0.32886552810668945,2023-10-21T14:56:56.742036Z,1697900216742
-0.6127161979675293,-0.19307565689086914,0.4943423271179199,2023-10-21T14:56:56.762549Z,1697900216762
-0.835047721862793,-0.19661223888397217,0.6314053535461426,2023-10-21T14:56:56.782668Z,1697900216782
-1.0439486503601074,-0.16587567329406738,0.7356634140014648,2023-10-21T14:56:56.802947Z,1697900216802
-1.2345895767211914,-0.10652166604995728,0.8055539131164551,2023-10-21T14:56:56.823135Z,1697900216823
-1.3991799354553223,-0.02585524320602417,0.8387722969055176,2023-10-21T14:56:56.845912Z,1697900216845
-1.5259017944335938,0.06610214710235596,0.834270715713501,2023-10-21T14:56:56.863677Z,1697900216863
-1.6112279891967773,0.1585925817489624,0.7974884510040283,2023-10-21T14:56:56.883987Z,1697900216883
-1.6460065841674805,0.24053263664245605,0.7366139888763428,2023-10-21T14:56:56.904256Z,1697900216904
-1.6427183151245117,0.3073906898498535,0.6699721813201904,2023-10-21T14:56:56.924472Z,1697900216924
-1.6141653060913086,0.360567569732666,0.6083583831787109,2023-10-21T14:56:56.945787Z,1697900216945
-1.5652251243591309,0.4001641273498535,0.5546908378601074,2023-10-21T14:56:56.965091Z,1697900216965
-1.4971561431884766,0.4269287586212158,0.5044400691986084,2023-10-21T14:56:56.985337Z,1697900216985
-1.396615982055664,0.43381690979003906,0.45193004608154297,2023-10-21T14:56:57.005542Z,1697900217005
-1.2679443359375,0.42066311836242676,0.39909982681274414,2023-10-21T14:56:57.029107Z,1697900217029
-1.1221771240234375,0.3919944763183594,0.34787917137145996,2023-10-21T14:56:57.046154Z,1697900217046
-0.9682416915893555,0.3520934581756592,0.2983076572418213,2023-10-21T14:56:57.066373Z,1697900217066
-0.8081350326538086,0.30246424674987793,0.24944376945495605,2023-10-21T14:56:57.086591Z,1697900217086
-0.6487493515014648,0.24742341041564941,0.20070195198059082,2023-10-21T14:56:57.106831Z,1697900217106
-0.48633289337158203,0.18663907051086426,0.14975857734680176,2023-10-21T14:56:57.128900Z,1697900217128
-0.3240375518798828,0.12303686141967773,0.09849071502685547,2023-10-21T14:56:57.147413Z,1697900217147
-0.1676492691040039,0.06185603141784668,0.04989051818847656,2023-10-21T14:56:57.167690Z,1697900217167
-0.02240467071533203,0.007878303527832031,0.006532430648803711,2023-10-21T14:56:57.187879Z,1697900217187
0.09980106353759766,-0.03294873237609863,-0.02861642837524414,2023-10-21T14:56:57.208157Z,1697900217208
0.20487022399902344,-0.06263923645019531,-0.057958364486694336,2023-10-21T14:56:57.228715Z,1697900217228
0.3015718460083008,-0.08411073684692383,-0.08458924293518066,2023-10-21T14:56:57.248771Z,1697900217248
0.39388275146484375,-0.09859061241149902,-0.1101369857788086,2023-10-21T14:56:57.269039Z,1697900217268
0.4786100387573242,-0.1056363582611084,-0.1341254711151123,2023-10-21T14:56:57.289276Z,1697900217289
0.5495443344116211,-0.10466206073760986,-0.15512347221374512,2023-10-21T14:56:57.312326Z,1697900217312
0.6048088073730469,-0.09653687477111816,-0.17285680770874023,2023-10-21T14:56:57.329769Z,1697900217329
0.6458139419555664,-0.08274722099304199,-0.18787097930908203,2023-10-21T14:56:57.350070Z,1697900217350
0.6717653274536133,-0.06444412469863892,-0.19991087913513184,2023-10-21T14:56:57.370318Z,1697900217370
0.6811666488647461,-0.04269510507583618,-0.20819497108459473,2023-10-21T14:56:57.390565Z,1697900217390
0.6726236343383789,-0.018601685762405396,-0.21171331405639648,2023-10-21T14:56:57.412161Z,1697900217412
0.646209716796875,0.006347149610519409,-0.20963644981384277,2023-10-21T14:56:57.431128Z,1697900217431
0.6042346954345703,0.030295997858047485,-0.20189118385314941,2023-10-21T14:56:57.451430Z,1697900217451
0.5503568649291992,0.05126279592514038,-0.18906402587890625,2023-10-21T14:56:57.471565Z,1697900217471
0.49224185943603516,0.06820178031921387,-0.17349839210510254,2023-10-21T14:56:57.491808Z,1697900217491
0.43619537353515625,0.0811760425567627,-0.15753626823425293,2023-10-21T14:56:57.512143Z,1697900217512
0.3843250274658203,0.0905759334564209,-0.14220595359802246,2023-10-21T14:56:57.532487Z,1697900217532
0.3365020751953125,0.09669852256774902,-0.12775397300720215,2023-10-21T14:56:57.552668Z,1697900217552
0.29317188262939453,0.10002732276916504,-0.11452221870422363,2023-10-21T14:56:57.572907Z,1697900217572
0.2541618347167969,0.10086822509765625,-0.10253095626831055,2023-10-21T14:56:57.595348Z,1697900217595
0.2188873291015625,0.09930634498596191,-0.09150457382202148,2023-10-21T14:56:57.613446Z,1697900217613
0.1876821517944336,0.0958404541015625,-0.0815880298614502,2023-10-21T14:56:57.633757Z,1697900217633
0.16193771362304688,0.09177494049072266,-0.07341861724853516,2023-10-21T14:56:57.653949Z,1697900217653
0.14430952072143555,0.08968496322631836,-0.06838679313659668,2023-10-21T14:56:57.674233Z,1697900217674
0.1354198455810547,0.09139060974121094,-0.06714653968811035,2023-10-21T14:56:57.695265Z,1697900217695
0.13313770294189453,0.09676551818847656,-0.06899309158325195,2023-10-21T14:56:57.714823Z,1697900217714
0.13424301147460938,0.10432624816894531,-0.0724787712097168,2023-10-21T14:56:57.735126Z,1697900217735
0.13519620895385742,0.11155128479003906,-0.07566165924072266,2023-10-21T14:56:57.755332Z,1697900217755
0.13417673110961914,0.11666727066040039,-0.07730531692504883,2023-10-21T14:56:57.778585Z,1697900217778
0.13234424591064453,0.12027645111083984,-0.07786822319030762,2023-10-21T14:56:57.795837Z,1697900217795
0.1311335563659668,0.12353897094726562,-0.0781407356262207,2023-10-21T14:56:57.816153Z,1697900217816
0.13059186935424805,0.12666034698486328,-0.07824826240539551,2023-10-21T14:56:57.836406Z,1697900217836
0.12835073471069336,0.12756586074829102,-0.07693076133728027,2023-10-21T14:56:57.856637Z,1697900217856
0.12201452255249023,0.12391185760498047,-0.07293272018432617,2023-10-21T14:56:57.878376Z,1697900217878
0.11013555526733398,0.11404848098754883,-0.0655510425567627,2023-10-21T14:56:57.897170Z,1697900217897
0.09396886825561523,0.09900236129760742,-0.055652618408203125,2023-10-21T14:56:57.917468Z,1697900217917
0.07694721221923828,0.08224153518676758,-0.045334815979003906,2023-10-21T14:56:57.937698Z,1697900217937
0.06316995620727539,0.068267822265625,-0.037024497985839844,2023-10-21T14:56:57.957934Z,1697900217957
0.055441856384277344,0.06038379669189453,-0.032324790954589844,2023-10-21T14:56:57.978393Z,1697900217978
0.05365705490112305,0.058757781982421875,-0.031131744384765625,2023-10-21T14:56:57.998537Z,1697900217998
0.05689048767089844,0.06255388259887695,-0.03287935256958008,2023-10-21T14:56:58.018772Z,1697900218018
0.06533288955688477,0.07203912734985352,-0.03765058517456055,2023-10-21T14:56:58.038959Z,1697900218038
0.08022212982177734,0.08852672576904297,-0.04613804817199707,2023-10-21T14:56:58.061914Z,1697900218061
0.1019587516784668,0.1122899055480957,-0.05855894088745117,2023-10-21T14:56:58.079638Z,1697900218079
0.1291818618774414,0.14156818389892578,-0.07415056228637695,2023-10-21T14:56:58.099852Z,1697900218099
0.1591792106628418,0.1731095314025879,-0.09139156341552734,2023-10-21T14:56:58.120099Z,1697900218120
0.18921184539794922,0.20375442504882812,-0.10882186889648438,2023-10-21T14:56:58.140272Z,1697900218140
0.21698284149169922,0.2310023307800293,-0.12529468536376953,2023-10-21T14:56:58.161593Z,1697900218161
0.24113035202026367,0.2535567283630371,-0.14029765129089355,2023-10-21T14:56:58.180881Z,1697900218180
0.2611961364746094,0.271087646484375,-0.1537768840789795,2023-10-21T14:56:58.201192Z,1697900218201
0.2774696350097656,0.2839188575744629,-0.16602754592895508,2023-10-21T14:56:58.221381Z,1697900218221
0.29093313217163086,0.2930107116699219,-0.1776266098022461,2023-10-21T14:56:58.244953Z,1697900218244
0.30319881439208984,0.30001020431518555,-0.18950796127319336,2023-10-21T14:56:58.262030Z,1697900218261
0.31601572036743164,0.30681705474853516,-0.20275402069091797,2023-10-21T14:56:58.282239Z,1697900218282
0.3300290107727051,0.31426334381103516,-0.21778297424316406,2023-10-21T14:56:58.302678Z,1697900218302
0.3452739715576172,0.3223609924316406,-0.23456335067749023,2023-10-21T14:56:58.322638Z,1697900218322
0.3609647750854492,0.33012962341308594,-0.2523841857910156,2023-10-21T14:56:58.343702Z,1697900218343
0.37691831588745117,0.3370656967163086,-0.270841121673584,2023-10-21T14:56:58.363271Z,1697900218363
0.3931465148925781,0.3429408073425293,-0.2897071838378906,2023-10-21T14:56:58.383551Z,1697900218383
0.40987396240234375,0.3478555679321289,-0.30899858474731445,2023-10-21T14:56:58.403790Z,1697900218403
0.4268827438354492,0.35160017013549805,-0.32845306396484375,2023-10-21T14:56:58.423964Z,1697900218423
0.44199609756469727,0.35254955291748047,-0.34631776809692383,2023-10-21T14:56:58.446142Z,1697900218446
0.4517979621887207,0.3483905792236328,-0.35984325408935547,2023-10-21T14:56:58.464582Z,1697900218464
0.4531745910644531,0.3373255729675293,-0.3664407730102539,2023-10-21T14:56:58.484869Z,1697900218484
0.44597482681274414,0.3198661804199219,-0.3658585548400879,2023-10-21T14:56:58.505125Z,1697900218505
0.43225765228271484,0.2981128692626953,-0.35968923568725586,2023-10-21T14:56:58.528223Z,1697900218528
0.41381120681762695,0.27391576766967773,-0.3493828773498535,2023-10-21T14:56:58.545688Z,1697900218545
0.3911299705505371,0.2481517791748047,-0.33527374267578125,2023-10-21T14:56:58.566015Z,1697900218565
0.3642115592956543,0.22124290466308594,-0.31712770462036133,2023-10-21T14:56:58.586120Z,1697900218586
0.33352231979370117,0.19379639625549316,-0.29503488540649414,2023-10-21T14:56:58.606335Z,1697900218606
0.30027198791503906,0.16676855087280273,-0.26976966857910156,2023-10-21T14:56:58.628180Z,1697900218628
0.26592016220092773,0.14109206199645996,-0.24244451522827148,2023-10-21T14:56:58.647031Z,1697900218646
0.23218059539794922,0.11763834953308105,-0.2145075798034668,2023-10-21T14:56:58.667230Z,1697900218667
0.20066118240356445,0.09704756736755371,-0.18744277954101562,2023-10-21T14:56:58.687453Z,1697900218687
0.17158937454223633,0.07920980453491211,-0.16159534454345703,2023-10-21T14:56:58.707647Z,1697900218707
0.14450407028198242,0.06374073028564453,-0.13672161102294922,2023-10-21T14:56:58.727957Z,1697900218727
0.11977052688598633,0.05060982704162598,-0.1133890151977539,2023-10-21T14:56:58.748291Z,1697900218748
0.09889650344848633,0.04021596908569336,-0.09326314926147461,2023-10-21T14:56:58.768506Z,1697900218768
0.0839090347290039,0.033054351806640625,-0.07845735549926758,2023-10-21T14:56:58.788746Z,1697900218788
0.07716512680053711,0.02970719337463379,-0.07122516632080078,2023-10-21T14:56:58.811194Z,1697900218811
0.08156967163085938,0.03101968765258789,-0.07403898239135742,2023-10-21T14:56:58.829283Z,1697900218829
0.10073089599609375,0.0383145809173584,-0.08960628509521484,2023-10-21T14:56:58.849587Z,1697900218849
0.13602018356323242,0.052448272705078125,-0.11827564239501953,2023-10-21T14:56:58.869842Z,1697900218869
0.18582630157470703,0.07356762886047363,-0.15758609771728516,2023-10-21T14:56:58.890044Z,1697900218890
0.24612712860107422,0.10110902786254883,-0.2030658721923828,2023-10-21T14:56:58.910966Z,1697900218910
0.3139829635620117,0.1348261833190918,-0.25135183334350586,2023-10-21T14:56:58.930607Z,1697900218930
0.3880882263183594,0.1748809814453125,-0.30069494247436523,2023-10-21T14:56:58.950911Z,1697900218950
0.4673142433166504,0.22118544578552246,-0.34996843338012695,2023-10-21T14:56:58.971101Z,1697900218971
0.5490550994873047,0.27266407012939453,-0.3975353240966797,2023-10-21T14:56:58.994374Z,1697900218994
0.6274738311767578,0.3264148235321045,-0.4399909973144531,2023-10-21T14:56:59.011607Z,1697900219011
0.696075439453125,0.378995418548584,-0.47420167922973633,2023-10-21T14:56:59.031934Z,1697900219031
0.7503347396850586,0.42761659622192383,-0.49872875213623047,2023-10-21T14:56:59.052196Z,1697900219052
0.7907438278198242,0.4720621109008789,-0.5154714584350586,2023-10-21T14:56:59.072442Z,1697900219072
0.8223886489868164,0.5151848793029785,-0.5293846130371094,2023-10-21T14:56:59.094343Z,1697900219094
0.8542752265930176,0.5629959106445312,-0.548098087310791,2023-10-21T14:56:59.112981Z,1697900219112
0.8941402435302734,0.6219043731689453,-0.5787229537963867,2023-10-21T14:56:59.133296Z,1697900219133
0.9472579956054688,0.6977062225341797,-0.6272954940795898,2023-10-21T14:56:59.153529Z,1697900219153
1.0147218704223633,0.7936043739318848,-0.6971898078918457,2023-10-21T14:56:59.173717Z,1697900219173
1.0962982177734375,0.9111251831054688,-0.790989875793457,2023-10-21T14:56:59.194151Z,1697900219194
1.1922063827514648,1.050325870513916,-0.9114809036254883,2023-10-21T14:56:59.214327Z,1697900219214
1.2998042106628418,1.207167625427246,-1.0590219497680664,2023-10-21T14:56:59.234588Z,1697900219234
1.4097790718078613,1.37083101272583,-1.2276434898376465,2023-10-21T14:56:59.254817Z,1697900219254
1.5105981826782227,1.5254178047180176,-1.4058380126953125,2023-10-21T14:56:59.277380Z,1697900219277
1.5939135551452637,1.6535272598266602,-1.578155517578125,2023-10-21T14:56:59.295370Z,1697900219295
1.6534276008605957,1.7363810539245605,-1.7241930961608887,2023-10-21T14:56:59.315670Z,1697900219315
1.6874747276306152,1.7658534049987793,-1.8300657272338867,2023-10-21T14:56:59.335904Z,1697900219335
1.6934881210327148,1.742687702178955,-1.8887195587158203,2023-10-21T14:56:59.356115Z,1697900219356
1.670400619506836,1.6748700141906738,-1.9040861129760742,2023-10-21T14:56:59.377357Z,1697900219377
1.6193909645080566,1.5707249641418457,-1.8812131881713867,2023-10-21T14:56:59.396744Z,1697900219396
1.5395526885986328,1.433314323425293,-1.8174896240234375,2023-10-21T14:56:59.416975Z,1697900219416
1.4322667121887207,1.2683658599853516,-1.711076259613037,2023-10-21T14:56:59.437148Z,1697900219437
1.305964469909668,1.0885872840881348,-1.5702805519104004,2023-10-21T14:56:59.457364Z,1697900219457
1.1686224937438965,0.9074912071228027,-1.406367301940918,2023-10-21T14:56:59.477761Z,1697900219477
1.0265016555786133,0.7368006706237793,-1.2319207191467285,2023-10-21T14:56:59.498038Z,1697900219497
0.8869919776916504,0.5859155654907227,-1.0612983703613281,2023-10-21T14:56:59.518269Z,1697900219518
0.7524542808532715,0.4549834728240967,-0.8983550071716309,2023-10-21T14:56:59.538487Z,1697900219538
0.6237235069274902,0.3411083221435547,-0.7417020797729492,2023-10-21T14:56:59.560704Z,1697900219560
0.49774932861328125,0.24091768264770508,-0.5849051475524902,2023-10-21T14:56:59.579036Z,1697900219578
0.3698110580444336,0.15381479263305664,-0.42431163787841797,2023-10-21T14:56:59.599361Z,1697900219599
0.2377614974975586,0.08218598365783691,-0.2632308006286621,2023-10-21T14:56:59.619627Z,1697900219619
0.09804916381835938,0.02702784538269043,-0.10368204116821289,2023-10-21T14:56:59.639739Z,1697900219639
-0.055416107177734375,-0.011448979377746582,0.055432796478271484,2023-10-21T14:56:59.660555Z,1697900219660
-0.22150087356567383,-0.030678153038024902,0.20752620697021484,2023-10-21T14:56:59.680349Z,1697900219680
-0.39569520950317383,-0.028364360332489014,0.3437790870666504,2023-10-21T14:56:59.700650Z,1697900219700
-0.5757489204406738,-0.004242308437824249,0.4595456123352051,2023-10-21T14:56:59.720854Z,1697900219720
-0.7588901519775391,0.04051923751831055,0.5514416694641113,2023-10-21T14:56:59.743841Z,1697900219743
-0.9344215393066406,0.10278958082199097,0.6122303009033203,2023-10-21T14:56:59.761402Z,1697900219761
-1.0887484550476074,0.17622435092926025,0.637418270111084,2023-10-21T14:56:59.781708Z,1697900219781
-1.2120556831359863,0.2527707815170288,0.6309161186218262,2023-10-21T14:56:59.801938Z,1697900219801
-1.3006682395935059,0.3240731954574585,0.6044602394104004,2023-10-21T14:56:59.822216Z,1697900219822
-1.3553967475891113,0.38562798500061035,0.5693984031677246,2023-10-21T14:56:59.842414Z,1697900219842
-1.3729615211486816,0.4334838390350342,0.5303411483764648,2023-10-21T14:56:59.862723Z,1697900219862
-1.3499174118041992,0.4637746810913086,0.48592472076416016,2023-10-21T14:56:59.883029Z,1697900219882
-1.2852230072021484,0.4727199077606201,0.43555498123168945,2023-10-21T14:56:59.903217Z,1697900219903
-1.1771259307861328,0.4557058811187744,0.38065624237060547,2023-10-21T14:56:59.923519Z,1697900219923
-1.0286240577697754,0.4124157428741455,0.3232402801513672,2023-10-21T14:56:59.943731Z,1697900219943
-0.8529553413391113,0.349651575088501,0.26517677307128906,2023-10-21T14:56:59.963999Z,1697900219963
-0.66131591796875,0.2743265628814697,0.20618724822998047,2023-10-21T14:56:59.984357Z,1697900219984
-0.45995140075683594,0.1913285255432129,0.14465546607971191,2023-10-21T14:57:00.004634Z,1697900220004
-0.24910926818847656,0.1030879020690918,0.07867574691772461,2023-10-21T14:57:00.028233Z,1697900220028
-0.03069019317626953,0.012504100799560547,0.009650707244873047,2023-10-21T14:57:00.045067Z,1697900220045
0.1878795623779297,-0.07442045211791992,-0.058431386947631836,2023-10-21T14:57:00.065305Z,1697900220065
0.3941154479980469,-0.14985370635986328,-0.12149667739868164,2023-10-21T14:57:00.085669Z,1697900220085
0.5800809860229492,-0.20948028564453125,-0.17859125137329102,2023-10-21T14:57:00.105925Z,1697900220105
0.7427749633789062,-0.25307297706604004,-0.22953248023986816,2023-10-21T14:57:00.126908Z,1697900220126
0.8846406936645508,-0.28283166885375977,-0.2747814655303955,2023-10-21T14:57:00.146456Z,1697900220146
1.0105085372924805,-0.30098485946655273,-0.3156731128692627,2023-10-21T14:57:00.166740Z,1697900220166
1.1199188232421875,-0.30797863006591797,-0.3519771099090576,2023-10-21T14:57:00.186955Z,1697900220186
1.2098541259765625,-0.3038315773010254,-0.38254499435424805,2023-10-21T14:57:00.210173Z,1697900220210
1.2787666320800781,-0.289553165435791,-0.4064607620239258,2023-10-21T14:57:00.227443Z,1697900220227
1.325322151184082,-0.2663455009460449,-0.423128604888916,2023-10-21T14:57:00.247789Z,1697900220247
1.3480653762817383,-0.23524987697601318,-0.4323859214782715,2023-10-21T14:57:00.268067Z,1697900220268
1.3481521606445312,-0.19742846488952637,-0.43509840965270996,2023-10-21T14:57:00.288258Z,1697900220288
1.3274269104003906,-0.15364646911621094,-0.4323430061340332,2023-10-21T14:57:00.310119Z,1697900220310
1.2872304916381836,-0.10509604215621948,-0.4246385097503662,2023-10-21T14:57:00.328808Z,1697900220328
1.2258243560791016,-0.05337268114089966,-0.41117215156555176,2023-10-21T14:57:00.349069Z,1697900220349
1.143087387084961,-0.0017083827406167984,-0.391284704208374,2023-10-21T14:57:00.369309Z,1697900220369
1.0417165756225586,0.04630056023597717,-0.365189790725708,2023-10-21T14:57:00.389486Z,1697900220389
0.9259567260742188,0.08731508255004883,-0.3337585926055908,2023-10-21T14:57:00.410034Z,1697900220409
0.7992429733276367,0.11858296394348145,-0.2977001667022705,2023-10-21T14:57:00.430129Z,1697900220430
0.6668148040771484,0.1381295919418335,-0.25838184356689453,2023-10-21T14:57:00.450387Z,1697900220450
0.5375452041625977,0.1456470489501953,-0.21838879585266113,2023-10-21T14:57:00.470604Z,1697900220470
0.4204139709472656,0.1427171230316162,-0.18045282363891602,2023-10-21T14:57:00.493303Z,1697900220493
0.32267189025878906,0.13283658027648926,-0.1472306251525879,2023-10-21T14:57:00.511178Z,1697900220511
0.24700355529785156,0.120147705078125,-0.12038159370422363,2023-10-21T14:57:00.531469Z,1697900220531
0.19270086288452148,0.10840988159179688,-0.10069799423217773,2023-10-21T14:57:00.551726Z,1697900220551
0.15829706192016602,0.10133075714111328,-0.08902835845947266,2023-10-21T14:57:00.571917Z,1697900220571
0.14240550994873047,0.10239410400390625,-0.08646154403686523,2023-10-21T14:57:00.593125Z,1697900220593
0.14409780502319336,0.11508607864379883,-0.09459161758422852,2023-10-21T14:57:00.612570Z,1697900220612
0.16148900985717773,0.14164304733276367,-0.11448144912719727,2023-10-21T14:57:00.632823Z,1697900220632
0.18978118896484375,0.18067312240600586,-0.14472198486328125,2023-10-21T14:57:00.653059Z,1697900220653
0.22287988662719727,0.2277212142944336,-0.18171024322509766,2023-10-21T14:57:00.676588Z,1697900220676
0.25596094131469727,0.2780756950378418,-0.22161579132080078,2023-10-21T14:57:00.693653Z,1697900220693
0.2862238883972168,0.3283572196960449,-0.2615962028503418,2023-10-21T14:57:00.713817Z,1697900220713
0.3130650520324707,0.3773965835571289,-0.30054140090942383,2023-10-21T14:57:00.734072Z,1697900220734
0.3366107940673828,0.4247140884399414,-0.33794355392456055,2023-10-21T14:57:00.754300Z,1697900220754
0.3568229675292969,0.46926450729370117,-0.3729066848754883,2023-10-21T14:57:00.776484Z,1697900220776
0.37275266647338867,0.5086169242858887,-0.4035053253173828,2023-10-21T14:57:00.794859Z,1697900220794
0.3827071189880371,0.539341926574707,-0.427030086517334,2023-10-21T14:57:00.815194Z,1697900220815
0.38491201400756836,0.5581130981445312,-0.44079017639160156,2023-10-21T14:57:00.835376Z,1697900220835
0.37934446334838867,0.5637707710266113,-0.4439969062805176,2023-10-21T14:57:00.855609Z,1697900220855
0.3676948547363281,0.5575447082519531,-0.4379091262817383,2023-10-21T14:57:00.876380Z,1697900220876
0.35271596908569336,0.5423731803894043,-0.4252643585205078,2023-10-21T14:57:00.896195Z,1697900220896
0.33639955520629883,0.521052360534668,-0.40842628479003906,2023-10-21T14:57:00.916480Z,1697900220916
0.3192610740661621,0.49489545822143555,-0.3883194923400879,2023-10-21T14:57:00.936740Z,1697900220936
0.3006610870361328,0.46384620666503906,-0.36455297470092773,2023-10-21T14:57:00.959811Z,1697900220959
0.28021860122680664,0.4284076690673828,-0.3371577262878418,2023-10-21T14:57:00.977264Z,1697900220977
0.25894832611083984,0.3910813331604004,-0.3079214096069336,2023-10-21T14:57:00.997552Z,1697900220997
0.23900461196899414,0.3558540344238281,-0.2799248695373535,2023-10-21T14:57:01.017801Z,1697900221017
0.22272682189941406,0.3266420364379883,-0.2562856674194336,2023-10-21T14:57:01.038016Z,1697900221037
0.2107219696044922,0.30450439453125,-0.23778581619262695,2023-10-21T14:57:01.059674Z,1697900221059
0.2022080421447754,0.28831005096435547,-0.22350311279296875,2023-10-21T14:57:01.078576Z,1697900221078
0.19579172134399414,0.2758922576904297,-0.21178531646728516,2023-10-21T14:57:01.098854Z,1697900221098
0.19056272506713867,0.26572322845458984,-0.20153045654296875,2023-10-21T14:57:01.119063Z,1697900221119
0.1862940788269043,0.25725269317626953,-0.1924152374267578,2023-10-21T14:57:01.139303Z,1697900221139
0.18295526504516602,0.25019407272338867,-0.18432998657226562,2023-10-21T14:57:01.159609Z,1697900221159
0.18034791946411133,0.2440643310546875,-0.1770482063293457,2023-10-21T14:57:01.179918Z,1697900221179
0.1786494255065918,0.23881101608276367,-0.17066049575805664,2023-10-21T14:57:01.200284Z,1697900221200
0.1780834197998047,0.23447799682617188,-0.16529512405395508,2023-10-21T14:57:01.220461Z,1697900221220
0.17944622039794922,0.23187589645385742,-0.1615762710571289,2023-10-21T14:57:01.243040Z,1697900221243
0.18390512466430664,0.23235034942626953,-0.16043949127197266,2023-10-21T14:57:01.260909Z,1697900221260
0.1921391487121582,0.23662376403808594,-0.16233587265014648,2023-10-21T14:57:01.281225Z,1697900221281
0.20404529571533203,0.2444915771484375,-0.1670360565185547,2023-10-21T14:57:01.301491Z,1697900221301
0.21881484985351562,0.2548823356628418,-0.17375755310058594,2023-10-21T14:57:01.321720Z,1697900221321
0.23550748825073242,0.26657533645629883,-0.18166875839233398,2023-10-21T14:57:01.342694Z,1697900221342
0.2536911964416504,0.2790365219116211,-0.19045257568359375,2023-10-21T14:57:01.362327Z,1697900221362
0.2728548049926758,0.29172468185424805,-0.19977188110351562,2023-10-21T14:57:01.382583Z,1697900221382
0.29160261154174805,0.3033299446105957,-0.2087268829345703,2023-10-21T14:57:01.402809Z,1697900221402
0.30863142013549805,0.31264638900756836,-0.21649599075317383,2023-10-21T14:57:01.426098Z,1697900221426
0.32314395904541016,0.3190021514892578,-0.22265625,2023-10-21T14:57:01.443331Z,1697900221443
0.3347630500793457,0.3222007751464844,-0.22710847854614258,2023-10-21T14:57:01.463754Z,1697900221463
0.3431053161621094,0.32210493087768555,-0.22972536087036133,2023-10-21T14:57:01.484025Z,1697900221483
0.3475923538208008,0.31845998764038086,-0.2301783561706543,2023-10-21T14:57:01.504180Z,1697900221504
0.34795427322387695,0.3112521171569824,-0.22827863693237305,2023-10-21T14:57:01.526070Z,1697900221526
0.3445253372192383,0.30098724365234375,-0.2241973876953125,2023-10-21T14:57:01.544771Z,1697900221544
0.3379955291748047,0.2884554862976074,-0.21836185455322266,2023-10-21T14:57:01.564907Z,1697900221564
0.3292679786682129,0.27460432052612305,-0.21133899688720703,2023-10-21T14:57:01.585156Z,1697900221585
0.3193397521972656,0.2604227066040039,-0.20376825332641602,2023-10-21T14:57:01.605355Z,1697900221605
0.308347225189209,0.24615859985351562,-0.19573211669921875,2023-10-21T14:57:01.625788Z,1697900221625
0.2954597473144531,0.2313218116760254,-0.18668699264526367,2023-10-21T14:57:01.645965Z,1697900221645
0.279665470123291,0.2152700424194336,-0.1759495735168457,2023-10-21T14:57:01.666271Z,1697900221666
0.26110076904296875,0.19816923141479492,-0.16356468200683594,2023-10-21T14:57:01.686467Z,1697900221686
0.24045228958129883,0.18049955368041992,-0.14995098114013672,2023-10-21T14:57:01.709178Z,1697900221709
0.21811676025390625,0.16246461868286133,-0.13537073135375977,2023-10-21T14:57:01.727Z,1697900221726
0.19342327117919922,0.1434483528137207,-0.119415283203125,2023-10-21T14:57:01.747312Z,1697900221747
0.16536951065063477,0.1225285530090332,-0.10147333145141602,2023-10-21T14:57:01.767538Z,1697900221767
0.13373374938964844,0.09931755065917969,-0.0814523696899414,2023-10-21T14:57:01.787769Z,1697900221787
0.09938859939575195,0.07421016693115234,-0.059987545013427734,2023-10-21T14:57:01.809030Z,1697900221808
0.06426143646240234,0.04838228225708008,-0.03836870193481445,2023-10-21T14:57:01.828333Z,1697900221828
0.030872344970703125,0.023496150970458984,-0.018203258514404297,2023-10-21T14:57:01.848658Z,1697900221848
0.0014920234680175781,0.0011496543884277344,-8.668899536132812E-4,2023-10-21T14:57:01.868912Z,1697900221868
-0.02271556854248047,-0.017741680145263672,0.01300048828125,2023-10-21T14:57:01.892391Z,1697900221892
-0.0408940315246582,-0.03240346908569336,0.023024559020996094,2023-10-21T14:57:01.909549Z,1697900221909
-0.05228137969970703,-0.042063236236572266,0.02895069122314453,2023-10-21T14:57:01.929672Z,1697900221929
-0.055025577545166016,-0.04499101638793945,0.029978513717651367,2023-10-21T14:57:01.949917Z,1697900221949
-0.04670238494873047,-0.038817405700683594,0.02505779266357422,2023-10-21T14:57:01.970153Z,1697900221970
-0.026189804077148438,-0.022115230560302734,0.013861417770385742,2023-10-21T14:57:01.992290Z,1697900221992
0.005650043487548828,0.0048427581787109375,-0.0029582977294921875,2023-10-21T14:57:02.010676Z,1697900222010
0.04615592956542969,0.040116310119628906,-0.023970365524291992,2023-10-21T14:57:02.030975Z,1697900222030
0.09208440780639648,0.08114957809448242,-0.04763436317443848,2023-10-21T14:57:02.051250Z,1697900222051
0.14118242263793945,0.12618494033813477,-0.0730142593383789,2023-10-21T14:57:02.071470Z,1697900222071
0.19185829162597656,0.17401409149169922,-0.09956121444702148,2023-10-21T14:57:02.092173Z,1697900222092
0.24286890029907227,0.22370004653930664,-0.12692689895629883,2023-10-21T14:57:02.112057Z,1697900222112
0.2937593460083008,0.2750129699707031,-0.15526533126831055,2023-10-21T14:57:02.132325Z,1697900222132
0.34413909912109375,0.3278336524963379,-0.1849374771118164,2023-10-21T14:57:02.152536Z,1697900222152
0.3948698043823242,0.38349390029907227,-0.21724700927734375,2023-10-21T14:57:02.175360Z,1697900222175
0.44765806198120117,0.4446110725402832,-0.2543203830718994,2023-10-21T14:57:02.193071Z,1697900222193
0.5038480758666992,0.5137629508972168,-0.29829907417297363,2023-10-21T14:57:02.213366Z,1697900222213
0.564323902130127,0.5930047035217285,-0.35125184059143066,2023-10-21T14:57:02.233623Z,1697900222233
0.6294598579406738,0.6832890510559082,-0.4152562618255615,2023-10-21T14:57:02.253840Z,1697900222253
0.6996002197265625,0.7851753234863281,-0.49290037155151367,2023-10-21T14:57:02.275347Z,1697900222275
0.7748761177062988,0.8986167907714844,-0.5868663787841797,2023-10-21T14:57:02.294454Z,1697900222294
0.8539609909057617,1.0211539268493652,-0.6976838111877441,2023-10-21T14:57:02.314677Z,1697900222314
0.935297966003418,1.1486220359802246,-0.8240938186645508,2023-10-21T14:57:02.334889Z,1697900222334
1.0174121856689453,1.276111125946045,-0.9649534225463867,2023-10-21T14:57:02.355087Z,1697900222355
1.089982509613037,1.386518955230713,-1.1070542335510254,2023-10-21T14:57:02.375463Z,1697900222375
1.147115707397461,1.4659767150878906,-1.2372422218322754,2023-10-21T14:57:02.395753Z,1697900222395
1.1869850158691406,1.507737636566162,-1.3461055755615234,2023-10-21T14:57:02.416Z,1697900222415
1.2133092880249023,1.5137929916381836,-1.4333643913269043,2023-10-21T14:57:02.436193Z,1697900222436
1.2282047271728516,1.4913148880004883,-1.5027852058410645,2023-10-21T14:57:02.458608Z,1697900222458
1.2234563827514648,1.4353938102722168,-1.5439362525939941,2023-10-21T14:57:02.476774Z,1697900222476
1.1934890747070312,1.3431134223937988,-1.545170783996582,2023-10-21T14:57:02.497093Z,1697900222497
