ACC_X,ACC_Y,ACC_Z,DATE,UNIX_TIMESTAMP
0.04426455497741699,0.29094409942626953,0.08199071884155273,2023-10-21T15:03:09.034724Z,1697900589034
0.04787087440490723,0.2984161376953125,0.08604884147644043,2023-10-21T15:03:09.054812Z,1697900589054
0.047757625579833984,0.2691783905029297,0.07808589935302734,2023-10-21T15:03:09.075116Z,1697900589075
0.04122757911682129,0.22632884979248047,0.06455278396606445,2023-10-21T15:03:09.095373Z,1697900589095
0.03265511989593506,0.18937015533447266,0.05373883247375488,2023-10-21T15:03:09.117291Z,1697900589117
0.026447296142578125,0.15672683715820312,0.04393124580383301,2023-10-21T15:03:09.135924Z,1697900589135
0.025668025016784668,0.15584087371826172,0.04399728775024414,2023-10-21T15:03:09.156187Z,1697900589156
0.025354623794555664,0.16015148162841797,0.044802188873291016,2023-10-21T15:03:09.176446Z,1697900589176
0.021244287490844727,0.13742351531982422,0.038521528244018555,2023-10-21T15:03:09.196663Z,1697900589196
0.021990060806274414,0.14223384857177734,0.040155887603759766,2023-10-21T15:03:09.217987Z,1697900589217
0.03077566623687744,0.1866931915283203,0.05301165580749512,2023-10-21T15:03:09.237330Z,1697900589237
0.02813732624053955,0.17104339599609375,0.048577308654785156,2023-10-21T15:03:09.257564Z,1697900589257
0.02525043487548828,0.15517711639404297,0.04407072067260742,2023-10-21T15:03:09.277817Z,1697900589277
0.022360920906066895,0.13947677612304688,0.03966808319091797,2023-10-21T15:03:09.297945Z,1697900589297
0.019960641860961914,0.1254425048828125,0.03572678565979004,2023-10-21T15:03:09.318312Z,1697900589318
0.01860523223876953,0.11742687225341797,0.03347182273864746,2023-10-21T15:03:09.338586Z,1697900589338
0.01830756664276123,0.11569690704345703,0.03290867805480957,2023-10-21T15:03:09.358934Z,1697900589358
0.01950693130493164,0.1227426528930664,0.03483295440673828,2023-10-21T15:03:09.379048Z,1697900589379
0.021675825119018555,0.1355447769165039,0.03835773468017578,2023-10-21T15:03:09.401508Z,1697900589401
0.023445725440979004,0.14587116241455078,0.04114127159118652,2023-10-21T15:03:09.419627Z,1697900589419
0.024805068969726562,0.1535186767578125,0.043100833892822266,2023-10-21T15:03:09.439933Z,1697900589439
0.025904417037963867,0.1594562530517578,0.044568538665771484,2023-10-21T15:03:09.460210Z,1697900589460
0.027295351028442383,0.16715049743652344,0.04650378227233887,2023-10-21T15:03:09.480398Z,1697900589480
0.0295029878616333,0.17937183380126953,0.049689292907714844,2023-10-21T15:03:09.501070Z,1697900589501
0.03238344192504883,0.19556808471679688,0.053961753845214844,2023-10-21T15:03:09.520965Z,1697900589520
0.03471517562866211,0.20867633819580078,0.057454586029052734,2023-10-21T15:03:09.541266Z,1697900589541
0.036566734313964844,0.21896648406982422,0.060271263122558594,2023-10-21T15:03:09.561461Z,1697900589561
0.03672230243682861,0.21990013122558594,0.06061577796936035,2023-10-21T15:03:09.584389Z,1697900589584
0.03622150421142578,0.21707630157470703,0.059949398040771484,2023-10-21T15:03:09.602082Z,1697900589602
0.036196231842041016,0.21744728088378906,0.06013965606689453,2023-10-21T15:03:09.622301Z,1697900589622
0.03746533393859863,0.2255229949951172,0.06245732307434082,2023-10-21T15:03:09.642541Z,1697900589642
0.03925621509552002,0.23745346069335938,0.06592059135437012,2023-10-21T15:03:09.662737Z,1697900589662
0.041857004165649414,0.25513362884521484,0.07127714157104492,2023-10-21T15:03:09.684245Z,1697900589684
0.04498159885406494,0.2759590148925781,0.07790851593017578,2023-10-21T15:03:09.703384Z,1697900589703
0.030341267585754395,0.18587779998779297,0.052129507064819336,2023-10-21T15:03:09.723616Z,1697900589723
0.031342267990112305,0.1920309066772461,0.05389690399169922,2023-10-21T15:03:09.743840Z,1697900589743
0.03274714946746826,0.20052146911621094,0.056352853775024414,2023-10-21T15:03:09.764073Z,1697900589764
0.03456079959869385,0.21138858795166016,0.05952024459838867,2023-10-21T15:03:09.784391Z,1697900589784
0.036734580993652344,0.2243947982788086,0.06334137916564941,2023-10-21T15:03:09.804664Z,1697900589804
0.03916323184967041,0.2390604019165039,0.06769204139709473,2023-10-21T15:03:09.824943Z,1697900589824
0.041684746742248535,0.25455570220947266,0.07234597206115723,2023-10-21T15:03:09.845141Z,1697900589845
0.04418683052062988,0.27026939392089844,0.07714033126831055,2023-10-21T15:03:09.867149Z,1697900589867
0.04654407501220703,0.2855539321899414,0.08188986778259277,2023-10-21T15:03:09.885721Z,1697900589885
0.0486299991607666,0.2996997833251953,0.08638238906860352,2023-10-21T15:03:09.906040Z,1697900589905
0.05040109157562256,0.3124275207519531,0.09053421020507812,2023-10-21T15:03:09.926323Z,1697900589926
0.05181777477264404,0.3235445022583008,0.09429264068603516,2023-10-21T15:03:09.946452Z,1697900589946
0.05286610126495361,0.33294105529785156,0.09762096405029297,2023-10-21T15:03:09.967103Z,1697900589967
0.053574204444885254,0.34070587158203125,0.10053300857543945,2023-10-21T15:03:09.987066Z,1697900589987
0.05397224426269531,0.3467731475830078,0.10299563407897949,2023-10-21T15:03:10.007328Z,1697900590007
0.054162025451660156,0.3514413833618164,0.10509347915649414,2023-10-21T15:03:10.027595Z,1697900590027
0.05422031879425049,0.35498046875,0.10691380500793457,2023-10-21T15:03:10.050395Z,1697900590050
0.05413389205932617,0.3572969436645508,0.10843276977539062,2023-10-21T15:03:10.068168Z,1697900590068
0.05388319492340088,0.35831260681152344,0.10961675643920898,2023-10-21T15:03:10.088456Z,1697900590088
0.05355525016784668,0.3585958480834961,0.11062335968017578,2023-10-21T15:03:10.108617Z,1697900590108
0.05316352844238281,0.3584117889404297,0.11153864860534668,2023-10-21T15:03:10.128854Z,1697900590128
0.05260932445526123,0.3572998046875,0.11221671104431152,2023-10-21T15:03:10.150909Z,1697900590150
0.051801323890686035,0.3547706604003906,0.11249041557312012,2023-10-21T15:03:10.169397Z,1697900590169
0.05066251754760742,0.35013484954833984,0.11211395263671875,2023-10-21T15:03:10.189767Z,1697900590189
0.04920530319213867,0.34344959259033203,0.1110837459564209,2023-10-21T15:03:10.209943Z,1697900590209
0.04731941223144531,0.3341341018676758,0.10917830467224121,2023-10-21T15:03:10.230130Z,1697900590230
0.04492199420928955,0.3217601776123047,0.10621309280395508,2023-10-21T15:03:10.250868Z,1697900590250
0.042041778564453125,0.3063468933105469,0.10213589668273926,2023-10-21T15:03:10.270731Z,1697900590270
0.038814663887023926,0.28835010528564453,0.09706425666809082,2023-10-21T15:03:10.291007Z,1697900590290
0.035328030586242676,0.26798248291015625,0.09105372428894043,2023-10-21T15:03:10.311268Z,1697900590311
0.03164565563201904,0.24532318115234375,0.08411502838134766,2023-10-21T15:03:10.333854Z,1697900590333
0.027917146682739258,0.22117042541503906,0.07651376724243164,2023-10-21T15:03:10.351767Z,1697900590351
0.024240493774414062,0.19612789154052734,0.06845712661743164,2023-10-21T15:03:10.372072Z,1697900590372
0.020696640014648438,0.17086029052734375,0.060176849365234375,2023-10-21T15:03:10.392304Z,1697900590392
0.017335891723632812,0.14589881896972656,0.05186152458190918,2023-10-21T15:03:10.412542Z,1697900590412
0.014237165451049805,0.12202835083007812,0.04378771781921387,2023-10-21T15:03:10.433842Z,1697900590433
0.011468052864074707,0.09996414184570312,0.036224365234375,2023-10-21T15:03:10.453116Z,1697900590453
0.009064674377441406,0.08026695251464844,0.029386043548583984,2023-10-21T15:03:10.473422Z,1697900590473
0.006990194320678711,0.06283187866210938,0.023252487182617188,2023-10-21T15:03:10.493636Z,1697900590493
0.005204200744628906,0.047522544860839844,0.017787933349609375,2023-10-21T15:03:10.513790Z,1697900590513
0.0036724209785461426,0.03413677215576172,0.01292872428894043,2023-10-21T15:03:10.534135Z,1697900590534
0.002349376678466797,0.02228832244873047,0.00854349136352539,2023-10-21T15:03:10.554591Z,1697900590554
0.0012525320053100586,0.012156486511230469,0.004715442657470703,2023-10-21T15:03:10.574851Z,1697900590574
4.035830497741699E-4,0.004017829895019531,0.0015761852264404297,2023-10-21T15:03:10.594924Z,1697900590594
-2.6035308837890625E-4,-0.0026655197143554688,-0.001056671142578125,2023-10-21T15:03:10.617023Z,1697900590616
-8.101463317871094E-4,-0.008580207824707031,-0.0034437179565429688,2023-10-21T15:03:10.635541Z,1697900590635
-0.0012726187705993652,-0.013924598693847656,-0.0056498050689697266,2023-10-21T15:03:10.655813Z,1697900590655
-0.0016533136367797852,-0.01867961883544922,-0.007656097412109375,2023-10-21T15:03:10.676059Z,1697900590675
-0.0019289255142211914,-0.02247142791748047,-0.009294748306274414,2023-10-21T15:03:10.696276Z,1697900590696
-0.002134382724761963,-0.025587081909179688,-0.010673046112060547,2023-10-21T15:03:10.717057Z,1697900590717
-0.0022816061973571777,-0.02804851531982422,-0.011786460876464844,2023-10-21T15:03:10.737072Z,1697900590737
-0.0023787617683410645,-0.029860496520996094,-0.01262974739074707,2023-10-21T15:03:10.757266Z,1697900590757
-0.0024465322494506836,-0.03125476837158203,-0.01330113410949707,2023-10-21T15:03:10.777278Z,1697900590777
-0.0025115609169006348,-0.032525062561035156,-0.013921022415161133,2023-10-21T15:03:10.800195Z,1697900590800
-0.002562999725341797,-0.033535003662109375,-0.014426946640014648,2023-10-21T15:03:10.817837Z,1697900590817
-0.002566695213317871,-0.03381061553955078,-0.014614582061767578,2023-10-21T15:03:10.838131Z,1697900590838
-0.002536773681640625,-0.03361797332763672,-0.014592885971069336,2023-10-21T15:03:10.858388Z,1697900590858
-0.002486109733581543,-0.033168792724609375,-0.014451026916503906,2023-10-21T15:03:10.878604Z,1697900590878
-0.00242769718170166,-0.032668113708496094,-0.014276742935180664,2023-10-21T15:03:10.900168Z,1697900590900
-0.002343297004699707,-0.0318756103515625,-0.013965606689453125,2023-10-21T15:03:10.919204Z,1697900590919
-0.00225830078125,-0.031040191650390625,-0.013622045516967773,2023-10-21T15:03:10.939561Z,1697900590939
-0.002187073230743408,-0.030365943908691406,-0.013335943222045898,2023-10-21T15:03:10.959712Z,1697900590959
-0.0021547675132751465,-0.030164718627929688,-0.013242244720458984,2023-10-21T15:03:10.979900Z,1697900590979
-0.0021630525588989258,-0.03044414520263672,-0.01334381103515625,2023-10-21T15:03:11.000190Z,1697900591000
-0.0022084712982177734,-0.03119945526123047,-0.013637065887451172,2023-10-21T15:03:11.020497Z,1697900591020
-0.002298891544342041,-0.03251361846923828,-0.014157295227050781,2023-10-21T15:03:11.040732Z,1697900591040
-0.002395153045654297,-0.03381633758544922,-0.014653205871582031,2023-10-21T15:03:11.061022Z,1697900591060
-0.0024803876876831055,-0.034786224365234375,-0.014986038208007812,2023-10-21T15:03:11.083496Z,1697900591083
-0.002544879913330078,-0.03523731231689453,-0.015079021453857422,2023-10-21T15:03:11.101536Z,1697900591101
-0.0025824308395385742,-0.03510856628417969,-0.014913320541381836,2023-10-21T15:03:11.121848Z,1697900591121
-0.0025410056114196777,-0.033797264099121094,-0.014241695404052734,2023-10-21T15:03:11.142052Z,1697900591142
-0.0023952126502990723,-0.031043052673339844,-0.012966632843017578,2023-10-21T15:03:11.162442Z,1697900591162
-0.0021151304244995117,-0.026686668395996094,-0.011044025421142578,2023-10-21T15:03:11.183769Z,1697900591183
-0.0017029643058776855,-0.02093505859375,-0.008579492568969727,2023-10-21T15:03:11.202898Z,1697900591202
-0.0011516213417053223,-0.013789176940917969,-0.0055925846099853516,2023-10-21T15:03:11.223447Z,1697900591223
-4.4542551040649414E-4,-0.005207061767578125,-0.0020890235900878906,2023-10-21T15:03:11.243594Z,1697900591243
3.972649574279785E-4,0.00452423095703125,0.0017955303192138672,2023-10-21T15:03:11.263790Z,1697900591263
0.0013737082481384277,0.015233993530273438,0.0059735774993896484,2023-10-21T15:03:11.284107Z,1697900591284
0.002470076084136963,0.026575088500976562,0.01028895378112793,2023-10-21T15:03:11.304372Z,1697900591304
0.0036721229553222656,0.03824138641357422,0.01460123062133789,2023-10-21T15:03:11.324632Z,1697900591324
0.0049416422843933105,0.04969596862792969,0.01868581771850586,2023-10-21T15:03:11.344669Z,1697900591344
0.006293594837188721,0.060970306396484375,0.02254033088684082,2023-10-21T15:03:11.366774Z,1697900591366
0.00778573751449585,0.07239246368408203,0.026266813278198242,2023-10-21T15:03:11.385244Z,1697900591385
0.009454607963562012,0.0841073989868164,0.0299074649810791,2023-10-21T15:03:11.405554Z,1697900591405
0.011289000511169434,0.0958099365234375,0.03332877159118652,2023-10-21T15:03:11.425774Z,1697900591425
0.013312220573425293,0.10758018493652344,0.036534786224365234,2023-10-21T15:03:11.445989Z,1697900591445
0.015531182289123535,0.11947250366210938,0.039521217346191406,2023-10-21T15:03:11.466578Z,1697900591466
0.017970561981201172,0.13162708282470703,0.042313575744628906,2023-10-21T15:03:11.486593Z,1697900591486
0.020643234252929688,0.14414691925048828,0.04494500160217285,2023-10-21T15:03:11.506868Z,1697900591506
0.02352619171142578,0.1568317413330078,0.04736757278442383,2023-10-21T15:03:11.527040Z,1697900591527
0.02651965618133545,0.16924476623535156,0.04947614669799805,2023-10-21T15:03:11.550025Z,1697900591549
0.0294187068939209,0.18053245544433594,0.05105137825012207,2023-10-21T15:03:11.567628Z,1697900591567
0.03204047679901123,0.1900615692138672,0.051958560943603516,2023-10-21T15:03:11.587868Z,1697900591587
0.034378886222839355,0.19797325134277344,0.052259206771850586,2023-10-21T15:03:11.608176Z,1697900591608
0.03659415245056152,0.20514774322509766,0.05222725868225098,2023-10-21T15:03:11.628381Z,1697900591628
0.03872847557067871,0.2117319107055664,0.05193471908569336,2023-10-21T15:03:11.649884Z,1697900591649
0.040801405906677246,0.21800994873046875,0.05151987075805664,2023-10-21T15:03:11.668920Z,1697900591668
0.042658090591430664,0.22360992431640625,0.050943851470947266,2023-10-21T15:03:11.689207Z,1697900591689
0.044108033180236816,0.2280120849609375,0.05012106895446777,2023-10-21T15:03:11.709420Z,1697900591709
0.04497194290161133,0.23061847686767578,0.0489192008972168,2023-10-21T15:03:11.729603Z,1697900591729
0.04528677463531494,0.23157501220703125,0.04735589027404785,2023-10-21T15:03:11.750005Z,1697900591749
0.045310139656066895,0.2318248748779297,0.045604705810546875,2023-10-21T15:03:11.770341Z,1697900591770
0.04531550407409668,0.23237895965576172,0.0438230037689209,2023-10-21T15:03:11.790507Z,1697900591790
0.04558157920837402,0.23465824127197266,0.04224252700805664,2023-10-21T15:03:11.810710Z,1697900591810
0.04618263244628906,0.239349365234375,0.0409398078918457,2023-10-21T15:03:11.832945Z,1697900591832
0.04707074165344238,0.24673748016357422,0.03992807865142822,2023-10-21T15:03:11.851312Z,1697900591851
0.04800152778625488,0.25580692291259766,0.03898942470550537,2023-10-21T15:03:11.871571Z,1697900591871
0.04877448081970215,0.26543426513671875,0.037907958030700684,2023-10-21T15:03:11.891812Z,1697900591891
0.0493694543838501,0.2751474380493164,0.03660619258880615,2023-10-21T15:03:11.912006Z,1697900591911
0.04991745948791504,0.285400390625,0.03518271446228027,2023-10-21T15:03:11.932935Z,1697900591932
0.05048990249633789,0.29648876190185547,0.03374207019805908,2023-10-21T15:03:11.952587Z,1697900591952
0.05103111267089844,0.3082847595214844,0.032315850257873535,2023-10-21T15:03:11.972897Z,1697900591972
0.05137133598327637,0.32024669647216797,0.030876994132995605,2023-10-21T15:03:11.993108Z,1697900591993
0.05119729042053223,0.3307991027832031,0.02931833267211914,2023-10-21T15:03:12.016070Z,1697900592016
0.05034291744232178,0.3387794494628906,0.0275728702545166,2023-10-21T15:03:12.033630Z,1697900592033
0.048895835876464844,0.34383106231689453,0.025626301765441895,2023-10-21T15:03:12.053957Z,1697900592053
0.04723632335662842,0.3472309112548828,0.023563265800476074,2023-10-21T15:03:12.074224Z,1697900592074
0.045758843421936035,0.35091304779052734,0.02149665355682373,2023-10-21T15:03:12.094391Z,1697900592094
0.04468488693237305,0.3569183349609375,0.019541025161743164,2023-10-21T15:03:12.116041Z,1697900592115
0.044066786766052246,0.3665733337402344,0.017692655324935913,2023-10-21T15:03:12.134987Z,1697900592134
0.04391169548034668,0.38100242614746094,0.01591387391090393,2023-10-21T15:03:12.155277Z,1697900592155
0.04432809352874756,0.40097713470458984,0.014123529195785522,2023-10-21T15:03:12.175543Z,1697900592175
0.045487046241760254,0.4266548156738281,0.012271791696548462,2023-10-21T15:03:12.195661Z,1697900592195
0.04751729965209961,0.45699214935302734,0.01033291220664978,2023-10-21T15:03:12.216073Z,1697900592216
0.05041933059692383,0.48973941802978516,0.008342921733856201,2023-10-21T15:03:12.236308Z,1697900592236
0.053971290588378906,0.5219182968139648,0.006447166204452515,2023-10-21T15:03:12.256570Z,1697900592256
0.05773186683654785,0.5505695343017578,0.0048342421650886536,2023-10-21T15:03:12.276810Z,1697900592276
0.061185359954833984,0.573481559753418,0.003757178783416748,2023-10-21T15:03:12.299469Z,1697900592299
0.06390261650085449,0.5882358551025391,0.0033842958509922028,2023-10-21T15:03:12.317335Z,1697900592317
0.06568825244903564,0.5935630798339844,0.0038201510906219482,2023-10-21T15:03:12.337645Z,1697900592337
0.06658637523651123,0.589569091796875,0.005007416009902954,2023-10-21T15:03:12.357869Z,1697900592357
0.06669235229492188,0.5775899887084961,0.006865501403808594,2023-10-21T15:03:12.378110Z,1697900592378
0.06600546836853027,0.5590200424194336,0.009244576096534729,2023-10-21T15:03:12.399378Z,1697900592399
0.06453347206115723,0.5355510711669922,0.011981368064880371,2023-10-21T15:03:12.418652Z,1697900592418
0.062348127365112305,0.5087690353393555,0.014863431453704834,2023-10-21T15:03:12.438959Z,1697900592438
0.059667348861694336,0.48065853118896484,0.01769503951072693,2023-10-21T15:03:12.459199Z,1697900592459
0.056818246841430664,0.4528217315673828,0.020359933376312256,2023-10-21T15:03:12.479343Z,1697900592479
0.054152727127075195,0.42650508880615234,0.02278536558151245,2023-10-21T15:03:12.499720Z,1697900592499
0.05203378200531006,0.4031820297241211,0.024977505207061768,2023-10-21T15:03:12.520003Z,1697900592519
0.050701141357421875,0.3839130401611328,0.026998817920684814,2023-10-21T15:03:12.540270Z,1697900592540
0.05012047290802002,0.3684377670288086,0.02891528606414795,2023-10-21T15:03:12.560469Z,1697900592560
0.049976229667663574,0.35512351989746094,0.030705928802490234,2023-10-21T15:03:12.582583Z,1697900592582
0.049828410148620605,0.3417320251464844,0.032253146171569824,2023-10-21T15:03:12.601018Z,1697900592600
0.04925239086151123,0.3260040283203125,0.03334951400756836,2023-10-21T15:03:12.621323Z,1697900592621
0.04795193672180176,0.30652618408203125,0.03378701210021973,2023-10-21T15:03:12.641548Z,1697900592641
0.04577493667602539,0.2826881408691406,0.03338944911956787,2023-10-21T15:03:12.661749Z,1697900592661
0.04259085655212402,0.2542533874511719,0.031989097595214844,2023-10-21T15:03:12.682344Z,1697900592682
0.03830146789550781,0.22128582000732422,0.02945089340209961,2023-10-21T15:03:12.702403Z,1697900592702
0.03296232223510742,0.18474483489990234,0.025830507278442383,2023-10-21T15:03:12.722622Z,1697900592722
0.026753664016723633,0.14599037170410156,0.021293163299560547,2023-10-21T15:03:12.742847Z,1697900592742
0.01995241641998291,0.10643196105957031,0.016084671020507812,2023-10-21T15:03:12.765666Z,1697900592765
0.0128098726272583,0.06705379486083984,0.010433316230773926,2023-10-21T15:03:12.783404Z,1697900592783
0.005578160285949707,0.02873516082763672,0.004571318626403809,2023-10-21T15:03:12.803693Z,1697900592803
-0.0014808177947998047,-0.007519721984863281,-0.0012156963348388672,2023-10-21T15:03:12.824041Z,1697900592823
-0.008074283599853516,-0.040444374084472656,-0.006593942642211914,2023-10-21T15:03:12.844170Z,1697900592844
-0.01401674747467041,-0.06924057006835938,-0.011307239532470703,2023-10-21T15:03:12.865723Z,1697900592865
-0.0191190242767334,-0.09309864044189453,-0.015136480331420898,2023-10-21T15:03:12.884765Z,1697900592884
-0.023258566856384277,-0.11165618896484375,-0.017980217933654785,2023-10-21T15:03:12.905086Z,1697900592905
-0.026493191719055176,-0.12549209594726562,-0.019939899444580078,2023-10-21T15:03:12.925262Z,1697900592925
-0.029041290283203125,-0.13590049743652344,-0.021246910095214844,2023-10-21T15:03:12.945443Z,1697900592945
-0.031183719635009766,-0.14436721801757812,-0.02216780185699463,2023-10-21T15:03:12.965757Z,1697900592965
-0.033042192459106445,-0.15156936645507812,-0.022824525833129883,2023-10-21T15:03:12.986089Z,1697900592986
-0.03461790084838867,-0.1576681137084961,-0.023254871368408203,2023-10-21T15:03:13.006302Z,1697900593006
-0.03575539588928223,-0.16217708587646484,-0.023411989212036133,2023-10-21T15:03:13.026559Z,1697900593026
-0.036229610443115234,-0.16438674926757812,-0.023224592208862305,2023-10-21T15:03:13.048961Z,1697900593048
-0.035616159439086914,-0.16256427764892578,-0.022488117218017578,2023-10-21T15:03:13.067143Z,1697900593067
-0.03348708152770996,-0.1546344757080078,-0.02094876766204834,2023-10-21T15:03:13.087427Z,1697900593087
-0.029568791389465332,-0.13878250122070312,-0.018406391143798828,2023-10-21T15:03:13.107610Z,1697900593107
-0.023862123489379883,-0.1141672134399414,-0.01480245590209961,2023-10-21T15:03:13.127832Z,1697900593127
-0.016542434692382812,-0.08078670501708984,-0.010218262672424316,2023-10-21T15:03:13.148835Z,1697900593148
-0.007784247398376465,-0.03880023956298828,-0.0047713518142700195,2023-10-21T15:03:13.168426Z,1697900593168
0.0021505355834960938,0.010927200317382812,0.0013011693954467773,2023-10-21T15:03:13.188790Z,1697900593188
0.013010025024414062,0.06719303131103516,0.0077124834060668945,2023-10-21T15:03:13.208938Z,1697900593208
0.02445197105407715,0.12790203094482422,0.0140608549118042,2023-10-21T15:03:13.232125Z,1697900593232
0.036245107650756836,0.19109344482421875,0.019954681396484375,2023-10-21T15:03:13.249464Z,1697900593249
0.04827463626861572,0.25510311126708984,0.025056540966033936,2023-10-21T15:03:13.269781Z,1697900593269
0.06048142910003662,0.3184823989868164,0.02911156415939331,2023-10-21T15:03:13.289986Z,1697900593289
0.07267773151397705,0.37944602966308594,0.03194475173950195,2023-10-21T15:03:13.310186Z,1697900593310
0.084572434425354,0.43619537353515625,0.0335085391998291,2023-10-21T15:03:13.332032Z,1697900593331
0.09570097923278809,0.4865589141845703,0.03384113311767578,2023-10-21T15:03:13.350803Z,1697900593350
0.10544371604919434,0.5280399322509766,0.033023834228515625,2023-10-21T15:03:13.371093Z,1697900593371
0.11332416534423828,0.5593338012695312,0.03122049570083618,2023-10-21T15:03:13.391316Z,1697900593391
0.11919069290161133,0.5808677673339844,0.028647243976593018,2023-10-21T15:03:13.411593Z,1697900593411
0.12328410148620605,0.5948047637939453,0.025540262460708618,2023-10-21T15:03:13.431865Z,1697900593431
0.1258852481842041,0.6033344268798828,0.022109508514404297,2023-10-21T15:03:13.452141Z,1697900593452
0.1270742416381836,0.607356071472168,0.018492162227630615,2023-10-21T15:03:13.472385Z,1697900593472
0.12678742408752441,0.6067657470703125,0.014796197414398193,2023-10-21T15:03:13.492667Z,1697900593492
0.1251291036605835,0.6016979217529297,0.011091634631156921,2023-10-21T15:03:13.515061Z,1697900593515
0.12238597869873047,0.5928335189819336,0.007429108023643494,2023-10-21T15:03:13.533137Z,1697900593533
0.1189126968383789,0.5811328887939453,0.0038618966937065125,2023-10-21T15:03:13.553458Z,1697900593553
0.11496222019195557,0.5673313140869141,4.557892680168152E-4,2023-10-21T15:03:13.573720Z,1697900593573
0.1104898452758789,0.5510187149047852,-0.00266445055603981,2023-10-21T15:03:13.593893Z,1697900593593
0.10537457466125488,0.5314598083496094,-0.005336247384548187,2023-10-21T15:03:13.615130Z,1697900593615
0.09951245784759521,0.5080204010009766,-0.00741925835609436,2023-10-21T15:03:13.634483Z,1697900593634
0.09303772449493408,0.48111534118652344,-0.008847087621688843,2023-10-21T15:03:13.654797Z,1697900593654
0.08620560169219971,0.45192527770996094,-0.0096052885055542,2023-10-21T15:03:13.674967Z,1697900593674
0.07927608489990234,0.4220094680786133,-0.009720474481582642,2023-10-21T15:03:13.695186Z,1697900593695
0.07244527339935303,0.39268970489501953,-0.009222865104675293,2023-10-21T15:03:13.715523Z,1697900593715
0.06578254699707031,0.36432552337646484,-0.008143886923789978,2023-10-21T15:03:13.735836Z,1697900593735
0.05935025215148926,0.33707427978515625,-0.006560370326042175,2023-10-21T15:03:13.756109Z,1697900593756
0.05333220958709717,0.3115386962890625,-0.004625529050827026,2023-10-21T15:03:13.776290Z,1697900593776
0.04829239845275879,0.29064083099365234,-0.002550065517425537,2023-10-21T15:03:13.798376Z,1697900593798
0.04505634307861328,0.27930545806884766,-4.845336079597473E-4,2023-10-21T15:03:13.816876Z,1697900593816
0.04421496391296387,0.2816648483276367,0.0016370117664337158,2023-10-21T15:03:13.837223Z,1697900593837
0.04570603370666504,0.2981243133544922,0.004044145345687866,2023-10-21T15:03:13.857381Z,1697900593857
0.048856377601623535,0.32485389709472656,0.00693880021572113,2023-10-21T15:03:13.877582Z,1697900593877
0.053020596504211426,0.3571205139160156,0.010387927293777466,2023-10-21T15:03:13.898224Z,1697900593898
0.057911038398742676,0.39150142669677734,0.014286041259765625,2023-10-21T15:03:13.918192Z,1697900593918
0.0635368824005127,0.42621612548828125,0.01843246817588806,2023-10-21T15:03:13.938467Z,1697900593938
0.06989967823028564,0.45981788635253906,0.0225660502910614,2023-10-21T15:03:13.958673Z,1697900593958
0.07684791088104248,0.49088191986083984,0.02645629644393921,2023-10-21T15:03:13.981537Z,1697900593981
0.08384215831756592,0.5164775848388672,0.029879271984100342,2023-10-21T15:03:13.999232Z,1697900593999
0.08990645408630371,0.5322332382202148,0.032649874687194824,2023-10-21T15:03:14.019530Z,1697900594019
0.09402656555175781,0.5344333648681641,0.034623920917510986,2023-10-21T15:03:14.039763Z,1697900594039
0.09577667713165283,0.5226659774780273,0.03574478626251221,2023-10-21T15:03:14.059956Z,1697900594059
0.09549891948699951,0.5001630783081055,0.036063432693481445,2023-10-21T15:03:14.081388Z,1697900594081
0.0937192440032959,0.4707202911376953,0.03565371036529541,2023-10-21T15:03:14.100555Z,1697900594100
0.09069716930389404,0.43685436248779297,0.03459376096725464,2023-10-21T15:03:14.120842Z,1697900594120
0.08656597137451172,0.4005002975463867,0.03303229808807373,2023-10-21T15:03:14.141059Z,1697900594141
0.08154439926147461,0.3633747100830078,0.03115522861480713,2023-10-21T15:03:14.161237Z,1697900594161
0.07573437690734863,0.32600975036621094,0.029046356678009033,2023-10-21T15:03:14.181581Z,1697900594181
0.06918764114379883,0.2883462905883789,0.026689529418945312,2023-10-21T15:03:14.201906Z,1697900594201
0.06180286407470703,0.2497692108154297,0.02397286891937256,2023-10-21T15:03:14.222108Z,1697900594222
0.05376863479614258,0.2110729217529297,0.02092611789703369,2023-10-21T15:03:14.242376Z,1697900594242
0.04532194137573242,0.17326831817626953,0.01764446496963501,2023-10-21T15:03:14.264948Z,1697900594264
0.036797523498535156,0.13756656646728516,0.014309525489807129,2023-10-21T15:03:14.282928Z,1697900594282
0.028139114379882812,0.10350227355957031,0.010951876640319824,2023-10-21T15:03:14.303260Z,1697900594303
0.018615245819091797,0.0678701400756836,0.0073015689849853516,2023-10-21T15:03:14.323482Z,1697900594323
0.00725245475769043,0.02642345428466797,0.002897977828979492,2023-10-21T15:03:14.343685Z,1697900594343
-0.006144285202026367,-0.02256488800048828,-0.0025333166122436523,2023-10-21T15:03:14.364611Z,1697900594364
-0.020032167434692383,-0.07477855682373047,-0.00861823558807373,2023-10-21T15:03:14.386681Z,1697900594386
-0.03241372108459473,-0.12411689758300781,-0.014701485633850098,2023-10-21T15:03:14.404563Z,1697900594404
-0.041930437088012695,-0.16626358032226562,-0.020268559455871582,2023-10-21T15:03:14.424762Z,1697900594424
-0.04852128028869629,-0.2010517120361328,-0.025285959243774414,2023-10-21T15:03:14.447794Z,1697900594447
-0.052634477615356445,-0.22962474822998047,-0.02985703945159912,2023-10-21T15:03:14.465273Z,1697900594465
-0.05478930473327637,-0.2528562545776367,-0.034012436866760254,2023-10-21T15:03:14.485597Z,1697900594485
-0.05496621131896973,-0.26872730255126953,-0.03729867935180664,2023-10-21T15:03:14.505851Z,1697900594505
-0.0526508092880249,-0.27213573455810547,-0.038697004318237305,2023-10-21T15:03:14.526042Z,1697900594526
-0.04737091064453125,-0.2575225830078125,-0.03710341453552246,2023-10-21T15:03:14.547784Z,1697900594547
-0.03926527500152588,-0.2229595184326172,-0.032144784927368164,2023-10-21T15:03:14.566621Z,1697900594566
-0.029288053512573242,-0.17248916625976562,-0.02461540699005127,2023-10-21T15:03:14.586917Z,1697900594586
-0.01848757266998291,-0.11222267150878906,-0.01572251319885254,2023-10-21T15:03:14.607109Z,1697900594607
-0.00747525691986084,-0.046500205993652344,-0.006354331970214844,2023-10-21T15:03:14.627389Z,1697900594627
0.0035549402236938477,0.022561073303222656,0.0029877424240112305,2023-10-21T15:03:14.647754Z,1697900594647
0.014390110969543457,0.0928049087524414,0.011834383010864258,2023-10-21T15:03:14.667943Z,1697900594667
0.02470850944519043,0.16177845001220703,0.01972794532775879,2023-10-21T15:03:14.688224Z,1697900594688
0.03399229049682617,0.22623920440673828,0.0262148380279541,2023-10-21T15:03:14.708435Z,1697900594708
0.04179501533508301,0.2835092544555664,0.031035304069519043,2023-10-21T15:03:14.730893Z,1697900594730
0.047823190689086914,0.33141613006591797,0.03408467769622803,2023-10-21T15:03:14.748985Z,1697900594748
0.0521998405456543,0.3696279525756836,0.03549027442932129,2023-10-21T15:03:14.769292Z,1697900594769
0.055312156677246094,0.398712158203125,0.03542792797088623,2023-10-21T15:03:14.789721Z,1697900594789
0.05763113498687744,0.41939449310302734,0.034075915813446045,2023-10-21T15:03:14.809863Z,1697900594809
0.05958282947540283,0.4323740005493164,0.03158736228942871,2023-10-21T15:03:14.831253Z,1697900594831
0.06161975860595703,0.4394512176513672,0.028212249279022217,2023-10-21T15:03:14.850460Z,1697900594850
0.06427562236785889,0.44373130798339844,0.02427774667739868,2023-10-21T15:03:14.870607Z,1697900594870
0.06791651248931885,0.4475517272949219,0.020011961460113525,2023-10-21T15:03:14.890802Z,1697900594890
0.07266855239868164,0.45206737518310547,0.01555776596069336,2023-10-21T15:03:14.911122Z,1697900594911
0.07844030857086182,0.45769596099853516,0.010996207594871521,2023-10-21T15:03:14.931502Z,1697900594931
0.08519196510314941,0.4656867980957031,0.006434991955757141,2023-10-21T15:03:14.951650Z,1697900594951
0.09278738498687744,0.47692012786865234,0.0019697584211826324,2023-10-21T15:03:14.971908Z,1697900594971
0.10094583034515381,0.49150562286376953,-0.0022796504199504852,2023-10-21T15:03:14.992109Z,1697900594992
0.10900521278381348,0.5075254440307617,-0.006116434931755066,2023-10-21T15:03:15.013910Z,1697900595013
0.11592435836791992,0.5213937759399414,-0.009246692061424255,2023-10-21T15:03:15.032665Z,1697900595032
0.12070608139038086,0.5297203063964844,-0.011393353343009949,2023-10-21T15:03:15.052966Z,1697900595052
0.12286877632141113,0.5309286117553711,-0.012451395392417908,2023-10-21T15:03:15.073191Z,1697900595073
0.1228020191192627,0.5265789031982422,-0.012566998600959778,2023-10-21T15:03:15.093394Z,1697900595093
0.12141299247741699,0.5196695327758789,-0.012012779712677002,2023-10-21T15:03:15.113934Z,1697900595113
0.11935758590698242,0.5115976333618164,-0.01099628210067749,2023-10-21T15:03:15.133999Z,1697900595133
0.11680150032043457,0.5014381408691406,-0.009634420275688171,2023-10-21T15:03:15.154269Z,1697900595154
0.11382079124450684,0.48812198638916016,-0.0080336332321167,2023-10-21T15:03:15.174496Z,1697900595174
0.11073422431945801,0.47217369079589844,-0.006366342306137085,2023-10-21T15:03:15.197753Z,1697900595197
0.10826563835144043,0.4567241668701172,-0.004836753010749817,2023-10-21T15:03:15.215068Z,1697900595215
0.10718894004821777,0.4456329345703125,-0.0035652294754981995,2023-10-21T15:03:15.235332Z,1697900595235
0.10780763626098633,0.44098663330078125,-0.0025162063539028168,2023-10-21T15:03:15.255594Z,1697900595255
0.10956764221191406,0.4415321350097656,-0.001525387167930603,2023-10-21T15:03:15.275863Z,1697900595275
0.1112370491027832,0.44344139099121094,-3.735460340976715E-4,2023-10-21T15:03:15.297300Z,1697900595297
0.11151933670043945,0.4427013397216797,0.0011064298450946808,2023-10-21T15:03:15.316396Z,1697900595316
0.10973048210144043,0.43750572204589844,0.002966545522212982,2023-10-21T15:03:15.336627Z,1697900595336
0.1059103012084961,0.42850685119628906,0.005132921040058136,2023-10-21T15:03:15.356842Z,1697900595356
0.10044074058532715,0.41715431213378906,0.007476672530174255,2023-10-21T15:03:15.377049Z,1697900595377
0.09374451637268066,0.40450096130371094,0.009869664907455444,2023-10-21T15:03:15.397372Z,1697900595397
0.08613300323486328,0.3906679153442383,0.012220948934555054,2023-10-21T15:03:15.417690Z,1697900595417
0.07798945903778076,0.37562084197998047,0.014462560415267944,2023-10-21T15:03:15.437936Z,1697900595437
0.06978929042816162,0.35970211029052734,0.016529500484466553,2023-10-21T15:03:15.458190Z,1697900595458
0.06216001510620117,0.3444204330444336,0.018427491188049316,2023-10-21T15:03:15.481036Z,1697900595481
0.05564701557159424,0.33182811737060547,0.02020782232284546,2023-10-21T15:03:15.498722Z,1697900595498
0.050510406494140625,0.32353687286376953,0.02196800708770752,2023-10-21T15:03:15.519028Z,1697900595518
0.04672741889953613,0.32011890411376953,0.02377641201019287,2023-10-21T15:03:15.539295Z,1697900595539
0.04388725757598877,0.3196697235107422,0.025578022003173828,2023-10-21T15:03:15.559458Z,1697900595559
0.041469454765319824,0.3190956115722656,0.02720010280609131,2023-10-21T15:03:15.580481Z,1697900595580
0.038979291915893555,0.31507110595703125,0.028407752513885498,2023-10-21T15:03:15.600233Z,1697900595600
0.036102890968322754,0.30556392669677734,0.028993844985961914,2023-10-21T15:03:15.620551Z,1697900595620
0.03275954723358154,0.29050445556640625,0.028874337673187256,2023-10-21T15:03:15.640797Z,1697900595640
0.028995871543884277,0.2707653045654297,0.02806401252746582,2023-10-21T15:03:15.664043Z,1697900595664
0.024918198585510254,0.24733638763427734,0.026613593101501465,2023-10-21T15:03:15.681212Z,1697900595681
0.02064579725265503,0.2205648422241211,0.024535536766052246,2023-10-21T15:03:15.701570Z,1697900595701
0.016326427459716797,0.19046878814697266,0.02184903621673584,2023-10-21T15:03:15.721861Z,1697900595721
0.012139618396759033,0.1569538116455078,0.018558144569396973,2023-10-21T15:03:15.742059Z,1697900595742
0.00830763578414917,0.12059307098388672,0.014703154563903809,2023-10-21T15:03:15.763676Z,1697900595763
0.005019247531890869,0.08253002166748047,0.010371804237365723,2023-10-21T15:03:15.782554Z,1697900595782
0.002404332160949707,0.044895172119140625,0.005804896354675293,2023-10-21T15:03:15.802743Z,1697900595802
4.923045635223389E-4,0.010399818420410156,0.0013780593872070312,2023-10-21T15:03:15.823008Z,1697900595822
-7.787644863128662E-4,-0.018525123596191406,-0.002507805824279785,2023-10-21T15:03:15.843149Z,1697900595843
-0.001548856496810913,-0.04075431823730469,-0.005619049072265625,2023-10-21T15:03:15.863496Z,1697900595863
-0.0020170509815216064,-0.057720184326171875,-0.008102774620056152,2023-10-21T15:03:15.883755Z,1697900595883
-0.002342313528060913,-0.0713644027709961,-0.010212540626525879,2023-10-21T15:03:15.904036Z,1697900595903
-0.002613365650177002,-0.08327484130859375,-0.012165069580078125,2023-10-21T15:03:15.924268Z,1697900595924
-0.0028695762157440186,-0.09417152404785156,-0.014049530029296875,2023-10-21T15:03:15.946751Z,1697900595946
-0.0031133294105529785,-0.10389995574951172,-0.015824079513549805,2023-10-21T15:03:15.964803Z,1697900595964
-0.0033434033393859863,-0.11217784881591797,-0.017389893531799316,2023-10-21T15:03:15.985112Z,1697900595985
-0.003565877676010132,-0.11934947967529297,-0.018743395805358887,2023-10-21T15:03:16.005357Z,1697900596005
-0.003774285316467285,-0.12627410888671875,-0.019991397857666016,2023-10-21T15:03:16.025569Z,1697900596025
-0.0039938390254974365,-0.13488483428955078,-0.02143394947052002,2023-10-21T15:03:16.046751Z,1697900596046
-0.004236072301864624,-0.14598941802978516,-0.023191332817077637,2023-10-21T15:03:16.066132Z,1697900596066
-0.004455834627151489,-0.15828418731689453,-0.025034666061401367,2023-10-21T15:03:16.086415Z,1697900596086
-0.004598259925842285,-0.16968441009521484,-0.026616930961608887,2023-10-21T15:03:16.106596Z,1697900596106
-0.004639223217964172,-0.17824459075927734,-0.02764260768890381,2023-10-21T15:03:16.126870Z,1697900596126
-0.004568204283714294,-0.18248653411865234,-0.027903199195861816,2023-10-21T15:03:16.147320Z,1697900596147
-0.004340425133705139,-0.18088340759277344,-0.027205944061279297,2023-10-21T15:03:16.167656Z,1697900596167
-0.00392584502696991,-0.17251110076904297,-0.025505542755126953,2023-10-21T15:03:16.187743Z,1697900596187
-0.0033283382654190063,-0.15688037872314453,-0.022844552993774414,2023-10-21T15:03:16.207919Z,1697900596207
-0.0026332885026931763,-0.1342296600341797,-0.019306421279907227,2023-10-21T15:03:16.230098Z,1697900596230
-0.0019059479236602783,-0.10464668273925781,-0.014890789985656738,2023-10-21T15:03:16.248539Z,1697900596248
-0.0011689960956573486,-0.06802749633789062,-0.009568452835083008,2023-10-21T15:03:16.268858Z,1697900596268
-4.108548164367676E-4,-0.024763107299804688,-0.003435492515563965,2023-10-21T15:03:16.289047Z,1697900596288
3.94478440284729E-4,0.02373027801513672,0.0032361745834350586,2023-10-21T15:03:16.309265Z,1697900596309
0.0012984424829483032,0.07411003112792969,0.009898662567138672,2023-10-21T15:03:16.329967Z,1697900596329
0.0023917704820632935,0.12204456329345703,0.015909433364868164,2023-10-21T15:03:16.349830Z,1697900596349
0.0038040131330490112,0.16357994079589844,0.02071857452392578,2023-10-21T15:03:16.370139Z,1697900596370
0.005682945251464844,0.19770050048828125,0.024173736572265625,2023-10-21T15:03:16.390294Z,1697900596390
0.008144170045852661,0.22502803802490234,0.026308059692382812,2023-10-21T15:03:16.413286Z,1697900596413
0.011242121458053589,0.2464914321899414,0.027207612991333008,2023-10-21T15:03:16.430842Z,1697900596430
0.014961779117584229,0.26287364959716797,0.02695310115814209,2023-10-21T15:03:16.451194Z,1697900596451
0.01912856101989746,0.27392578125,0.025605320930480957,2023-10-21T15:03:16.471482Z,1697900596471
0.02345407009124756,0.2791023254394531,0.023314297199249268,2023-10-21T15:03:16.491620Z,1697900596491
0.02763545513153076,0.27838134765625,0.02031886577606201,2023-10-21T15:03:16.513153Z,1697900596513
0.031620025634765625,0.2737607955932617,0.016959786415100098,2023-10-21T15:03:16.532217Z,1697900596532
0.035619497299194336,0.26858043670654297,0.013521432876586914,2023-10-21T15:03:16.552494Z,1697900596552
0.03990745544433594,0.2653055191040039,0.010122179985046387,2023-10-21T15:03:16.572697Z,1697900596572
0.044508934020996094,0.26369476318359375,0.006703048944473267,2023-10-21T15:03:16.592887Z,1697900596592
0.04922604560852051,0.2621803283691406,0.0031816288828849792,2023-10-21T15:03:16.613207Z,1697900596613
0.05377089977264404,0.25933170318603516,-4.3801218271255493E-4,2023-10-21T15:03:16.633560Z,1697900596633
0.05777144432067871,0.25382232666015625,-0.004030928015708923,2023-10-21T15:03:16.653800Z,1697900596653
0.06097221374511719,0.2450542449951172,-0.007405519485473633,2023-10-21T15:03:16.674014Z,1697900596673
0.06344318389892578,0.2338571548461914,-0.010456681251525879,2023-10-21T15:03:16.696410Z,1697900596696
0.06544065475463867,0.22167491912841797,-0.013194859027862549,2023-10-21T15:03:16.714563Z,1697900596714
0.06692767143249512,0.20893478393554688,-0.015639066696166992,2023-10-21T15:03:16.734850Z,1697900596734
0.06759476661682129,0.19518756866455078,-0.017727196216583252,2023-10-21T15:03:16.755113Z,1697900596755
0.06703472137451172,0.1797618865966797,-0.019313335418701172,2023-10-21T15:03:16.775288Z,1697900596775
0.06526732444763184,0.1631937026977539,-0.02035212516784668,2023-10-21T15:03:16.796231Z,1697900596796
0.06267261505126953,0.1467571258544922,-0.020925164222717285,2023-10-21T15:03:16.815873Z,1697900596815
0.0604090690612793,0.1330718994140625,-0.021422624588012695,2023-10-21T15:03:16.836187Z,1697900596836
0.060236454010009766,0.12534523010253906,-0.02254343032836914,2023-10-21T15:03:16.856367Z,1697900596856
0.06379985809326172,0.1259288787841797,-0.025083065032958984,2023-10-21T15:03:16.879649Z,1697900596879
0.07205677032470703,0.13547039031982422,-0.029662609100341797,2023-10-21T15:03:16.896922Z,1697900596896
0.0849308967590332,0.15277099609375,-0.03650975227355957,2023-10-21T15:03:16.917241Z,1697900596917
0.10205221176147461,0.17647266387939453,-0.04568004608154297,2023-10-21T15:03:16.937480Z,1697900596937
0.12245559692382812,0.20465850830078125,-0.05687975883483887,2023-10-21T15:03:16.957709Z,1697900596957
0.1450181007385254,0.23560142517089844,-0.06963253021240234,2023-10-21T15:03:16.979358Z,1697900596979
0.16856861114501953,0.2677421569824219,-0.08328819274902344,2023-10-21T15:03:16.998324Z,1697900596998
0.1925053596496582,0.30037450790405273,-0.09727907180786133,2023-10-21T15:03:17.018573Z,1697900597018
0.21630382537841797,0.33276844024658203,-0.11098313331604004,2023-10-21T15:03:17.038789Z,1697900597038
0.2392745018005371,0.36392831802368164,-0.12370514869689941,2023-10-21T15:03:17.058951Z,1697900597058
0.2606077194213867,0.39276838302612305,-0.13479185104370117,2023-10-21T15:03:17.079467Z,1697900597079
0.27958154678344727,0.41859865188598633,-0.14374780654907227,2023-10-21T15:03:17.099615Z,1697900597099
0.29663991928100586,0.44255828857421875,-0.15073871612548828,2023-10-21T15:03:17.119850Z,1697900597119
0.31337642669677734,0.46733665466308594,-0.15655064582824707,2023-10-21T15:03:17.140101Z,1697900597140
0.3318624496459961,0.4959287643432617,-0.1621565818786621,2023-10-21T15:03:17.162700Z,1697900597162
0.3531770706176758,0.5297756195068359,-0.1681060791015625,2023-10-21T15:03:17.180625Z,1697900597180
0.37640857696533203,0.5675477981567383,-0.17416143417358398,2023-10-21T15:03:17.200942Z,1697900597200
0.3995370864868164,0.6065788269042969,-0.17980360984802246,2023-10-21T15:03:17.221178Z,1697900597221
0.4204883575439453,0.6442193984985352,-0.1845533847808838,2023-10-21T15:03:17.241399Z,1697900597241
0.43787527084350586,0.6783685684204102,-0.18799519538879395,2023-10-21T15:03:17.262602Z,1697900597262
0.4515962600708008,0.7080593109130859,-0.19002151489257812,2023-10-21T15:03:17.281938Z,1697900597281
0.4624519348144531,0.7327985763549805,-0.1907975673675537,2023-10-21T15:03:17.302257Z,1697900597302
0.47091245651245117,0.7511043548583984,-0.19046807289123535,2023-10-21T15:03:17.322452Z,1697900597322
0.47547435760498047,0.7588605880737305,-0.18858981132507324,2023-10-21T15:03:17.342724Z,1697900597342
0.47289085388183594,0.7504549026489258,-0.1840221881866455,2023-10-21T15:03:17.362979Z,1697900597362
0.4607400894165039,0.7223014831542969,-0.17564773559570312,2023-10-21T15:03:17.383318Z,1697900597383
0.4395112991333008,0.6757297515869141,-0.16324806213378906,2023-10-21T15:03:17.403562Z,1697900597403
0.4108152389526367,0.6138629913330078,-0.147125244140625,2023-10-21T15:03:17.423770Z,1697900597423
0.37581491470336914,0.5398378372192383,-0.12795019149780273,2023-10-21T15:03:17.445868Z,1697900597445
0.3351912498474121,0.45768165588378906,-0.10703551769256592,2023-10-21T15:03:17.464330Z,1697900597464
0.28885936737060547,0.37117528915405273,-0.08575701713562012,2023-10-21T15:03:17.484615Z,1697900597484
0.23526239395141602,0.28215980529785156,-0.06478297710418701,2023-10-21T15:03:17.504851Z,1697900597504
0.1714024543762207,0.19054651260375977,-0.04393637180328369,2023-10-21T15:03:17.525159Z,1697900597525
0.09379005432128906,0.09599447250366211,-0.0225067138671875,2023-10-21T15:03:17.545723Z,1697900597545
0.00337982177734375,0.0031604766845703125,-7.659196853637695E-4,2023-10-21T15:03:17.565718Z,1697900597565
-0.09775352478027344,-0.08290243148803711,0.02118229866027832,2023-10-21T15:03:17.585943Z,1697900597585
-0.20811748504638672,-0.1585683822631836,0.04393136501312256,2023-10-21T15:03:17.606141Z,1697900597606
-0.32761716842651367,-0.2217884063720703,0.068916916847229,2023-10-21T15:03:17.629085Z,1697900597629
-0.4572873115539551,-0.27123546600341797,0.09817671775817871,2023-10-21T15:03:17.646696Z,1697900597646
-0.5959300994873047,-0.30382394790649414,0.13343095779418945,2023-10-21T15:03:17.666999Z,1697900597666
-0.7386608123779297,-0.31504297256469727,0.17532575130462646,2023-10-21T15:03:17.687287Z,1697900597687
-0.874751091003418,-0.299851655960083,0.2225182056427002,2023-10-21T15:03:17.707447Z,1697900597707
-0.9915437698364258,-0.2562882900238037,0.2720005512237549,2023-10-21T15:03:17.729014Z,1697900597728
-1.0747222900390625,-0.18637800216674805,0.31929945945739746,2023-10-21T15:03:17.748092Z,1697900597748
-1.115860939025879,-0.09740549325942993,0.3603651523590088,2023-10-21T15:03:17.768320Z,1697900597768
-1.1119966506958008,3.3866078592836857E-4,0.3918724060058594,2023-10-21T15:03:17.788590Z,1697900597788
-1.0667200088500977,0.09586811065673828,0.41225409507751465,2023-10-21T15:03:17.808743Z,1697900597808
-0.9877333641052246,0.17985212802886963,0.42156362533569336,2023-10-21T15:03:17.829055Z,1697900597829
-0.8821582794189453,0.2452692985534668,0.4196135997772217,2023-10-21T15:03:17.849358Z,1697900597849
-0.7536697387695312,0.28615522384643555,0.4039466381072998,2023-10-21T15:03:17.869628Z,1697900597869
-0.6030879020690918,0.295651912689209,0.36893320083618164,2023-10-21T15:03:17.889810Z,1697900597889
-0.4334535598754883,0.26647090911865234,0.30726051330566406,2023-10-21T15:03:17.912266Z,1697900597912
-0.25093841552734375,0.19081640243530273,0.2100062370300293,2023-10-21T15:03:17.930416Z,1697900597930
-0.06646060943603516,0.062304019927978516,0.06718921661376953,2023-10-21T15:03:17.950726Z,1697900597950
0.10855627059936523,-0.12593936920166016,-0.13596391677856445,2023-10-21T15:03:17.970947Z,1697900597970
0.2610311508178711,-0.37734079360961914,-0.41489458084106445,2023-10-21T15:03:17.991127Z,1697900597991
0.37660789489746094,-0.681922435760498,-0.7736592292785645,2023-10-21T15:03:18.012274Z,1697900598012
0.4458961486816406,-1.0092744827270508,-1.192214012145996,2023-10-21T15:03:18.031724Z,1697900598031
0.47089362144470215,-1.312495231628418,-1.6262826919555664,2023-10-21T15:03:18.052036Z,1697900598051
0.46748900413513184,-1.5448169708251953,-2.020763874053955,2023-10-21T15:03:18.072243Z,1697900598072
0.4598737955093384,-1.6856846809387207,-2.342041015625,2023-10-21T15:03:18.095482Z,1697900598095
0.4671177864074707,-1.7355618476867676,-2.5784358978271484,2023-10-21T15:03:18.112744Z,1697900598112
0.49383544921875,-1.7067809104919434,-2.721743583679199,2023-10-21T15:03:18.133055Z,1697900598133
0.5257159471511841,-1.6095829010009766,-2.7641639709472656,2023-10-21T15:03:18.153333Z,1697900598153
0.5384311676025391,-1.4417414665222168,-2.6761178970336914,2023-10-21T15:03:18.173502Z,1697900598173
0.5216590166091919,-1.2139191627502441,-2.4510602951049805,2023-10-21T15:03:18.195291Z,1697900598195
0.47055506706237793,-0.9388136863708496,-2.092167854309082,2023-10-21T15:03:18.214086Z,1697900598214
0.3880727291107178,-0.6462035179138184,-1.630868911743164,2023-10-21T15:03:18.234368Z,1697900598234
0.2761681079864502,-0.3723747730255127,-1.1086139678955078,2023-10-21T15:03:18.254594Z,1697900598254
0.1433718204498291,-0.15095758438110352,-0.5650959014892578,2023-10-21T15:03:18.274761Z,1697900598274
0.0029015541076660156,-0.0021964311599731445,-0.011568069458007812,2023-10-21T15:03:18.295245Z,1697900598295
-0.13329744338989258,0.056332528591156006,0.549595832824707,2023-10-21T15:03:18.315406Z,1697900598315
-0.25359106063842773,-7.831868715584278E-4,1.0855493545532227,2023-10-21T15:03:18.335743Z,1697900598335
-0.3587772846221924,-0.19242656230926514,1.5300860404968262,2023-10-21T15:03:18.355928Z,1697900598355
-0.45508456230163574,-0.49361276626586914,1.7724003791809082,2023-10-21T15:03:18.378489Z,1697900598378
-0.5355877876281738,-0.8130970001220703,1.7418479919433594,2023-10-21T15:03:18.396444Z,1697900598396
-0.567157506942749,-1.0142755508422852,1.4493045806884766,2023-10-21T15:03:18.416768Z,1697900598416
-0.5119202136993408,-0.9913263320922852,0.9950017929077148,2023-10-21T15:03:18.436989Z,1697900598436
-0.35348081588745117,-0.7034139633178711,0.5053367614746094,2023-10-21T15:03:18.457220Z,1697900598457
-0.08742308616638184,-0.17287874221801758,0.08817315101623535,2023-10-21T15:03:18.478438Z,1697900598478
0.27587890625,0.5352268218994141,-0.1867837905883789,2023-10-21T15:03:18.497847Z,1697900598497
0.7009506225585938,1.3359136581420898,-0.29382991790771484,2023-10-21T15:03:18.518076Z,1697900598518
1.1407175064086914,2.1509885787963867,-0.24762463569641113,2023-10-21T15:03:18.538264Z,1697900598538
1.5488414764404297,2.9129714965820312,-0.08977612853050232,2023-10-21T15:03:18.558488Z,1697900598558
1.881432056427002,3.5658226013183594,0.1238510012626648,2023-10-21T15:03:18.578816Z,1697900598578
2.110246181488037,4.088007926940918,0.3433225154876709,2023-10-21T15:03:18.599137Z,1697900598599
2.230313777923584,4.486230850219727,0.5361793041229248,2023-10-21T15:03:18.619404Z,1697900598619
2.2616400718688965,4.793861389160156,0.6807966232299805,2023-10-21T15:03:18.639604Z,1697900598639
2.2427167892456055,5.043891906738281,0.7686030864715576,2023-10-21T15:03:18.661739Z,1697900598661
2.2104859352111816,5.255647659301758,0.7889456748962402,2023-10-21T15:03:18.680199Z,1697900598680
2.1811881065368652,5.441862106323242,0.7413017749786377,2023-10-21T15:03:18.700456Z,1697900598700
2.160057544708252,5.599028587341309,0.6305800676345825,2023-10-21T15:03:18.720712Z,1697900598720
2.146385431289673,5.731454849243164,0.4730263948440552,2023-10-21T15:03:18.740968Z,1697900598740
2.1536195278167725,5.854883193969727,0.29293292760849,2023-10-21T15:03:18.761143Z,1697900598761
2.2023379802703857,5.984265327453613,0.11251363158226013,2023-10-21T15:03:18.781434Z,1697900598781
2.293337345123291,6.110612869262695,-0.06306213140487671,2023-10-21T15:03:18.801913Z,1697900598801
2.4125049114227295,6.210485458374023,-0.23621362447738647,2023-10-21T15:03:18.821974Z,1697900598821
2.531392812728882,6.243095397949219,-0.4021398425102234,2023-10-21T15:03:18.844716Z,1697900598844
2.607865333557129,6.180818557739258,-0.5565707683563232,2023-10-21T15:03:18.862487Z,1697900598862
2.6080760955810547,6.012751579284668,-0.6872364282608032,2023-10-21T15:03:18.882784Z,1697900598882
2.529181480407715,5.743887901306152,-0.791231632232666,2023-10-21T15:03:18.903051Z,1697900598903
2.3907320499420166,5.4058990478515625,-0.8717000484466553,2023-10-21T15:03:18.923281Z,1697900598923
2.220305919647217,5.029518127441406,-0.9362499713897705,2023-10-21T15:03:18.944844Z,1697900598944
2.0274834632873535,4.6396684646606445,-0.9921247959136963,2023-10-21T15:03:18.963835Z,1697900598963
1.8187594413757324,4.254319190979004,-1.041736364364624,2023-10-21T15:03:18.984114Z,1697900598984
1.6083695888519287,3.8850364685058594,-1.0806403160095215,2023-10-21T15:03:19.004323Z,1697900599004
1.410191535949707,3.5436582565307617,-1.1064867973327637,2023-10-21T15:03:19.024550Z,1697900599024
1.2304954528808594,3.240157127380371,-1.1197822093963623,2023-10-21T15:03:19.044832Z,1697900599044
1.0711288452148438,2.978902816772461,-1.121589183807373,2023-10-21T15:03:19.065144Z,1697900599065
0.9324028491973877,2.7566308975219727,-1.1117277145385742,2023-10-21T15:03:19.085421Z,1697900599085
0.8135979175567627,2.5624465942382812,-1.0878641605377197,2023-10-21T15:03:19.105736Z,1697900599105
0.7105169296264648,2.380868911743164,-1.0454511642456055,2023-10-21T15:03:19.128066Z,1697900599128
0.619483470916748,2.199634552001953,-0.9813022613525391,2023-10-21T15:03:19.146178Z,1697900599146
0.5385286808013916,2.0093345642089844,-0.8949615955352783,2023-10-21T15:03:19.166588Z,1697900599166
0.4657173156738281,1.8019638061523438,-0.7884664535522461,2023-10-21T15:03:19.186719Z,1697900599186
0.39809417724609375,1.5716876983642578,-0.6660895347595215,2023-10-21T15:03:19.206984Z,1697900599206
0.33150482177734375,1.3144207000732422,-0.5328099727630615,2023-10-21T15:03:19.227823Z,1697900599227
0.2630424499511719,1.0300884246826172,-0.3949868679046631,2023-10-21T15:03:19.247505Z,1697900599247
0.19061732292175293,0.7251768112182617,-0.2606844902038574,2023-10-21T15:03:19.267782Z,1697900599267
0.1139521598815918,0.4156942367553711,-0.13904047012329102,2023-10-21T15:03:19.288017Z,1697900599287
0.03540658950805664,0.12272453308105469,-0.03795981407165527,2023-10-21T15:03:19.311184Z,1697900599311
-0.04112982749938965,-0.13451480865478516,0.03829002380371094,2023-10-21T15:03:19.328529Z,1697900599328
-0.11264753341674805,-0.34557056427001953,0.09025430679321289,2023-10-21T15:03:19.348841Z,1697900599348
-0.17746734619140625,-0.5088405609130859,0.12177395820617676,2023-10-21T15:03:19.369095Z,1697900599369
-0.23379111289978027,-0.6273031234741211,0.1372436285018921,2023-10-21T15:03:19.394492Z,1697900599394
-0.27899861335754395,-0.7042684555053711,0.14021754264831543,2023-10-21T15:03:19.411559Z,1697900599411
-0.31052589416503906,-0.7419366836547852,0.13338875770568848,2023-10-21T15:03:19.429886Z,1697900599429
-0.3267087936401367,-0.7425975799560547,0.11924028396606445,2023-10-21T15:03:19.450167Z,1697900599450
-0.327239990234375,-0.7100095748901367,0.10018682479858398,2023-10-21T15:03:19.470391Z,1697900599470
-0.3131225109100342,-0.6497945785522461,0.07882469892501831,2023-10-21T15:03:19.490600Z,1697900599490
-0.2859354019165039,-0.5682220458984375,0.05767315626144409,2023-10-21T15:03:19.510906Z,1697900599510
-0.24823617935180664,-0.47315502166748047,0.03894996643066406,2023-10-21T15:03:19.531252Z,1697900599531
-0.2045760154724121,-0.37496471405029297,0.02413761615753174,2023-10-21T15:03:19.551505Z,1697900599551
-0.16033601760864258,-0.2834901809692383,0.01360243558883667,2023-10-21T15:03:19.571720Z,1697900599571
-0.12057065963745117,-0.20630264282226562,0.006837606430053711,2023-10-21T15:03:19.594355Z,1697900599594
-0.089080810546875,-0.1479034423828125,0.0029046982526779175,2023-10-21T15:03:19.612253Z,1697900599612
-0.06828546524047852,-0.11030960083007812,7.851496338844299E-4,2023-10-21T15:03:19.632610Z,1697900599632
-0.0594487190246582,-0.09377098083496094,-4.3826550245285034E-4,2023-10-21T15:03:19.652831Z,1697900599652
-0.06236076354980469,-0.09655284881591797,-0.0015241503715515137,2023-10-21T15:03:19.673057Z,1697900599672
-0.07547855377197266,-0.11556434631347656,-0.003030255436897278,2023-10-21T15:03:19.694178Z,1697900599694
-0.09642553329467773,-0.14738845825195312,-0.0053053200244903564,2023-10-21T15:03:19.713581Z,1697900599713
-0.12155675888061523,-0.1873464584350586,-0.008485853672027588,2023-10-21T15:03:19.733936Z,1697900599733
-0.14620208740234375,-0.22937965393066406,-0.012471914291381836,2023-10-21T15:03:19.754117Z,1697900599754
-0.16523027420043945,-0.26610469818115234,-0.01689314842224121,2023-10-21T15:03:19.774306Z,1697900599774
-0.17473554611206055,-0.2908134460449219,-0.021095216274261475,2023-10-21T15:03:19.794656Z,1697900599794
-0.17319011688232422,-0.29935455322265625,-0.024331212043762207,2023-10-21T15:03:19.814935Z,1697900599814
-0.16202974319458008,-0.29177379608154297,-0.026045799255371094,2023-10-21T15:03:19.835198Z,1697900599835
-0.14470863342285156,-0.2720365524291992,-0.026133298873901367,2023-10-21T15:03:19.855416Z,1697900599855
-0.12416219711303711,-0.2439403533935547,-0.024704933166503906,2023-10-21T15:03:19.877481Z,1697900599877
-0.10201787948608398,-0.20947265625,-0.02185577154159546,2023-10-21T15:03:19.895938Z,1697900599895
-0.07850503921508789,-0.16814804077148438,-0.01764702796936035,2023-10-21T15:03:19.916303Z,1697900599916
-0.05400872230529785,-0.1203145980834961,-0.01238924264907837,2023-10-21T15:03:19.936479Z,1697900599936
-0.029349327087402344,-0.06782817840576172,-0.006681203842163086,2023-10-21T15:03:19.956715Z,1697900599956
-0.005845546722412109,-0.013996124267578125,-0.0012865662574768066,2023-10-21T15:03:19.977348Z,1697900599977
0.015074491500854492,0.03742694854736328,0.0031248927116394043,2023-10-21T15:03:19.997284Z,1697900599997
0.03280925750732422,0.08458709716796875,0.006251037120819092,2023-10-21T15:03:20.017568Z,1697900600017
0.04791665077209473,0.12843608856201172,0.00814509391784668,2023-10-21T15:03:20.037774Z,1697900600037
0.06257319450378418,0.17418193817138672,0.009101003408432007,2023-10-21T15:03:20.060641Z,1697900600060
0.07806253433227539,0.22489261627197266,0.009128808975219727,2023-10-21T15:03:20.078314Z,1697900600078
0.09417104721069336,0.27942466735839844,0.00805652141571045,2023-10-21T15:03:20.098619Z,1697900600098
0.10922050476074219,0.3323841094970703,0.0057212114334106445,2023-10-21T15:03:20.118846Z,1697900600118
0.12190556526184082,0.379486083984375,0.0021565817296504974,2023-10-21T15:03:20.139083Z,1697900600139
0.13208389282226562,0.41980457305908203,-0.00255710631608963,2023-10-21T15:03:20.160552Z,1697900600160
0.1405024528503418,0.45499420166015625,-0.008438795804977417,2023-10-21T15:03:20.179659Z,1697900600179
0.14832115173339844,0.48778247833251953,-0.01561957597732544,2023-10-21T15:03:20.199937Z,1697900600199
0.15639781951904297,0.5201358795166016,-0.024247467517852783,2023-10-21T15:03:20.220140Z,1697900600220
0.16512751579284668,0.5533361434936523,-0.034466445446014404,2023-10-21T15:03:20.240333Z,1697900600240
0.1740422248840332,0.5865030288696289,-0.04619622230529785,2023-10-21T15:03:20.260694Z,1697900600260
0.18224072456359863,0.6176290512084961,-0.05916857719421387,2023-10-21T15:03:20.280978Z,1697900600280
0.18885326385498047,0.644679069519043,-0.07294619083404541,2023-10-21T15:03:20.301252Z,1697900600301
0.19351983070373535,0.6666183471679688,-0.08701503276824951,2023-10-21T15:03:20.321476Z,1697900600321
0.19646573066711426,0.6836414337158203,-0.10087239742279053,2023-10-21T15:03:20.344075Z,1697900600344
0.1984264850616455,0.6974496841430664,-0.11418938636779785,2023-10-21T15:03:20.362061Z,1697900600362
0.20008397102355957,0.709691047668457,-0.1267073154449463,2023-10-21T15:03:20.382328Z,1697900600382
0.20137381553649902,0.7197332382202148,-0.13773560523986816,2023-10-21T15:03:20.402570Z,1697900600402
0.20151686668395996,0.7243728637695312,-0.14606189727783203,2023-10-21T15:03:20.422771Z,1697900600422
0.19953155517578125,0.7193260192871094,-0.15030550956726074,2023-10-21T15:03:20.443699Z,1697900600443
0.19488048553466797,0.7019739151000977,-0.1496868133544922,2023-10-21T15:03:20.463441Z,1697900600463
0.18780279159545898,0.6729660034179688,-0.1445174217224121,2023-10-21T15:03:20.483647Z,1697900600483
0.1794261932373047,0.6364536285400391,-0.13610529899597168,2023-10-21T15:03:20.503848Z,1697900600503
0.17072534561157227,0.5966320037841797,-0.1258091926574707,2023-10-21T15:03:20.527197Z,1697900600527
0.16197991371154785,0.5556869506835938,-0.11445879936218262,2023-10-21T15:03:20.544397Z,1697900600544
0.15210294723510742,0.5114936828613281,-0.10197567939758301,2023-10-21T15:03:20.564716Z,1697900600564
0.14001870155334473,0.46187686920166016,-0.0883328914642334,2023-10-21T15:03:20.584962Z,1697900600584
0.1260240077972412,0.4086723327636719,-0.07441842555999756,2023-10-21T15:03:20.605185Z,1697900600605
0.11194515228271484,0.35777950286865234,-0.061722755432128906,2023-10-21T15:03:20.626970Z,1697900600626
0.09997892379760742,0.31557655334472656,-0.051427602767944336,2023-10-21T15:03:20.645736Z,1697900600645
0.09125757217407227,0.28488922119140625,-0.043776869773864746,2023-10-21T15:03:20.666019Z,1697900600665
0.08556747436523438,0.2644214630126953,-0.03819119930267334,2023-10-21T15:03:20.686244Z,1697900600686
0.08148074150085449,0.24944400787353516,-0.033666014671325684,2023-10-21T15:03:20.706438Z,1697900600706
0.07756590843200684,0.23534774780273438,-0.029430627822875977,2023-10-21T15:03:20.726856Z,1697900600726
0.07296967506408691,0.2193441390991211,-0.02516460418701172,2023-10-21T15:03:20.747076Z,1697900600747
0.06800293922424316,0.20213985443115234,-0.021052420139312744,2023-10-21T15:03:20.767316Z,1697900600767
0.06341004371643066,0.18578052520751953,-0.01735544204711914,2023-10-21T15:03:20.787559Z,1697900600787
0.05944204330444336,0.17101478576660156,-0.01410531997680664,2023-10-21T15:03:20.810254Z,1697900600810
0.055816650390625,0.15719223022460938,-0.011188268661499023,2023-10-21T15:03:20.828093Z,1697900600828
0.05219411849975586,0.143646240234375,-0.008543670177459717,2023-10-21T15:03:20.848399Z,1697900600848
0.048429012298583984,0.13019275665283203,-0.006177335977554321,2023-10-21T15:03:20.868635Z,1697900600868
0.04461479187011719,0.11722755432128906,-0.004140347242355347,2023-10-21T15:03:20.888905Z,1697900600888
0.04097461700439453,0.10533618927001953,-0.0024605393409729004,2023-10-21T15:03:20.910100Z,1697900600910
0.03787827491760254,0.09541893005371094,-0.0011281594634056091,2023-10-21T15:03:20.929499Z,1697900600929
0.035936594009399414,0.08887863159179688,-7.87666067481041E-5,2023-10-21T15:03:20.949763Z,1697900600949
0.035668373107910156,0.08678531646728516,8.102953433990479E-4,2023-10-21T15:03:20.969981Z,1697900600969
0.03695511817932129,0.08868026733398438,0.001660868525505066,2023-10-21T15:03:20.990126Z,1697900600990
0.03923511505126953,0.09312629699707031,0.002538323402404785,2023-10-21T15:03:21.010454Z,1697900601010
0.041826486587524414,0.0985422134399414,0.003435879945755005,2023-10-21T15:03:21.030770Z,1697900601030
0.04413270950317383,0.10357666015625,0.004309296607971191,2023-10-21T15:03:21.051106Z,1697900601051
0.04588961601257324,0.10766029357910156,0.0051271915435791016,2023-10-21T15:03:21.071277Z,1697900601071
0.04716324806213379,0.11092662811279297,0.005894780158996582,2023-10-21T15:03:21.093346Z,1697900601093
0.04781842231750488,0.11301994323730469,0.006596744060516357,2023-10-21T15:03:21.111784Z,1697900601111
0.047506093978881836,0.11307334899902344,0.007182657718658447,2023-10-21T15:03:21.132152Z,1697900601132
0.04546380043029785,0.10922431945800781,0.0075165629386901855,2023-10-21T15:03:21.152309Z,1697900601152
0.041086673736572266,0.09986591339111328,0.007433593273162842,2023-10-21T15:03:21.172497Z,1697900601172
0.03454995155334473,0.08514118194580078,0.006848752498626709,2023-10-21T15:03:21.193488Z,1697900601193
0.026680469512939453,0.06673908233642578,0.005792379379272461,2023-10-21T15:03:21.213137Z,1697900601213
0.01837444305419922,0.04666328430175781,0.00435560941696167,2023-10-21T15:03:21.233414Z,1697900601233
0.010437488555908203,0.026895523071289062,0.0026854276657104492,2023-10-21T15:03:21.253616Z,1697900601253
0.0035140514373779297,0.009184837341308594,9.733438491821289E-4,2023-10-21T15:03:21.276626Z,1697900601276
-0.0018770694732666016,-0.0049839019775390625,-5.559921264648438E-4,2023-10-21T15:03:21.294197Z,1697900601294
-0.005255937576293945,-0.014199256896972656,-0.0016591548919677734,2023-10-21T15:03:21.314504Z,1697900601314
-0.006392717361450195,-0.01764678955078125,-0.0021325349807739258,2023-10-21T15:03:21.334687Z,1697900601334
-0.005264759063720703,-0.014926910400390625,-0.0018472671508789062,2023-10-21T15:03:21.354938Z,1697900601354
-0.0021429061889648438,-0.006274223327636719,-7.877349853515625E-4,2023-10-21T15:03:21.376504Z,1697900601376
0.002206563949584961,0.006722450256347656,8.480548858642578E-4,2023-10-21T15:03:21.395563Z,1697900601395
0.006906032562255859,0.02204418182373047,0.0027731657028198242,2023-10-21T15:03:21.415783Z,1697900601415
0.01131749153137207,0.03814411163330078,0.004747748374938965,2023-10-21T15:03:21.435987Z,1697900601435
0.015217065811157227,0.054599761962890625,0.006671786308288574,2023-10-21T15:03:21.456149Z,1697900601456
0.0186309814453125,0.07175636291503906,0.008532166481018066,2023-10-21T15:03:21.476506Z,1697900601476
0.02153491973876953,0.08971786499023438,0.010293006896972656,2023-10-21T15:03:21.496816Z,1697900601496
0.02382183074951172,0.10811710357666016,0.011853814125061035,2023-10-21T15:03:21.517069Z,1697900601517
0.02536165714263916,0.12609386444091797,0.013057708740234375,2023-10-21T15:03:21.537294Z,1697900601537
0.02611684799194336,0.1427469253540039,0.013760805130004883,2023-10-21T15:03:21.559584Z,1697900601559
0.026292800903320312,0.15819549560546875,0.013945281505584717,2023-10-21T15:03:21.577833Z,1697900601577
0.026257753372192383,0.1740245819091797,0.013723909854888916,2023-10-21T15:03:21.598139Z,1697900601598
0.02615511417388916,0.1914386749267578,0.013134896755218506,2023-10-21T15:03:21.618567Z,1697900601618
0.025948405265808105,0.21073341369628906,0.012157201766967773,2023-10-21T15:03:21.638619Z,1697900601638
0.02546513080596924,0.23032188415527344,0.010718464851379395,2023-10-21T15:03:21.659585Z,1697900601659
0.024757981300354004,0.248748779296875,0.008777111768722534,2023-10-21T15:03:21.679205Z,1697900601679
0.02416229248046875,0.26668739318847656,0.006351053714752197,2023-10-21T15:03:21.699492Z,1697900601699
0.024137437343597412,0.2869539260864258,0.0034777745604515076,2023-10-21T15:03:21.719725Z,1697900601719
0.025100529193878174,0.31394100189208984,1.2998096644878387E-4,2023-10-21T15:03:21.742723Z,1697900601742
0.0272676944732666,0.3507957458496094,-0.0038388818502426147,2023-10-21T15:03:21.760184Z,1697900601760
0.03043341636657715,0.3949623107910156,-0.008455932140350342,2023-10-21T15:03:21.780535Z,1697900601780
0.03414797782897949,0.4391803741455078,-0.013368785381317139,2023-10-21T15:03:21.800804Z,1697900601800
0.03810834884643555,0.47675323486328125,-0.01794487237930298,2023-10-21T15:03:21.820988Z,1697900601820
0.042181432247161865,0.5041999816894531,-0.021644532680511475,2023-10-21T15:03:21.842765Z,1697900601842
0.04629206657409668,0.5216379165649414,-0.0242803692817688,2023-10-21T15:03:21.861566Z,1697900601861
0.05016374588012695,0.5303440093994141,-0.02577158808708191,2023-10-21T15:03:21.881838Z,1697900601881
0.053445637226104736,0.5313434600830078,-0.026028215885162354,2023-10-21T15:03:21.902061Z,1697900601902
0.055890440940856934,0.5255022048950195,-0.025025159120559692,2023-10-21T15:03:21.922226Z,1697900601922
0.05726134777069092,0.5122489929199219,-0.02276545763015747,2023-10-21T15:03:21.942673Z,1697900601942
0.057289958000183105,0.48993778228759766,-0.01933988928794861,2023-10-21T15:03:21.962918Z,1697900601962
0.05602526664733887,0.4594249725341797,-0.015149205923080444,2023-10-21T15:03:21.983125Z,1697900601983
0.05405080318450928,0.42540836334228516,-0.010799556970596313,2023-10-21T15:03:22.003378Z,1697900602003
0.05215156078338623,0.39351940155029297,-0.006698742508888245,2023-10-21T15:03:22.026060Z,1697900602026
0.05100715160369873,0.3684062957763672,-0.002976745367050171,2023-10-21T15:03:22.043888Z,1697900602043
0.05105555057525635,0.35289764404296875,4.525473341345787E-4,2023-10-21T15:03:22.064237Z,1697900602064
0.05234110355377197,0.34658241271972656,0.0037843286991119385,2023-10-21T15:03:22.084425Z,1697900602084
0.05453014373779297,0.3461017608642578,0.00717538595199585,2023-10-21T15:03:22.104656Z,1697900602104
0.057156920433044434,0.34717369079589844,0.010668456554412842,2023-10-21T15:03:22.125939Z,1697900602125
0.05984604358673096,0.34672069549560547,0.014171987771987915,2023-10-21T15:03:22.145295Z,1697900602145
0.06256163120269775,0.3447103500366211,0.017550647258758545,2023-10-21T15:03:22.165514Z,1697900602165
0.06521415710449219,0.34174442291259766,0.020772159099578857,2023-10-21T15:03:22.185732Z,1697900602185
0.06734716892242432,0.33673763275146484,0.0237576961517334,2023-10-21T15:03:22.205921Z,1697900602205
0.06812596321105957,0.3270587921142578,0.026245713233947754,2023-10-21T15:03:22.226265Z,1697900602226
0.06661128997802734,0.3094320297241211,0.027794957160949707,2023-10-21T15:03:22.246608Z,1697900602246
0.06231856346130371,0.28232669830322266,0.02801525592803955,2023-10-21T15:03:22.266810Z,1697900602266
0.05587577819824219,0.2488698959350586,0.026927590370178223,2023-10-21T15:03:22.287033Z,1697900602286
0.04859113693237305,0.21463298797607422,0.024955153465270996,2023-10-21T15:03:22.309178Z,1697900602309
0.041391849517822266,0.18321609497070312,0.022525787353515625,2023-10-21T15:03:22.327615Z,1697900602327
0.0345151424407959,0.1548633575439453,0.019826412200927734,2023-10-21T15:03:22.347922Z,1697900602347
0.027865886688232422,0.1281290054321289,0.0168607234954834,2023-10-21T15:03:22.368133Z,1697900602368
0.021635055541992188,0.10271930694580078,0.013721704483032227,2023-10-21T15:03:22.388332Z,1697900602388
0.016495704650878906,0.08115959167480469,0.010857462882995605,2023-10-21T15:03:22.409044Z,1697900602409
0.013120174407958984,0.06685161590576172,0.00882112979888916,2023-10-21T15:03:22.428941Z,1697900602428
0.01202857494354248,0.06323432922363281,0.008092164993286133,2023-10-21T15:03:22.449297Z,1697900602449
0.013198375701904297,0.07118606567382812,0.00868535041809082,2023-10-21T15:03:22.469522Z,1697900602469
0.015974998474121094,0.08780097961425781,0.01004934310913086,2023-10-21T15:03:22.492820Z,1697900602492
0.019307851791381836,0.10740470886230469,0.011387944221496582,2023-10-21T15:03:22.509991Z,1697900602509
0.022410035133361816,0.12546920776367188,0.01220172643661499,2023-10-21T15:03:22.530275Z,1697900602530
0.025096654891967773,0.14079856872558594,0.012446701526641846,2023-10-21T15:03:22.550527Z,1697900602550
0.027512550354003906,0.15425395965576172,0.01228940486907959,2023-10-21T15:03:22.570705Z,1697900602570
0.029860734939575195,0.16721153259277344,0.011905014514923096,2023-10-21T15:03:22.592247Z,1697900602592
0.03211390972137451,0.17983627319335938,0.011348605155944824,2023-10-21T15:03:22.611345Z,1697900602611
0.03427720069885254,0.1924724578857422,0.01066213846206665,2023-10-21T15:03:22.631592Z,1697900602631
0.03634476661682129,0.2054281234741211,0.009857654571533203,2023-10-21T15:03:22.651793Z,1697900602651
0.038327574729919434,0.21918773651123047,0.008936047554016113,2023-10-21T15:03:22.671979Z,1697900602671
0.04010319709777832,0.23360061645507812,0.007862627506256104,2023-10-21T15:03:22.692335Z,1697900602692
0.0416339635848999,0.2488555908203125,0.006629228591918945,2023-10-21T15:03:22.712634Z,1697900602712
0.04296433925628662,0.26538944244384766,0.005231603980064392,2023-10-21T15:03:22.732878Z,1697900602732
0.04415154457092285,0.28338623046875,0.003648430109024048,2023-10-21T15:03:22.753132Z,1697900602753
0.04515337944030762,0.30201148986816406,0.0018481239676475525,2023-10-21T15:03:22.775544Z,1697900602775
0.04588055610656738,0.3196878433227539,-1.6653770580887794E-4,2023-10-21T15:03:22.793695Z,1697900602793
0.04631924629211426,0.335052490234375,-0.002343207597732544,2023-10-21T15:03:22.813967Z,1697900602813
0.04674804210662842,0.34899234771728516,-0.004608318209648132,2023-10-21T15:03:22.834190Z,1697900602834
0.04778778553009033,0.3654613494873047,-0.006962820887565613,2023-10-21T15:03:22.854380Z,1697900602854
0.05007624626159668,0.3891639709472656,-0.009468168020248413,2023-10-21T15:03:22.875437Z,1697900602875
0.053960442543029785,0.42270660400390625,-0.012137353420257568,2023-10-21T15:03:22.894983Z,1697900602894
0.0591120719909668,0.46332645416259766,-0.014731675386428833,2023-10-21T15:03:22.915315Z,1697900602915
0.06478345394134521,0.5050516128540039,-0.016807734966278076,2023-10-21T15:03:22.935532Z,1697900602935
0.07013463973999023,0.5415744781494141,-0.017917275428771973,2023-10-21T15:03:22.958639Z,1697900602958
0.07477164268493652,0.5705404281616211,-0.017897486686706543,2023-10-21T15:03:22.976010Z,1697900602975
0.07857465744018555,0.5923776626586914,-0.016860872507095337,2023-10-21T15:03:22.996340Z,1697900602996
0.08149087429046631,0.6083259582519531,-0.015005230903625488,2023-10-21T15:03:23.016549Z,1697900603016
0.08310246467590332,0.6170186996459961,-0.01243862509727478,2023-10-21T15:03:23.036792Z,1697900603036
0.08261966705322266,0.6135873794555664,-0.00921107828617096,2023-10-21T15:03:23.058661Z,1697900603058
0.0793454647064209,0.5927085876464844,-0.0055322423577308655,2023-10-21T15:03:23.077408Z,1697900603077
0.07315659523010254,0.5521602630615234,-0.0018582232296466827,2023-10-21T15:03:23.097684Z,1697900603097
0.0647728443145752,0.4957151412963867,0.0012400411069393158,2023-10-21T15:03:23.117925Z,1697900603117
0.055355072021484375,0.43070030212402344,0.003417104482650757,2023-10-21T15:03:23.138052Z,1697900603138
0.04606342315673828,0.36518383026123047,0.004652172327041626,2023-10-21T15:03:23.158471Z,1697900603158
0.037624478340148926,0.3045063018798828,0.005157053470611572,2023-10-21T15:03:23.178674Z,1697900603178
0.030434846878051758,0.2518043518066406,0.005196988582611084,2023-10-21T15:03:23.198915Z,1697900603198
0.024625182151794434,0.20838451385498047,0.004994034767150879,2023-10-21T15:03:23.219195Z,1697900603219
0.02019345760345459,0.17464542388916016,0.004715025424957275,2023-10-21T15:03:23.241850Z,1697900603241
0.017049312591552734,0.1504812240600586,0.004476338624954224,2023-10-21T15:03:23.259739Z,1697900603259
0.015041470527648926,0.13529300689697266,0.004356682300567627,2023-10-21T15:03:23.280008Z,1697900603279
0.01392674446105957,0.12761306762695312,0.004381537437438965,2023-10-21T15:03:23.300247Z,1697900603300
0.01345205307006836,0.12566661834716797,0.00453832745552063,2023-10-21T15:03:23.320466Z,1697900603320
0.013250112533569336,0.12636947631835938,0.004739344120025635,2023-10-21T15:03:23.341775Z,1697900603341
0.012881278991699219,0.12560272216796875,0.004840284585952759,2023-10-21T15:03:23.361061Z,1697900603361
0.011889398097991943,0.11865615844726562,0.004652976989746094,2023-10-21T15:03:23.381340Z,1697900603381
0.00997859239578247,0.10210990905761719,0.004037022590637207,2023-10-21T15:03:23.401571Z,1697900603401
0.00722348690032959,0.07601261138916016,0.0029934346675872803,2023-10-21T15:03:23.424990Z,1697900603424
0.0039664506912231445,0.043198585510253906,0.0016672909259796143,2023-10-21T15:03:23.442426Z,1697900603442
7.072687149047852E-4,0.008054733276367188,2.994239330291748E-4,2023-10-21T15:03:23.462442Z,1697900603462
-0.0021382570266723633,-0.025661468505859375,-8.974373340606689E-4,2023-10-21T15:03:23.482657Z,1697900603482
-0.004311263561248779,-0.055106163024902344,-0.0017778277397155762,2023-10-21T15:03:23.502939Z,1697900603502
-0.0056969523429870605,-0.07787704467773438,-0.0022599399089813232,2023-10-21T15:03:23.525024Z,1697900603524
-0.006257593631744385,-0.0911417007446289,-0.0023064017295837402,2023-10-21T15:03:23.543426Z,1697900603543
-0.005960047245025635,-0.0913534164428711,-0.0019219815731048584,2023-10-21T15:03:23.563763Z,1697900603563
-0.004722654819488525,-0.07480525970458984,-0.0012063980102539062,2023-10-21T15:03:23.583967Z,1697900603583
-0.0024703145027160645,-0.039620399475097656,-4.234015941619873E-4,2023-10-21T15:03:23.604215Z,1697900603604
7.758736610412598E-4,0.012308120727539062,5.984678864479065E-5,2023-10-21T15:03:23.624853Z,1697900603624
0.004941821098327637,0.0759725570678711,-7.163640111684799E-5,2023-10-21T15:03:23.644793Z,1697900603644
0.009956300258636475,0.14493846893310547,-9.761452674865723E-4,2023-10-21T15:03:23.665120Z,1697900603665
0.015800893306732178,0.21360397338867188,-0.0026702135801315308,2023-10-21T15:03:23.685225Z,1697900603685
0.022454917430877686,0.27781105041503906,-0.005092233419418335,2023-10-21T15:03:23.708049Z,1697900603708
0.029719650745391846,0.3338632583618164,-0.00810357928276062,2023-10-21T15:03:23.725801Z,1697900603725
0.037162065505981445,0.3788013458251953,-0.01146763563156128,2023-10-21T15:03:23.746104Z,1697900603746
0.044245123863220215,0.41076183319091797,-0.01489114761352539,2023-10-21T15:03:23.766332Z,1697900603766
0.050550103187561035,0.4296302795410156,-0.01811632513999939,2023-10-21T15:03:23.786530Z,1697900603786
0.05591464042663574,0.4368619918823242,-0.02098923921585083,2023-10-21T15:03:23.808103Z,1697900603808
0.06039154529571533,0.4349231719970703,-0.023483097553253174,2023-10-21T15:03:23.827143Z,1697900603827
0.06418013572692871,0.4268054962158203,-0.025670111179351807,2023-10-21T15:03:23.847450Z,1697900603847
0.06745541095733643,0.41496944427490234,-0.027650058269500732,2023-10-21T15:03:23.867655Z,1697900603867
0.07039403915405273,0.40155696868896484,-0.0295526385307312,2023-10-21T15:03:23.887808Z,1697900603887
0.0731806755065918,0.3883056640625,-0.031516194343566895,2023-10-21T15:03:23.908143Z,1697900603908
0.07620596885681152,0.3773841857910156,-0.03378504514694214,2023-10-21T15:03:23.928447Z,1697900603928
0.08011460304260254,0.3712806701660156,-0.03671252727508545,2023-10-21T15:03:23.948699Z,1697900603948
0.08555793762207031,0.37191200256347656,-0.04069161415100098,2023-10-21T15:03:23.968945Z,1697900603968
0.09283900260925293,0.3793964385986328,-0.04595685005187988,2023-10-21T15:03:23.991318Z,1697900603991
0.10181140899658203,0.39239501953125,-0.05256044864654541,2023-10-21T15:03:24.009485Z,1697900604009
0.11206984519958496,0.4091339111328125,-0.06040966510772705,2023-10-21T15:03:24.029809Z,1697900604029
0.12323880195617676,0.4283866882324219,-0.06937026977539062,2023-10-21T15:03:24.050018Z,1697900604049
0.13538646697998047,0.4504966735839844,-0.07952010631561279,2023-10-21T15:03:24.070232Z,1697900604070
0.1489267349243164,0.4765806198120117,-0.09105789661407471,2023-10-21T15:03:24.091261Z,1697900604091
0.16452765464782715,0.5080289840698242,-0.10428130626678467,2023-10-21T15:03:24.110825Z,1697900604110
0.1825716495513916,0.5450601577758789,-0.11922192573547363,2023-10-21T15:03:24.131095Z,1697900604131
0.20269227027893066,0.5857925415039062,-0.13535237312316895,2023-10-21T15:03:24.151347Z,1697900604151
0.22387146949768066,0.6269426345825195,-0.1516399383544922,2023-10-21T15:03:24.174509Z,1697900604174
0.24506783485412598,0.6658744812011719,-0.16707515716552734,2023-10-21T15:03:24.191858Z,1697900604191
0.26595592498779297,0.7023534774780273,-0.18124604225158691,2023-10-21T15:03:24.212167Z,1697900604212
0.2869601249694824,0.7380762100219727,-0.19441008567810059,2023-10-21T15:03:24.232442Z,1697900604232
0.30866575241088867,0.7745380401611328,-0.20702123641967773,2023-10-21T15:03:24.252664Z,1697900604252
0.331207275390625,0.8114337921142578,-0.21916532516479492,2023-10-21T15:03:24.274439Z,1697900604274
0.35379934310913086,0.8463058471679688,-0.23038387298583984,2023-10-21T15:03:24.293196Z,1697900604293
0.3749427795410156,0.8758859634399414,-0.2398664951324463,2023-10-21T15:03:24.313492Z,1697900604313
0.3928542137145996,0.8971347808837891,-0.24669313430786133,2023-10-21T15:03:24.333716Z,1697900604333
0.40632009506225586,0.9084329605102539,-0.2503228187561035,2023-10-21T15:03:24.353881Z,1697900604353
0.4157686233520508,0.9108066558837891,-0.25113701820373535,2023-10-21T15:03:24.374282Z,1697900604374
0.42293834686279297,0.9069643020629883,-0.25021839141845703,2023-10-21T15:03:24.394599Z,1697900604394
0.429776668548584,0.8992204666137695,-0.2486715316772461,2023-10-21T15:03:24.414916Z,1697900604414
0.43671464920043945,0.8869543075561523,-0.2465837001800537,2023-10-21T15:03:24.435201Z,1697900604435
0.44248533248901367,0.8673524856567383,-0.2430870532989502,2023-10-21T15:03:24.457833Z,1697900604457
0.44486379623413086,0.8371572494506836,-0.23678994178771973,2023-10-21T15:03:24.475683Z,1697900604475
0.44225168228149414,0.7951412200927734,-0.22676825523376465,2023-10-21T15:03:24.495966Z,1697900604495
0.43471240997314453,0.7431888580322266,-0.21301889419555664,2023-10-21T15:03:24.516243Z,1697900604516
0.4242682456970215,0.686030387878418,-0.19685697555541992,2023-10-21T15:03:24.536404Z,1697900604536
0.4133319854736328,0.6287155151367188,-0.17981624603271484,2023-10-21T15:03:24.557696Z,1697900604557
0.4029560089111328,0.5741443634033203,-0.16306686401367188,2023-10-21T15:03:24.577012Z,1697900604576
0.3909592628479004,0.5206451416015625,-0.14646387100219727,2023-10-21T15:03:24.597320Z,1697900604597
0.3719601631164551,0.46266651153564453,-0.12873148918151855,2023-10-21T15:03:24.617543Z,1697900604617
0.34110450744628906,0.39611053466796875,-0.10900354385375977,2023-10-21T15:03:24.637687Z,1697900604637
0.2954673767089844,0.3198819160461426,-0.08714914321899414,2023-10-21T15:03:24.658042Z,1697900604658
0.23600435256958008,0.23770570755004883,-0.0643547773361206,2023-10-21T15:03:24.678345Z,1697900604678
0.16402244567871094,0.15331792831420898,-0.04156136512756348,2023-10-21T15:03:24.698596Z,1697900604698
0.07848310470581055,0.06787967681884766,-0.01865839958190918,2023-10-21T15:03:24.718869Z,1697900604718
-0.02593088150024414,-0.020665645599365234,0.005857706069946289,2023-10-21T15:03:24.741013Z,1697900604740
-0.15597295761108398,-0.11383724212646484,0.034004807472229004,2023-10-21T15:03:24.759439Z,1697900604759
-0.3165445327758789,-0.209564208984375,0.06765580177307129,2023-10-21T15:03:24.779713Z,1697900604779
-0.5068855285644531,-0.3000507354736328,0.10765695571899414,2023-10-21T15:03:24.799874Z,1697900604799
-0.7213611602783203,-0.3739738464355469,0.15397655963897705,2023-10-21T15:03:24.820079Z,1697900604820
-0.9531230926513672,-0.4200470447540283,0.2068648338317871,2023-10-21T15:03:24.840798Z,1697900604840
-1.1955881118774414,-0.42845702171325684,0.26795077323913574,2023-10-21T15:03:24.860713Z,1697900604860
-1.4424614906311035,-0.39006471633911133,0.34030091762542725,2023-10-21T15:03:24.880994Z,1697900604880
-1.6797142028808594,-0.29419565200805664,0.42687225341796875,2023-10-21T15:03:24.901219Z,1697900604901
-1.8803091049194336,-0.1319097876548767,0.5295605659484863,2023-10-21T15:03:24.924116Z,1697900604924
-2.0033411979675293,0.09580186009407043,0.6471891403198242,2023-10-21T15:03:24.941725Z,1697900604941
-1.9988164901733398,0.36676669120788574,0.7687282562255859,2023-10-21T15:03:24.962019Z,1697900604961
-1.8183841705322266,0.625004768371582,0.8623440265655518,2023-10-21T15:03:24.982311Z,1697900604982
-1.4459009170532227,0.7765893936157227,0.8706557750701904,2023-10-21T15:03:25.002495Z,1697900605002
-0.9306168556213379,0.7187795639038086,0.7279000282287598,2023-10-21T15:03:25.023990Z,1697900605023
-0.38234424591064453,0.4042062759399414,0.3950037956237793,2023-10-21T15:03:25.043121Z,1697900605043
0.09170293807983398,-0.12808656692504883,-0.12664175033569336,2023-10-21T15:03:25.063412Z,1697900605063
0.44218015670776367,-0.7910094261169434,-0.8187785148620605,2023-10-21T15:03:25.083464Z,1697900605083
0.6765990257263184,-1.4936699867248535,-1.6566162109375,2023-10-21T15:03:25.103674Z,1697900605103
0.8357086181640625,-2.159897804260254,-2.599640369415283,2023-10-21T15:03:25.124097Z,1697900605124
0.9707639217376709,-2.7334699630737305,-3.581806182861328,2023-10-21T15:03:25.144322Z,1697900605144
1.1267273426055908,-3.1892499923706055,-4.533288955688477,2023-10-21T15:03:25.164551Z,1697900605164
1.3255822658538818,-3.530423164367676,-5.4106645584106445,2023-10-21T15:03:25.184754Z,1697900605184
1.5503957271575928,-3.7722091674804688,-6.204139709472656,2023-10-21T15:03:25.207472Z,1697900605207
1.7579319477081299,-3.9195308685302734,-6.899670600891113,2023-10-21T15:03:25.225302Z,1697900605225
1.8973073959350586,-3.9688034057617188,-7.464364051818848,2023-10-21T15:03:25.245618Z,1697900605245
1.9727087020874023,-3.9384565353393555,-7.881309509277344,2023-10-21T15:03:25.265832Z,1697900605265
2.002910852432251,-3.8407607078552246,-8.13784408569336,2023-10-21T15:03:25.286085Z,1697900605286
1.9975972175598145,-3.701462745666504,-8.264946937561035,2023-10-21T15:03:25.307316Z,1697900605307
1.943701982498169,-3.5247950553894043,-8.269296646118164,2023-10-21T15:03:25.326669Z,1697900605326
1.8202927112579346,-3.311955451965332,-8.183780670166016,2023-10-21T15:03:25.346997Z,1697900605346
1.6341782808303833,-3.049744129180908,-8.041729927062988,2023-10-21T15:03:25.367276Z,1697900605367
1.4259226322174072,-2.719003200531006,-7.862154006958008,2023-10-21T15:03:25.390315Z,1697900605390
1.2571284770965576,-2.30389666557312,-7.632384300231934,2023-10-21T15:03:25.407652Z,1697900605407
1.1757835149765015,-1.8103079795837402,-7.338232040405273,2023-10-21T15:03:25.427967Z,1697900605427
1.206052303314209,-1.2615151405334473,-6.985537528991699,2023-10-21T15:03:25.448194Z,1697900605448
1.3187758922576904,-0.6783578395843506,-6.57869815826416,2023-10-21T15:03:25.468499Z,1697900605468
1.4814033508300781,-0.0837530791759491,-6.142733573913574,2023-10-21T15:03:25.490231Z,1697900605490
1.67509126663208,0.516298770904541,-5.686161994934082,2023-10-21T15:03:25.509013Z,1697900605508
1.9058241844177246,1.1215180158615112,-5.261902809143066,2023-10-21T15:03:25.529453Z,1697900605529
2.1957316398620605,1.746553897857666,-4.898599624633789,2023-10-21T15:03:25.549543Z,1697900605549
2.552995204925537,2.40077543258667,-4.582976341247559,2023-10-21T15:03:25.569731Z,1697900605569
2.9467415809631348,3.0674548149108887,-4.255017280578613,2023-10-21T15:03:25.590087Z,1697900605590
3.3187437057495117,3.704195976257324,-3.8604841232299805,2023-10-21T15:03:25.610396Z,1697900605610
3.615039825439453,4.269904136657715,-3.3889646530151367,2023-10-21T15:03:25.630575Z,1697900605630
3.8084964752197266,4.741208076477051,-2.8732972145080566,2023-10-21T15:03:25.650804Z,1697900605650
3.895585536956787,5.116637229919434,-2.3608570098876953,2023-10-21T15:03:25.673476Z,1697900605673
3.8844614028930664,5.39772367477417,-1.8788223266601562,2023-10-21T15:03:25.691409Z,1697900605691
3.8084516525268555,5.593066215515137,-1.4335284233093262,2023-10-21T15:03:25.711685Z,1697900605711
3.7138428688049316,5.714988708496094,-1.0304648876190186,2023-10-21T15:03:25.731950Z,1697900605731
3.652010917663574,5.7855072021484375,-0.6840498447418213,2023-10-21T15:03:25.752147Z,1697900605752
3.6226372718811035,5.827544212341309,-0.4042418599128723,2023-10-21T15:03:25.773455Z,1697900605773
3.6123046875,5.851593017578125,-0.19937020540237427,2023-10-21T15:03:25.792717Z,1697900605792
3.6292896270751953,5.886802673339844,-0.05851876735687256,2023-10-21T15:03:25.813022Z,1697900605812
3.7023048400878906,5.957317352294922,0.01838706061244011,2023-10-21T15:03:25.833216Z,1697900605833
3.8732523918151855,6.090158462524414,0.0413275882601738,2023-10-21T15:03:25.853608Z,1697900605853
4.145819664001465,6.268716812133789,0.02178991213440895,2023-10-21T15:03:25.873796Z,1697900605873
4.466155052185059,6.436361312866211,-0.031235523521900177,2023-10-21T15:03:25.894078Z,1697900605894
4.736752510070801,6.521388053894043,-0.11770522594451904,2023-10-21T15:03:25.914295Z,1697900605914
4.878182888031006,6.4871320724487305,-0.23352950811386108,2023-10-21T15:03:25.934552Z,1697900605934
4.856713771820068,6.3402838706970215,-0.3692891597747803,2023-10-21T15:03:25.956571Z,1697900605956
4.71969747543335,6.11365270614624,-0.5190668106079102,2023-10-21T15:03:25.975072Z,1697900605975
4.518216609954834,5.8426713943481445,-0.6732088327407837,2023-10-21T15:03:25.995418Z,1697900605995
4.264233589172363,5.525993347167969,-0.8327032327651978,2023-10-21T15:03:26.015575Z,1697900606015
3.9452648162841797,5.1503190994262695,-0.9751131534576416,2023-10-21T15:03:26.035793Z,1697900606035
3.5416312217712402,4.690941333770752,-1.0790841579437256,2023-10-21T15:03:26.056410Z,1697900606056
3.0677757263183594,4.151476860046387,-1.1285874843597412,2023-10-21T15:03:26.076409Z,1697900606076
2.5744056701660156,3.5699963569641113,-1.1266863346099854,2023-10-21T15:03:26.096689Z,1697900606096
2.1142826080322266,3.000241279602051,-1.087031602859497,2023-10-21T15:03:26.116910Z,1697900606116
1.7153410911560059,2.4839839935302734,-1.025162935256958,2023-10-21T15:03:26.139750Z,1697900606139
1.3738446235656738,2.0322322845458984,-0.9468169212341309,2023-10-21T15:03:26.157431Z,1697900606157
1.0773797035217285,1.6417503356933594,-0.8529143333435059,2023-10-21T15:03:26.177755Z,1697900606177
0.8281488418579102,1.3168401718139648,-0.7519092559814453,2023-10-21T15:03:26.197995Z,1697900606197
0.6367812156677246,1.068183422088623,-0.6600699424743652,2023-10-21T15:03:26.218218Z,1697900606218
0.5069599151611328,0.9024176597595215,-0.5940523147583008,2023-10-21T15:03:26.239707Z,1697900606239
0.4283897876739502,0.8115615844726562,-0.5600318908691406,2023-10-21T15:03:26.258827Z,1697900606258
0.3860435485839844,0.7812776565551758,-0.5563335418701172,2023-10-21T15:03:26.279058Z,1697900606279
0.3663797378540039,0.7974815368652344,-0.5772533416748047,2023-10-21T15:03:26.299246Z,1697900606299
0.3587677478790283,0.8481874465942383,-0.6154899597167969,2023-10-21T15:03:26.319546Z,1697900606319
0.35230064392089844,0.9163045883178711,-0.6578078269958496,2023-10-21T15:03:26.339812Z,1697900606339
0.3364081382751465,0.9757289886474609,-0.6840286254882812,2023-10-21T15:03:26.360140Z,1697900606360
0.30628156661987305,1.0028448104858398,-0.6779475212097168,2023-10-21T15:03:26.380370Z,1697900606380
0.2659323215484619,0.9887485504150391,-0.6373190879821777,2023-10-21T15:03:26.400587Z,1697900606400
0.22208631038665771,0.9369916915893555,-0.5704302787780762,2023-10-21T15:03:26.422902Z,1697900606422
0.1787252426147461,0.8542366027832031,-0.4871029853820801,2023-10-21T15:03:26.441125Z,1697900606441
0.13512742519378662,0.7351274490356445,-0.38922882080078125,2023-10-21T15:03:26.461432Z,1697900606461
0.09170019626617432,0.5760736465454102,-0.2804746627807617,2023-10-21T15:03:26.481625Z,1697900606481
0.05207705497741699,0.3833017349243164,-0.16986775398254395,2023-10-21T15:03:26.501857Z,1697900606501
0.019550442695617676,0.16844749450683594,-0.06727862358093262,2023-10-21T15:03:26.522814Z,1697900606522
-0.005077660083770752,-0.049653053283691406,0.017717599868774414,2023-10-21T15:03:26.542638Z,1697900606542
-0.02308112382888794,-0.2424602508544922,0.07680273056030273,2023-10-21T15:03:26.562748Z,1697900606562
-0.03659999370574951,-0.38829803466796875,0.10904455184936523,2023-10-21T15:03:26.583106Z,1697900606583
-0.046510934829711914,-0.4794139862060547,0.11958789825439453,2023-10-21T15:03:26.606213Z,1697900606606
-0.05282771587371826,-0.5234479904174805,0.11622190475463867,2023-10-21T15:03:26.623635Z,1697900606623
-0.05579310655593872,-0.5326671600341797,0.10525357723236084,2023-10-21T15:03:26.643785Z,1697900606643
-0.054960787296295166,-0.5069370269775391,0.08923625946044922,2023-10-21T15:03:26.664064Z,1697900606663
-0.051062941551208496,-0.451263427734375,0.07104301452636719,2023-10-21T15:03:26.684258Z,1697900606684
-0.04485619068145752,-0.37601375579833984,0.05314648151397705,2023-10-21T15:03:26.705857Z,1697900606705
-0.03675508499145508,-0.2913179397583008,0.03707098960876465,2023-10-21T15:03:26.724815Z,1697900606724
-0.0271226167678833,-0.20431137084960938,0.023447155952453613,2023-10-21T15:03:26.745141Z,1697900606745
-0.01651453971862793,-0.11876201629638672,0.012355625629425049,2023-10-21T15:03:26.765294Z,1697900606765
-0.00529026985168457,-0.03621673583984375,0.0034407973289489746,2023-10-21T15:03:26.785510Z,1697900606785
0.0060482025146484375,0.039093971252441406,-0.003417491912841797,2023-10-21T15:03:26.805945Z,1697900606805
0.01695573329925537,0.1024932861328125,-0.008279263973236084,2023-10-21T15:03:26.826157Z,1697900606826
0.026427268981933594,0.148468017578125,-0.011053800582885742,2023-10-21T15:03:26.846453Z,1697900606846
0.033440232276916504,0.17397117614746094,-0.011823952198028564,2023-10-21T15:03:26.866693Z,1697900606866
0.03802812099456787,0.18329715728759766,-0.011182248592376709,2023-10-21T15:03:26.889265Z,1697900606889
0.04074263572692871,0.18285274505615234,-0.00976109504699707,2023-10-21T15:03:26.907243Z,1697900606907
0.04236030578613281,0.1784811019897461,-0.008035361766815186,2023-10-21T15:03:26.927541Z,1697900606927
0.0433349609375,0.17301464080810547,-0.006246000528335571,2023-10-21T15:03:26.947786Z,1697900606947
0.04382467269897461,0.16731548309326172,-0.004468858242034912,2023-10-21T15:03:26.967931Z,1697900606967
0.04390716552734375,0.16182518005371094,-0.0027146488428115845,2023-10-21T15:03:26.989161Z,1697900606989
0.04358720779418945,0.15651893615722656,-9.462460875511169E-4,2023-10-21T15:03:27.008581Z,1697900607008
0.04352211952209473,0.15343379974365234,8.540377020835876E-4,2023-10-21T15:03:27.028900Z,1697900607028
0.04457521438598633,0.1552572250366211,0.0027210116386413574,2023-10-21T15:03:27.049052Z,1697900607049
0.04733562469482422,0.16370773315429688,0.004767179489135742,2023-10-21T15:03:27.069271Z,1697900607069
0.05170798301696777,0.17841148376464844,0.007068037986755371,2023-10-21T15:03:27.089546Z,1697900607089
0.056856393814086914,0.19672012329101562,0.009582310914993286,2023-10-21T15:03:27.109881Z,1697900607109
0.061987876892089844,0.21611404418945312,0.012189924716949463,2023-10-21T15:03:27.130124Z,1697900607130
0.06665825843811035,0.23507404327392578,0.014856159687042236,2023-10-21T15:03:27.150352Z,1697900607150
0.0706334114074707,0.2524423599243164,0.01757127046585083,2023-10-21T15:03:27.172420Z,1697900607172
0.07377338409423828,0.2675495147705078,0.020289123058319092,2023-10-21T15:03:27.190873Z,1697900607190
0.0756833553314209,0.27901458740234375,0.022784650325775146,2023-10-21T15:03:27.211202Z,1697900607211
0.07587289810180664,0.28534698486328125,0.02475959062576294,2023-10-21T15:03:27.231461Z,1697900607231
0.07403016090393066,0.2852821350097656,0.02600044012069702,2023-10-21T15:03:27.251613Z,1697900607251
0.06987929344177246,0.27716922760009766,0.02635246515274048,2023-10-21T15:03:27.272308Z,1697900607272
0.06317925453186035,0.2590818405151367,0.025632858276367188,2023-10-21T15:03:27.292212Z,1697900607292
0.05432271957397461,0.23125839233398438,0.02378016710281372,2023-10-21T15:03:27.312468Z,1697900607312
0.04441046714782715,0.19696044921875,0.0209810733795166,2023-10-21T15:03:27.332742Z,1697900607332
0.034896135330200195,0.1616077423095703,0.017686009407043457,2023-10-21T15:03:27.355651Z,1697900607355
0.02698516845703125,0.13066673278808594,0.014514327049255371,2023-10-21T15:03:27.373201Z,1697900607373
0.02110421657562256,0.10683727264404297,0.011881589889526367,2023-10-21T15:03:27.393543Z,1697900607393
0.017154216766357422,0.0905923843383789,0.009944677352905273,2023-10-21T15:03:27.413770Z,1697900607413
0.014723062515258789,0.08069992065429688,0.00863194465637207,2023-10-21T15:03:27.433999Z,1697900607433
0.013564825057983398,0.07654380798339844,0.007880747318267822,2023-10-21T15:03:27.455452Z,1697900607455
0.013889193534851074,0.07978439331054688,0.0078008174896240234,2023-10-21T15:03:27.474563Z,1697900607474
0.016255974769592285,0.09377288818359375,0.00857245922088623,2023-10-21T15:03:27.494838Z,1697900607494
0.021347641944885254,0.12195682525634766,0.010214269161224365,2023-10-21T15:03:27.515061Z,1697900607515
0.029480695724487305,0.1649637222290039,0.012337088584899902,2023-10-21T15:03:27.535260Z,1697900607535
0.04040634632110596,0.22004032135009766,0.014253675937652588,2023-10-21T15:03:27.555590Z,1697900607555
0.05326235294342041,0.2818593978881836,0.01524573564529419,2023-10-21T15:03:27.575939Z,1697900607575
0.06694912910461426,0.3447303771972656,0.014878273010253906,2023-10-21T15:03:27.596158Z,1697900607596
0.08057498931884766,0.4040689468383789,0.013049989938735962,2023-10-21T15:03:27.616380Z,1697900607616
0.09386062622070312,0.45760250091552734,0.009880676865577698,2023-10-21T15:03:27.638736Z,1697900607638
0.10685372352600098,0.5041236877441406,0.005529463291168213,2023-10-21T15:03:27.656925Z,1697900607656
0.11944031715393066,0.5422239303588867,1.5935907140374184E-4,2023-10-21T15:03:27.677260Z,1697900607677
0.13116002082824707,0.5700721740722656,-0.005982547998428345,2023-10-21T15:03:27.697432Z,1697900607697
0.1411728858947754,0.5854101181030273,-0.012516304850578308,2023-10-21T15:03:27.717715Z,1697900607717
0.14874601364135742,0.5871238708496094,-0.019025981426239014,2023-10-21T15:03:27.738554Z,1697900607738
0.15368318557739258,0.5763530731201172,-0.025202780961990356,2023-10-21T15:03:27.758293Z,1697900607758
0.15653061866760254,0.5567893981933594,-0.030968964099884033,2023-10-21T15:03:27.778592Z,1697900607778
0.15831303596496582,0.5333671569824219,-0.03648066520690918,2023-10-21T15:03:27.798767Z,1697900607798
0.15982818603515625,0.5100498199462891,-0.041940927505493164,2023-10-21T15:03:27.821941Z,1697900607821
0.1612997055053711,0.4886493682861328,-0.047442078590393066,2023-10-21T15:03:27.839364Z,1697900607839
0.16253972053527832,0.46923160552978516,-0.05295157432556152,2023-10-21T15:03:27.859636Z,1697900607859
0.16327452659606934,0.45098209381103516,-0.058296918869018555,2023-10-21T15:03:27.879882Z,1697900607879
0.16330289840698242,0.4328641891479492,-0.063240647315979,2023-10-21T15:03:27.900111Z,1697900607900
0.16259360313415527,0.41421031951904297,-0.06751358509063721,2023-10-21T15:03:27.921903Z,1697900607921
0.16136837005615234,0.3951272964477539,-0.07094013690948486,2023-10-21T15:03:27.940663Z,1697900607940
0.15990877151489258,0.37598514556884766,-0.07342636585235596,2023-10-21T15:03:27.960997Z,1697900607960
0.15786480903625488,0.3558320999145508,-0.0746527910232544,2023-10-21T15:03:27.981172Z,1697900607981
0.1541004180908203,0.33237266540527344,-0.0740053653717041,2023-10-21T15:03:28.001392Z,1697900608001
0.14717578887939453,0.3031339645385742,-0.07078671455383301,2023-10-21T15:03:28.021784Z,1697900608021
0.13634443283081055,0.26755714416503906,-0.06481027603149414,2023-10-21T15:03:28.041995Z,1697900608041
0.1219325065612793,0.2274179458618164,-0.056569814682006836,2023-10-21T15:03:28.062242Z,1697900608062
0.10539960861206055,0.18640804290771484,-0.04719233512878418,2023-10-21T15:03:28.082503Z,1697900608082
0.08759784698486328,0.146697998046875,-0.03748917579650879,2023-10-21T15:03:28.105102Z,1697900608105
0.06868219375610352,0.10890007019042969,-0.02787494659423828,2023-10-21T15:03:28.123016Z,1697900608122
0.04839801788330078,0.07275962829589844,-0.018524169921875,2023-10-21T15:03:28.143337Z,1697900608143
0.027251720428466797,0.03896522521972656,-0.009809255599975586,2023-10-21T15:03:28.163524Z,1697900608163
0.007145881652832031,0.009758949279785156,-0.002419114112854004,2023-10-21T15:03:28.183739Z,1697900608183
-0.009429931640625,-0.012356758117675781,0.0030149221420288086,2023-10-21T15:03:28.205011Z,1697900608204
-0.020534515380859375,-0.025921344757080078,0.006225466728210449,2023-10-21T15:03:28.224414Z,1697900608224
-0.026021480560302734,-0.031758785247802734,0.007524967193603516,2023-10-21T15:03:28.244653Z,1697900608244
-0.027100563049316406,-0.03208780288696289,0.007507205009460449,2023-10-21T15:03:28.264827Z,1697900608264
-0.026189804077148438,-0.030182838439941406,0.006969809532165527,2023-10-21T15:03:28.288214Z,1697900608288
-0.02343273162841797,-0.026371002197265625,0.006001591682434082,2023-10-21T15:03:28.305404Z,1697900608305
-0.01665353775024414,-0.018360614776611328,0.004108905792236328,2023-10-21T15:03:28.325692Z,1697900608325
-0.003945827484130859,-0.004275798797607422,9.359121322631836E-4,2023-10-21T15:03:28.345977Z,1697900608345
0.013167858123779297,0.014065742492675781,-0.002995729446411133,2023-10-21T15:03:28.366145Z,1697900608366
0.029675960540771484,0.03134775161743164,-0.006398320198059082,2023-10-21T15:03:28.388079Z,1697900608388
0.041260719299316406,0.043239593505859375,-0.008290886878967285,2023-10-21T15:03:28.406712Z,1697900608406
0.04686737060546875,0.04891824722290039,-0.008584737777709961,2023-10-21T15:03:28.427018Z,1697900608426
0.04777193069458008,0.04991722106933594,-0.0078008174896240234,2023-10-21T15:03:28.447234Z,1697900608447
0.04414510726928711,0.04647684097290039,-0.0062850117683410645,2023-10-21T15:03:28.467449Z,1697900608467
0.035128116607666016,0.037552833557128906,-0.004271447658538818,2023-10-21T15:03:28.488134Z,1697900608488
0.019078731536865234,0.020887374877929688,-0.0019272565841674805,2023-10-21T15:03:28.508098Z,1697900608508
-0.005375862121582031,-0.0060787200927734375,4.318356513977051E-4,2023-10-21T15:03:28.528372Z,1697900608528
-0.038578033447265625,-0.04543018341064453,0.002264857292175293,2023-10-21T15:03:28.548549Z,1697900608548
-0.07870864868164062,-0.09720659255981445,0.0028263330459594727,2023-10-21T15:03:28.571405Z,1697900608571
-0.12144851684570312,-0.15834426879882812,0.0015156343579292297,2023-10-21T15:03:28.589132Z,1697900608589
-0.16078901290893555,-0.2227792739868164,-0.0017677582800388336,2023-10-21T15:03:28.609469Z,1697900608609
-0.19208908081054688,-0.28483152389526367,-0.006580770015716553,2023-10-21T15:03:28.629674Z,1697900608629
-0.2127208709716797,-0.3400731086730957,-0.01242905855178833,2023-10-21T15:03:28.649823Z,1697900608649
-0.2216339111328125,-0.38481807708740234,-0.018940836191177368,2023-10-21T15:03:28.671345Z,1697900608671
-0.21911907196044922,-0.41599369049072266,-0.025839149951934814,2023-10-21T15:03:28.690412Z,1697900608690
-0.2063131332397461,-0.43094539642333984,-0.03260129690170288,2023-10-21T15:03:28.710687Z,1697900608710
-0.185164213180542,-0.42815303802490234,-0.038391292095184326,2023-10-21T15:03:28.730889Z,1697900608730
-0.1572730541229248,-0.4053916931152344,-0.042062342166900635,2023-10-21T15:03:28.751085Z,1697900608751
-0.12503790855407715,-0.36201000213623047,-0.04256010055541992,2023-10-21T15:03:28.771469Z,1697900608771
-0.09131693840026855,-0.2993326187133789,-0.0392146110534668,2023-10-21T15:03:28.791727Z,1697900608791
-0.05966615676879883,-0.22348403930664062,-0.032257914543151855,2023-10-21T15:03:28.811980Z,1697900608811
-0.03328752517700195,-0.14402294158935547,-0.022725343704223633,2023-10-21T15:03:28.832205Z,1697900608832
-0.013777971267700195,-0.0697479248046875,-0.011947274208068848,2023-10-21T15:03:28.854544Z,1697900608854
-9.485483169555664E-4,-0.005698204040527344,-0.0010498762130737305,2023-10-21T15:03:28.872853Z,1697900608872
0.006405234336853027,0.04630279541015625,0.009050488471984863,2023-10-21T15:03:28.893086Z,1697900608893
0.009721755981445312,0.086029052734375,0.01758420467376709,2023-10-21T15:03:28.913311Z,1697900608913
0.010165154933929443,0.11246013641357422,0.023681163787841797,2023-10-21T15:03:28.933517Z,1697900608933
0.00877600908279419,0.12468433380126953,0.026710987091064453,2023-10-21T15:03:28.954410Z,1697900608954
0.00662994384765625,0.12491893768310547,0.026943445205688477,2023-10-21T15:03:28.974098Z,1697900608974
0.004519015550613403,0.11640548706054688,0.02504730224609375,2023-10-21T15:03:28.994380Z,1697900608994
0.0028951168060302734,0.10338401794433594,0.02197432518005371,2023-10-21T15:03:29.014571Z,1697900609014
0.0018702149391174316,0.0902252197265625,0.018742084503173828,2023-10-21T15:03:29.037820Z,1697900609037
0.0013594180345535278,0.08188533782958984,0.016441822052001953,2023-10-21T15:03:29.055116Z,1697900609055
0.0012142211198806763,0.08119964599609375,0.015617012977600098,2023-10-21T15:03:29.075487Z,1697900609075
0.0013282299041748047,0.08808231353759766,0.01614511013031006,2023-10-21T15:03:29.095719Z,1697900609095
0.001667410135269165,0.09943485260009766,0.017342090606689453,2023-10-21T15:03:29.115903Z,1697900609115
0.0022539645433425903,0.11224651336669922,0.018629074096679688,2023-10-21T15:03:29.137739Z,1697900609137
0.0030912458896636963,0.1231842041015625,0.019428491592407227,2023-10-21T15:03:29.156465Z,1697900609156
0.004039973020553589,0.12827396392822266,0.019162654876708984,2023-10-21T15:03:29.176746Z,1697900609176
0.00483819842338562,0.12520980834960938,0.017609834671020508,2023-10-21T15:03:29.197016Z,1697900609196
0.005227148532867432,0.11396026611328125,0.014983773231506348,2023-10-21T15:03:29.217138Z,1697900609217
0.005181312561035156,0.0978546142578125,0.011928796768188477,2023-10-21T15:03:29.237614Z,1697900609237
0.0048136115074157715,0.08018302917480469,0.008980393409729004,2023-10-21T15:03:29.257788Z,1697900609257
0.004354894161224365,0.0646524429321289,0.006577849388122559,2023-10-21T15:03:29.278040Z,1697900609278
0.004095494747161865,0.054625511169433594,0.004978835582733154,2023-10-21T15:03:29.298275Z,1697900609298
0.004390537738800049,0.0530853271484375,0.004268169403076172,2023-10-21T15:03:29.321931Z,1697900609321
0.005644857883453369,0.06250953674316406,0.00436091423034668,2023-10-21T15:03:29.338800Z,1697900609338
0.008225798606872559,0.08436298370361328,0.00501704216003418,2023-10-21T15:03:29.359120Z,1697900609359
0.01250314712524414,0.12002372741699219,0.0059698522090911865,2023-10-21T15:03:29.379335Z,1697900609379
0.01879715919494629,0.1704578399658203,0.00693511962890625,2023-10-21T15:03:29.399590Z,1697900609399
0.02731633186340332,0.23573017120361328,0.007635444402694702,2023-10-21T15:03:29.420873Z,1697900609420
0.037925124168395996,0.3133544921875,0.007840365171432495,2023-10-21T15:03:29.440167Z,1697900609440
0.050127387046813965,0.3986234664916992,0.007477685809135437,2023-10-21T15:03:29.460503Z,1697900609460
0.06301414966583252,0.48479366302490234,0.0066971927881240845,2023-10-21T15:03:29.480665Z,1697900609480
0.07564139366149902,0.5658359527587891,0.005802728235721588,2023-10-21T15:03:29.500822Z,1697900609500
0.0872427225112915,0.6374902725219727,0.005106762051582336,2023-10-21T15:03:29.521142Z,1697900609521
0.09736013412475586,0.6979904174804688,0.0047714486718177795,2023-10-21T15:03:29.541494Z,1697900609541
0.1058884859085083,0.7477989196777344,0.004797659814357758,2023-10-21T15:03:29.561774Z,1697900609561
0.11281228065490723,0.7876701354980469,0.0050921812653541565,2023-10-21T15:03:29.581981Z,1697900609581
0.11803781986236572,0.8174114227294922,0.005621664226055145,2023-10-21T15:03:29.604013Z,1697900609603
0.12138831615447998,0.8355131149291992,0.00632593035697937,2023-10-21T15:03:29.622533Z,1697900609622
0.12280941009521484,0.8406105041503906,0.007126443088054657,2023-10-21T15:03:29.642793Z,1697900609642
0.12253057956695557,0.8329143524169922,0.007854878902435303,2023-10-21T15:03:29.663023Z,1697900609662
0.12111043930053711,0.8149566650390625,0.008346378803253174,2023-10-21T15:03:29.683328Z,1697900609683
0.11896979808807373,0.7891864776611328,0.0085267573595047,2023-10-21T15:03:29.703961Z,1697900609703
0.11622416973114014,0.7573585510253906,0.00839308649301529,2023-10-21T15:03:29.723846Z,1697900609723
0.11265909671783447,0.7202749252319336,0.008078277111053467,2023-10-21T15:03:29.744147Z,1697900609744
0.10792076587677002,0.6784143447875977,0.007786661386489868,2023-10-21T15:03:29.764353Z,1697900609764
0.10177958011627197,0.6324434280395508,0.00770239531993866,2023-10-21T15:03:29.788396Z,1697900609788
0.09422945976257324,0.5827703475952148,0.007864594459533691,2023-10-21T15:03:29.804876Z,1697900609804
0.08550822734832764,0.5296735763549805,0.008214414119720459,2023-10-21T15:03:29.825185Z,1697900609825
0.07581663131713867,0.4733600616455078,0.008626729249954224,2023-10-21T15:03:29.845453Z,1697900609845
0.06518244743347168,0.4134712219238281,0.00906515121459961,2023-10-21T15:03:29.865719Z,1697900609865
0.053603291511535645,0.3490324020385742,0.009340465068817139,2023-10-21T15:03:29.887110Z,1697900609887
0.04134035110473633,0.2797660827636719,0.009124040603637695,2023-10-21T15:03:29.906226Z,1697900609906
0.029013872146606445,0.2064075469970703,0.00805482268333435,2023-10-21T15:03:29.926515Z,1697900609926
0.01722121238708496,0.1300067901611328,0.005904167890548706,2023-10-21T15:03:29.946721Z,1697900609946
0.006384611129760742,0.051598548889160156,0.0026517510414123535,2023-10-21T15:03:29.966918Z,1697900609966
-0.0031964778900146484,-0.02786540985107422,-0.0015802979469299316,2023-10-21T15:03:29.987352Z,1697900609987
-0.011274933815002441,-0.10700607299804688,-0.006552577018737793,2023-10-21T15:03:30.007649Z,1697900610007
-0.017626464366912842,-0.18445491790771484,-0.011995553970336914,2023-10-21T15:03:30.027816Z,1697900610027
-0.022016286849975586,-0.2586946487426758,-0.01762568950653076,2023-10-21T15:03:30.048041Z,1697900610048
-0.024195432662963867,-0.32719993591308594,-0.023009121417999268,2023-10-21T15:03:30.070432Z,1697900610070
-0.02397918701171875,-0.38561248779296875,-0.027507364749908447,2023-10-21T15:03:30.088577Z,1697900610088
-0.021492689847946167,-0.42940807342529297,-0.030537843704223633,2023-10-21T15:03:30.108883Z,1697900610108
-0.016991764307022095,-0.45464324951171875,-0.03180485963821411,2023-10-21T15:03:30.129087Z,1697900610129
-0.011012166738510132,-0.4588470458984375,-0.031375765800476074,2023-10-21T15:03:30.149313Z,1697900610149
-0.004481486976146698,-0.4417533874511719,-0.02950352430343628,2023-10-21T15:03:30.170487Z,1697900610170
0.0015210062265396118,-0.4049520492553711,-0.026482045650482178,2023-10-21T15:03:30.189967Z,1697900610189
0.006011873483657837,-0.3512697219848633,-0.022562265396118164,2023-10-21T15:03:30.210211Z,1697900610210
0.00830724835395813,-0.28353309631347656,-0.01792365312576294,2023-10-21T15:03:30.230364Z,1697900610230
0.008151650428771973,-0.20468807220458984,-0.012724757194519043,2023-10-21T15:03:30.253458Z,1697900610253
0.005726277828216553,-0.11893367767333984,-0.00723499059677124,2023-10-21T15:03:30.270926Z,1697900610270
0.0017134547233581543,-0.03182029724121094,-0.0018770694732666016,2023-10-21T15:03:30.291377Z,1697900610291
-0.0029270052909851074,0.051619529724121094,0.002915620803833008,2023-10-21T15:03:30.311560Z,1697900610311
-0.007259488105773926,0.12775325775146484,0.006805539131164551,2023-10-21T15:03:30.331723Z,1697900610331
-0.010508596897125244,0.19390201568603516,0.00953364372253418,2023-10-21T15:03:30.353476Z,1697900610353
-0.01214858889579773,0.24914932250976562,0.010904431343078613,2023-10-21T15:03:30.372448Z,1697900610372
-0.011915862560272217,0.29403209686279297,0.010806947946548462,2023-10-21T15:03:30.392635Z,1697900610392
-0.009803801774978638,0.3298654556274414,0.009288698434829712,2023-10-21T15:03:30.412791Z,1697900610412
-0.006132885813713074,0.35790348052978516,0.006566911935806274,2023-10-21T15:03:30.432998Z,1697900610432
-0.0013444572687149048,0.3794403076171875,0.002938605844974518,2023-10-21T15:03:30.453479Z,1697900610453
0.004229724407196045,0.3958559036254883,-0.001335587352514267,2023-10-21T15:03:30.473660Z,1697900610473
0.010368317365646362,0.4094867706298828,-0.0060736387968063354,2023-10-21T15:03:30.493866Z,1697900610493
0.017007648944854736,0.4222269058227539,-0.011183768510818481,2023-10-21T15:03:30.514094Z,1697900610514
0.024238288402557373,0.4351358413696289,-0.016632527112960815,2023-10-21T15:03:30.536770Z,1697900610536
0.03213542699813843,0.4486970901489258,-0.022414028644561768,2023-10-21T15:03:30.554633Z,1697900610554
0.04061216115951538,0.46125221252441406,-0.028325200080871582,2023-10-21T15:03:30.574936Z,1697900610574
0.0493091344833374,0.47006893157958984,-0.03404122591018677,2023-10-21T15:03:30.595228Z,1697900610595
0.05772364139556885,0.47296810150146484,-0.039276301860809326,2023-10-21T15:03:30.615477Z,1697900610615
0.06561911106109619,0.4696512222290039,-0.0439755916595459,2023-10-21T15:03:30.636552Z,1697900610636
0.07285046577453613,0.4607067108154297,-0.048221468925476074,2023-10-21T15:03:30.655969Z,1697900610655
0.0793156623840332,0.4477052688598633,-0.052112698554992676,2023-10-21T15:03:30.676308Z,1697900610676
0.08499324321746826,0.4322538375854492,-0.0557173490524292,2023-10-21T15:03:30.696507Z,1697900610696
0.09003281593322754,0.41615772247314453,-0.05912423133850098,2023-10-21T15:03:30.716748Z,1697900610716
0.09461069107055664,0.40055084228515625,-0.0624011754989624,2023-10-21T15:03:30.737024Z,1697900610736
0.09889030456542969,0.3860139846801758,-0.065590500831604,2023-10-21T15:03:30.757324Z,1697900610757
0.10317754745483398,0.3735971450805664,-0.06888377666473389,2023-10-21T15:03:30.777569Z,1697900610777
0.1080007553100586,0.36483097076416016,-0.0726308822631836,2023-10-21T15:03:30.797805Z,1697900610797
0.11394572257995605,0.36101818084716797,-0.07725095748901367,2023-10-21T15:03:30.819902Z,1697900610819
0.12146425247192383,0.3627948760986328,-0.08309721946716309,2023-10-21T15:03:30.838337Z,1697900610838
0.13101983070373535,0.37073230743408203,-0.09053421020507812,2023-10-21T15:03:30.858638Z,1697900610858
0.14283013343811035,0.3846101760864258,-0.0997610092163086,2023-10-21T15:03:30.878857Z,1697900610878
0.1567370891571045,0.40343761444091797,-0.11070609092712402,2023-10-21T15:03:30.899077Z,1697900610899
0.17208242416381836,0.4252166748046875,-0.12291216850280762,2023-10-21T15:03:30.919691Z,1697900610919
0.18821144104003906,0.4482383728027344,-0.1358051300048828,2023-10-21T15:03:30.939685Z,1697900610939
0.20468997955322266,0.4713754653930664,-0.14881014823913574,2023-10-21T15:03:30.959968Z,1697900610959
0.22124862670898438,0.4939870834350586,-0.1614067554473877,2023-10-21T15:03:30.980186Z,1697900610980
0.2376084327697754,0.5155420303344727,-0.17317938804626465,2023-10-21T15:03:31.003012Z,1697900611002
0.25327444076538086,0.5351800918579102,-0.1836566925048828,2023-10-21T15:03:31.020700Z,1697900611020
0.2678337097167969,0.5523090362548828,-0.19249796867370605,2023-10-21T15:03:31.041021Z,1697900611040
0.28085756301879883,0.5663471221923828,-0.1993274688720703,2023-10-21T15:03:31.061261Z,1697900611061
0.2923612594604492,0.5777263641357422,-0.20408391952514648,2023-10-21T15:03:31.081461Z,1697900611081
0.3029627799987793,0.5879316329956055,-0.20714759826660156,2023-10-21T15:03:31.102934Z,1697900611102
0.3137478828430176,0.5990800857543945,-0.20923900604248047,2023-10-21T15:03:31.122049Z,1697900611122
0.3260369300842285,0.613215446472168,-0.21128296852111816,2023-10-21T15:03:31.142383Z,1697900611142
0.34004926681518555,0.6304807662963867,-0.21364903450012207,2023-10-21T15:03:31.162524Z,1697900611162
0.3544917106628418,0.6487178802490234,-0.21594023704528809,2023-10-21T15:03:31.182744Z,1697900611182
0.3676719665527344,0.665374755859375,-0.21750712394714355,2023-10-21T15:03:31.203081Z,1697900611203
0.37837886810302734,0.678746223449707,-0.21788811683654785,2023-10-21T15:03:31.223422Z,1697900611223
0.38695764541625977,0.68890380859375,-0.21717429161071777,2023-10-21T15:03:31.243714Z,1697900611243
0.3944406509399414,0.6964502334594727,-0.21576905250549316,2023-10-21T15:03:31.263855Z,1697900611263
0.4011211395263672,0.7003259658813477,-0.21364498138427734,2023-10-21T15:03:31.286270Z,1697900611286
0.405975341796875,0.6977415084838867,-0.2102203369140625,2023-10-21T15:03:31.304400Z,1697900611304
0.40726613998413086,0.68572998046875,-0.2047276496887207,2023-10-21T15:03:31.324702Z,1697900611324
0.4017167091369629,0.6599493026733398,-0.19561409950256348,2023-10-21T15:03:31.344903Z,1697900611344
0.3877096176147461,0.6188602447509766,-0.1820836067199707,2023-10-21T15:03:31.365225Z,1697900611365
0.36678123474121094,0.5659122467041016,-0.1648857593536377,2023-10-21T15:03:31.386056Z,1697900611386
0.34305858612060547,0.5080432891845703,-0.14609432220458984,2023-10-21T15:03:31.405944Z,1697900611405
0.32195425033569336,0.4538850784301758,-0.1282660961151123,2023-10-21T15:03:31.426029Z,1697900611425
0.30472421646118164,0.40622615814208984,-0.11234760284423828,2023-10-21T15:03:31.446206Z,1697900611446
0.28908634185791016,0.3630352020263672,-0.09790515899658203,2023-10-21T15:03:31.469377Z,1697900611469
0.27094411849975586,0.3203849792480469,-0.08410429954528809,2023-10-21T15:03:31.486757Z,1697900611486
0.24758195877075195,0.27583742141723633,-0.0704871416091919,2023-10-21T15:03:31.507086Z,1697900611507
0.2205362319946289,0.23135709762573242,-0.05769956111907959,2023-10-21T15:03:31.527337Z,1697900611527
0.19364404678344727,0.19097232818603516,-0.046721458435058594,2023-10-21T15:03:31.547549Z,1697900611547
0.16828489303588867,0.1557297706604004,-0.03771483898162842,2023-10-21T15:03:31.569182Z,1697900611569
0.13979387283325195,0.12116813659667969,-0.029436349868774414,2023-10-21T15:03:31.588125Z,1697900611588
0.09850358963012695,0.0798177719116211,-0.019778132438659668,2023-10-21T15:03:31.608397Z,1697900611608
0.034479618072509766,0.02603292465209961,-0.00672149658203125,2023-10-21T15:03:31.628657Z,1697900611628
-0.057291507720947266,-0.04007911682128906,0.011045098304748535,2023-10-21T15:03:31.648821Z,1697900611648
-0.1759510040283203,-0.11302566528320312,0.034044623374938965,2023-10-21T15:03:31.669198Z,1697900611669
-0.3154010772705078,-0.18346691131591797,0.06176912784576416,2023-10-21T15:03:31.689434Z,1697900611689
-0.4703788757324219,-0.2430882453918457,0.09364569187164307,2023-10-21T15:03:31.709709Z,1697900611709
-0.6407308578491211,-0.2869114875793457,0.1301652193069458,2023-10-21T15:03:31.729919Z,1697900611729
-0.8297462463378906,-0.310774564743042,0.1732044219970703,2023-10-21T15:03:31.752529Z,1697900611752
-1.0395374298095703,-0.30831003189086914,0.22550666332244873,2023-10-21T15:03:31.770462Z,1697900611770
-1.2630033493041992,-0.2690262794494629,0.28964197635650635,2023-10-21T15:03:31.790745Z,1697900611790
-1.4810190200805664,-0.18106681108474731,0.36781299114227295,2023-10-21T15:03:31.811002Z,1697900611810
-1.665196418762207,-0.03640815615653992,0.4617922306060791,2023-10-21T15:03:31.831231Z,1697900611831
-1.7701735496520996,0.16249173879623413,0.5677454471588135,2023-10-21T15:03:31.852365Z,1697900611852
-1.7459774017333984,0.39075446128845215,0.6715176105499268,2023-10-21T15:03:31.871835Z,1697900611871
-1.5518040657043457,0.5922205448150635,0.740668773651123,2023-10-21T15:03:31.892106Z,1697900611892
-1.1796503067016602,0.6793537139892578,0.7203261852264404,2023-10-21T15:03:31.912274Z,1697900611912
-0.6792593002319336,0.5577869415283203,0.5451312065124512,2023-10-21T15:03:31.936254Z,1697900611936
-0.1506662368774414,0.17087125778198242,0.1623396873474121,2023-10-21T15:03:31.953275Z,1697900611953
0.3011918067932129,-0.45975351333618164,-0.44098615646362305,2023-10-21T15:03:31.973136Z,1697900611973
0.6257824897766113,-1.2460966110229492,-1.239912509918213,2023-10-21T15:03:31.993383Z,1697900611993
0.8364899158477783,-2.076481819152832,-2.182271957397461,2023-10-21T15:03:32.013751Z,1697900612013
0.9804592132568359,-2.8510265350341797,-3.195146083831787,2023-10-21T15:03:32.034406Z,1697900612034
1.1101152896881104,-3.5093541145324707,-4.199028968811035,2023-10-21T15:03:32.054088Z,1697900612054
1.2637981176376343,-4.018257141113281,-5.1167707443237305,2023-10-21T15:03:32.074429Z,1697900612074
1.4659671783447266,-4.37042236328125,-5.902324676513672,2023-10-21T15:03:32.094645Z,1697900612094
1.7211592197418213,-4.580645561218262,-6.535712242126465,2023-10-21T15:03:32.114957Z,1697900612114
2.003713607788086,-4.666840076446533,-7.027013301849365,2023-10-21T15:03:32.135896Z,1697900612135
2.2677197456359863,-4.644289970397949,-7.370783805847168,2023-10-21T15:03:32.155493Z,1697900612155
2.472165107727051,-4.5303754806518555,-7.566647529602051,2023-10-21T15:03:32.175736Z,1697900612175
2.587303638458252,-4.341240882873535,-7.607728004455566,2023-10-21T15:03:32.195962Z,1697900612195
2.5999839305877686,-4.103132247924805,-7.507874488830566,2023-10-21T15:03:32.218808Z,1697900612218
2.5153067111968994,-3.8486647605895996,-7.319059371948242,2023-10-21T15:03:32.236476Z,1697900612236
2.3495211601257324,-3.587149143218994,-7.093910217285156,2023-10-21T15:03:32.256806Z,1697900612256
2.145613431930542,-3.320124626159668,-6.883440017700195,2023-10-21T15:03:32.277078Z,1697900612277
1.944244384765625,-3.0310535430908203,-6.706531524658203,2023-10-21T15:03:32.297317Z,1697900612297
1.7687323093414307,-2.690572738647461,-6.547114372253418,2023-10-21T15:03:32.318684Z,1697900612318
1.6394305229187012,-2.2771787643432617,-6.352326393127441,2023-10-21T15:03:32.337845Z,1697900612337
1.574620008468628,-1.7920730113983154,-6.097090721130371,2023-10-21T15:03:32.358117Z,1697900612358
1.5830047130584717,-1.2541403770446777,-5.776885986328125,2023-10-21T15:03:32.378349Z,1697900612378
1.6661858558654785,-0.6869070529937744,-5.428434371948242,2023-10-21T15:03:32.398525Z,1697900612398
1.8210780620574951,-0.10314875841140747,-5.091744422912598,2023-10-21T15:03:32.418872Z,1697900612418
2.0530219078063965,0.5037832260131836,-4.796123504638672,2023-10-21T15:03:32.439228Z,1697900612439
2.3766984939575195,1.1547317504882812,-4.565837860107422,2023-10-21T15:03:32.459459Z,1697900612459
2.7819156646728516,1.8709602355957031,-4.377712726593018,2023-10-21T15:03:32.479678Z,1697900612479
3.2223472595214844,2.6409831047058105,-4.165874481201172,2023-10-21T15:03:32.501915Z,1697900612501
3.6412811279296875,3.4243130683898926,-3.883430004119873,2023-10-21T15:03:32.520203Z,1697900612520
3.9950942993164062,4.167240142822266,-3.5256729125976562,2023-10-21T15:03:32.540506Z,1697900612540
4.261237144470215,4.83309268951416,-3.125734329223633,2023-10-21T15:03:32.560726Z,1697900612560
4.420235633850098,5.385477066040039,-2.719846248626709,2023-10-21T15:03:32.581005Z,1697900612580
4.451314926147461,5.785012245178223,-2.3289570808410645,2023-10-21T15:03:32.601883Z,1697900612601
4.363213539123535,6.0324907302856445,-1.9782249927520752,2023-10-21T15:03:32.621603Z,1697900612621
4.194845199584961,6.141629219055176,-1.6730785369873047,2023-10-21T15:03:32.641805Z,1697900612641
4.002537250518799,6.150754928588867,-1.427743911743164,2023-10-21T15:03:32.662083Z,1697900612662
3.832366943359375,6.100659370422363,-1.2481753826141357,2023-10-21T15:03:32.685226Z,1697900612685
