GYR_X,GYR_Y,GYR_Z,DATE,UNIX_TIMESTAMP
-0.0018623941577970982,-0.0019954221788793802,0.0035917600616812706,2023-10-21T14:58:50.291503Z,1697900330291
-0.004389929119497538,-0.0025275349617004395,-0.0031926757656037807,2023-10-21T14:58:50.300970Z,1697900330300
-3.990844707004726E-4,0.003325703786686063,0.0018623941577970982,2023-10-21T14:58:50.311720Z,1697900330311
0.0011972533538937569,-0.0025275349617004395,-0.0034587320405989885,2023-10-21T14:58:50.321309Z,1697900330321
-0.0027935912366956472,-1.3302815204951912E-4,0.004389929119497538,2023-10-21T14:58:50.332644Z,1697900330332
0.0025275349617004395,-0.002128450432792306,7.981689414009452E-4,2023-10-21T14:58:50.341567Z,1697900330341
9.311970788985491E-4,7.981689414009452E-4,-0.0038578163366764784,2023-10-21T14:58:50.352281Z,1697900330352
-3.990844707004726E-4,3.990844707004726E-4,0.0022614786867052317,2023-10-21T14:58:50.361730Z,1697900330361
0.0025275349617004395,0.003325703786686063,0.0031926757656037807,2023-10-21T14:58:50.372520Z,1697900330372
-0.004655985161662102,0.0047890134155750275,0.003325703786686063,2023-10-21T14:58:50.381985Z,1697900330381
-0.0014633096288889647,-0.0029266192577779293,0.004922041669487953,2023-10-21T14:58:50.392780Z,1697900330392
0.004655985161662102,0.0018623941577970982,-6.651407456956804E-4,2023-10-21T14:58:50.402462Z,1697900330402
0.004922041669487953,-0.005055069923400879,-0.0027935912366956472,2023-10-21T14:58:50.413024Z,1697900330413
0.0025275349617004395,0.004522957373410463,0.0029266192577779293,2023-10-21T14:58:50.422672Z,1697900330422
0.0015963378828018904,-6.651407456956804E-4,6.651407456956804E-4,2023-10-21T14:58:50.433718Z,1697900330433
0.003325703786686063,0.004522957373410463,0.0017293660202994943,2023-10-21T14:58:50.442915Z,1697900330442
0.0029266192577779293,-0.0017293660202994943,-0.0034587320405989885,2023-10-21T14:58:50.453947Z,1697900330453
-0.0011972533538937569,-0.004655985161662102,-0.004123872611671686,2023-10-21T14:58:50.463026Z,1697900330462
-0.0017293660202994943,0.0029266192577779293,0.0037247883155941963,2023-10-21T14:58:50.474201Z,1697900330474
-0.004922041669487953,-0.0035917600616812706,-6.651407456956804E-4,2023-10-21T14:58:50.483490Z,1697900330483
-9.311970788985491E-4,0.0026605629827827215,0.0037247883155941963,2023-10-21T14:58:50.494243Z,1697900330494
-0.0018623941577970982,-2.6605630409903824E-4,6.651407456956804E-4,2023-10-21T14:58:50.503794Z,1697900330503
0.0011972533538937569,-0.0014633096288889647,0.002128450432792306,2023-10-21T14:58:50.516961Z,1697900330516
5.321126081980765E-4,2.6605630409903824E-4,-0.004922041669487953,2023-10-21T14:58:50.524033Z,1697900330523
-1.3302815204951912E-4,-0.0037247883155941963,-0.003325703786686063,2023-10-21T14:58:50.534973Z,1697900330534
-0.003059647511690855,0.0025275349617004395,-0.0017293660202994943,2023-10-21T14:58:50.544189Z,1697900330544
-0.0013302814913913608,-7.981689414009452E-4,-0.0014633096288889647,2023-10-21T14:58:50.555366Z,1697900330555
0.0022614786867052317,0.0017293660202994943,-0.001064225216396153,2023-10-21T14:58:50.566177Z,1697900330566
0.002128450432792306,-0.0027935912366956472,0.004922041669487953,2023-10-21T14:58:50.575320Z,1697900330575
-0.0015963378828018904,-0.0026605629827827215,-0.0031926757656037807,2023-10-21T14:58:50.584800Z,1697900330584
0.004922041669487953,-0.004655985161662102,-0.001064225216396153,2023-10-21T14:58:50.595536Z,1697900330595
-0.0025275349617004395,-0.004922041669487953,-0.0039908443577587605,2023-10-21T14:58:50.605094Z,1697900330605
0.0026605629827827215,2.6605630409903824E-4,0.0023945067077875137,2023-10-21T14:58:50.616773Z,1697900330616
-1.3302815204951912E-4,0.0013302814913913608,0.0047890134155750275,2023-10-21T14:58:50.625341Z,1697900330625
0.0035917600616812706,-1.3302815204951912E-4,-0.003059647511690855,2023-10-21T14:58:50.636562Z,1697900330636
-0.003325703786686063,-9.311970788985491E-4,-0.001064225216396153,2023-10-21T14:58:50.645436Z,1697900330645
0.0027935912366956472,0.0022614786867052317,0.0039908443577587605,2023-10-21T14:58:50.656803Z,1697900330656
-0.0019954221788793802,-0.004123872611671686,0.004123872611671686,2023-10-21T14:58:50.666169Z,1697900330666
2.6605630409903824E-4,0.0037247883155941963,-0.0029266192577779293,2023-10-21T14:58:50.676882Z,1697900330676
0.0047890134155750275,-0.0018623941577970982,-5.321126081980765E-4,2023-10-21T14:58:50.686146Z,1697900330686
-0.0011972533538937569,0.003059647511690855,-0.0026605629827827215,2023-10-21T14:58:50.696883Z,1697900330696
-0.0027935912366956472,-0.004522957373410463,-0.003059647511690855,2023-10-21T14:58:50.706361Z,1697900330706
-0.004389929119497538,6.651407456956804E-4,0.0025275349617004395,2023-10-21T14:58:50.717335Z,1697900330717
-0.004655985161662102,2.6605630409903824E-4,-9.311970788985491E-4,2023-10-21T14:58:50.726568Z,1697900330726
0.0026605629827827215,0.0018623941577970982,0.0015963378828018904,2023-10-21T14:58:50.737649Z,1697900330737
-0.0023945067077875137,0.0027935912366956472,0.0014633096288889647,2023-10-21T14:58:50.749477Z,1697900330749
-0.0014633096288889647,-0.004655985161662102,-0.0038578163366764784,2023-10-21T14:58:50.757724Z,1697900330757
0.0035917600616812706,0.004123872611671686,-0.0037247883155941963,2023-10-21T14:58:50.767083Z,1697900330767
-0.0029266192577779293,-0.002128450432792306,0.004123872611671686,2023-10-21T14:58:50.777883Z,1697900330777
-1.3302815204951912E-4,0.0027935912366956472,-1.3302815204951912E-4,2023-10-21T14:58:50.787476Z,1697900330787
-0.0038578163366764784,-0.0034587320405989885,0.0014633096288889647,2023-10-21T14:58:50.799666Z,1697900330799
0.0019954221788793802,-0.004522957373410463,-2.6605630409903824E-4,2023-10-21T14:58:50.807719Z,1697900330807
0.0013302814913913608,-0.0025275349617004395,-0.0015963378828018904,2023-10-21T14:58:50.818492Z,1697900330818
1.3302815204951912E-4,0.0037247883155941963,0.0031926757656037807,2023-10-21T14:58:50.827850Z,1697900330827
-0.0025275349617004395,-0.0019954221788793802,-0.0047890134155750275,2023-10-21T14:58:50.838947Z,1697900330838
-0.0023945067077875137,-9.311970788985491E-4,0.002128450432792306,2023-10-21T14:58:50.849340Z,1697900330849
-6.651407456956804E-4,0.0035917600616812706,0.004522957373410463,2023-10-21T14:58:50.858988Z,1697900330858
-9.311970788985491E-4,0.0017293660202994943,0.0015963378828018904,2023-10-21T14:58:50.868460Z,1697900330868
0.0047890134155750275,-0.004922041669487953,-0.001064225216396153,2023-10-21T14:58:50.879445Z,1697900330879
-0.003325703786686063,-1.3302815204951912E-4,-0.0023945067077875137,2023-10-21T14:58:50.888759Z,1697900330888
0.0023945067077875137,0.0039908443577587605,7.981689414009452E-4,2023-10-21T14:58:50.899716Z,1697900330899
0.0017293660202994943,0.002128450432792306,-0.0047890134155750275,2023-10-21T14:58:50.908972Z,1697900330908
0.0013302814913913608,0.004123872611671686,0.0019954221788793802,2023-10-21T14:58:50.920055Z,1697900330919
-0.0018623941577970982,0.0037247883155941963,-1.3302815204951912E-4,2023-10-21T14:58:50.929078Z,1697900330929
-0.0018623941577970982,0.004655985161662102,0.0018623941577970982,2023-10-21T14:58:50.940346Z,1697900330940
0.004256900865584612,0.0031926757656037807,-0.0022614786867052317,2023-10-21T14:58:50.949441Z,1697900330949
-0.0034587320405989885,0.0019954221788793802,0.0027935912366956472,2023-10-21T14:58:50.960290Z,1697900330960
0.0026605629827827215,-0.0034587320405989885,0.0029266192577779293,2023-10-21T14:58:50.969754Z,1697900330969
0.0022614786867052317,-0.004655985161662102,-0.0014633096288889647,2023-10-21T14:58:50.982818Z,1697900330982
0.0019954221788793802,0.0027935912366956472,-0.0047890134155750275,2023-10-21T14:58:50.990001Z,1697900330989
6.651407456956804E-4,-0.0047890134155750275,0.0047890134155750275,2023-10-21T14:58:51.001063Z,1697900331000
0.001064225216396153,0.001064225216396153,-0.0029266192577779293,2023-10-21T14:58:51.010228Z,1697900331010
0.003059647511690855,0.001064225216396153,5.321126081980765E-4,2023-10-21T14:58:51.021383Z,1697900331021
-0.002128450432792306,-0.0017293660202994943,0.0022614786867052317,2023-10-21T14:58:51.032534Z,1697900331032
-0.004123872611671686,-0.0037247883155941963,0.003325703786686063,2023-10-21T14:58:51.041443Z,1697900331041
0.0039908443577587605,-0.004922041669487953,6.651407456956804E-4,2023-10-21T14:58:51.050837Z,1697900331050
0.001064225216396153,-0.0031926757656037807,0.0011972533538937569,2023-10-21T14:58:51.061609Z,1697900331061
-0.0035917600616812706,0.0017293660202994943,-0.003325703786686063,2023-10-21T14:58:51.071140Z,1697900331071
-0.0035917600616812706,-0.0013302814913913608,0.004522957373410463,2023-10-21T14:58:51.082742Z,1697900331082
0.0037247883155941963,-0.0013302814913913608,-0.0027935912366956472,2023-10-21T14:58:51.091358Z,1697900331091
-1.3302815204951912E-4,-0.004389929119497538,-9.311970788985491E-4,2023-10-21T14:58:51.102448Z,1697900331102
-0.0035917600616812706,-0.0025275349617004395,0.0035917600616812706,2023-10-21T14:58:51.111507Z,1697900331111
0.0015963378828018904,0.0039908443577587605,-0.0047890134155750275,2023-10-21T14:58:51.122670Z,1697900331122
0.0037247883155941963,-1.3302815204951912E-4,-0.0017293660202994943,2023-10-21T14:58:51.132491Z,1697900331132
0.0037247883155941963,0.0017293660202994943,-0.003059647511690855,2023-10-21T14:58:51.142707Z,1697900331142
0.004256900865584612,-0.0037247883155941963,-0.0026605629827827215,2023-10-21T14:58:51.152132Z,1697900331152
0.004522957373410463,-0.003325703786686063,0.0015963378828018904,2023-10-21T14:58:51.166339Z,1697900331166
0.0015963378828018904,-0.004922041669487953,0.001064225216396153,2023-10-21T14:58:51.172449Z,1697900331172
-0.0018623941577970982,-0.0013302814913913608,-0.0027935912366956472,2023-10-21T14:58:51.183527Z,1697900331183
0.0037247883155941963,2.6605630409903824E-4,0.0025275349617004395,2023-10-21T14:58:51.192610Z,1697900331192
-0.0039908443577587605,0.0015963378828018904,0.001064225216396153,2023-10-21T14:58:51.203749Z,1697900331203
-0.0026605629827827215,0.0023945067077875137,0.0047890134155750275,2023-10-21T14:58:51.215671Z,1697900331215
-0.004123872611671686,-0.0017293660202994943,0.0026605629827827215,2023-10-21T14:58:51.223831Z,1697900331223
0.0022614786867052317,0.0017293660202994943,-0.0027935912366956472,2023-10-21T14:58:51.233163Z,1697900331233
-2.6605630409903824E-4,0.0026605629827827215,-0.004922041669487953,2023-10-21T14:58:51.243982Z,1697900331243
-3.990844707004726E-4,-0.0017293660202994943,0.004389929119497538,2023-10-21T14:58:51.253521Z,1697900331253
0.0015963378828018904,0.0018623941577970982,-0.0023945067077875137,2023-10-21T14:58:51.266270Z,1697900331266
-9.311970788985491E-4,0.0014633096288889647,0.0025275349617004395,2023-10-21T14:58:51.273719Z,1697900331273
0.001064225216396153,-0.004123872611671686,0.0018623941577970982,2023-10-21T14:58:51.284783Z,1697900331284
0.0018623941577970982,-0.0023945067077875137,-0.0022614786867052317,2023-10-21T14:58:51.293829Z,1697900331293
-0.0039908443577587605,-0.001064225216396153,-0.0039908443577587605,2023-10-21T14:58:51.305032Z,1697900331304
0.0013302814913913608,-0.0013302814913913608,-0.0023945067077875137,2023-10-21T14:58:51.315594Z,1697900331315
-0.0019954221788793802,6.651407456956804E-4,0.002128450432792306,2023-10-21T14:58:51.325086Z,1697900331325
0.0031926757656037807,0.0031926757656037807,-0.004389929119497538,2023-10-21T14:58:51.334466Z,1697900331334
0.0034587320405989885,-1.3302815204951912E-4,7.981689414009452E-4,2023-10-21T14:58:51.345287Z,1697900331345
-0.0018623941577970982,0.0029266192577779293,-0.0025275349617004395,2023-10-21T14:58:51.354824Z,1697900331354
0.0014633096288889647,0.0029266192577779293,0.0023945067077875137,2023-10-21T14:58:51.365824Z,1697900331365
-0.0015963378828018904,-0.004922041669487953,0.004256900865584612,2023-10-21T14:58:51.375024Z,1697900331374
-0.004522957373410463,0.0017293660202994943,0.005055069923400879,2023-10-21T14:58:51.386106Z,1697900331386
-0.004922041669487953,0.004522957373410463,-0.0027935912366956472,2023-10-21T14:58:51.395121Z,1697900331395
5.321126081980765E-4,-5.321126081980765E-4,9.311970788985491E-4,2023-10-21T14:58:51.406450Z,1697900331406
0.0013302814913913608,-0.004655985161662102,9.311970788985491E-4,2023-10-21T14:58:51.415613Z,1697900331415
-0.0025275349617004395,-0.0018623941577970982,-0.0029266192577779293,2023-10-21T14:58:51.426397Z,1697900331426
-0.001064225216396153,0.0017293660202994943,0.0017293660202994943,2023-10-21T14:58:51.435933Z,1697900331435
-7.981689414009452E-4,-0.001064225216396153,0.004922041669487953,2023-10-21T14:58:51.449337Z,1697900331449
-0.004522957373410463,0.0031926757656037807,-0.0029266192577779293,2023-10-21T14:58:51.456107Z,1697900331456
-0.0038578163366764784,0.0038578163366764784,6.651407456956804E-4,2023-10-21T14:58:51.467130Z,1697900331467
-9.311970788985491E-4,-0.003059647511690855,0.0031926757656037807,2023-10-21T14:58:51.476301Z,1697900331476
-6.651407456956804E-4,-0.0027935912366956472,-0.0037247883155941963,2023-10-21T14:58:51.487550Z,1697900331487
-1.3302815204951912E-4,-0.0018623941577970982,-0.003325703786686063,2023-10-21T14:58:51.498803Z,1697900331498
-0.0026605629827827215,-0.002128450432792306,0.0023945067077875137,2023-10-21T14:58:51.507427Z,1697900331507
0.005055069923400879,-0.0039908443577587605,-0.0026605629827827215,2023-10-21T14:58:51.516844Z,1697900331516
-0.0026605629827827215,0.0026605629827827215,-1.3302815204951912E-4,2023-10-21T14:58:51.527648Z,1697900331527
-5.321126081980765E-4,0.0014633096288889647,0.002128450432792306,2023-10-21T14:58:51.537225Z,1697900331537
0.0038578163366764784,-0.0015963378828018904,1.3302815204951912E-4,2023-10-21T14:58:51.549016Z,1697900331548
0.0037247883155941963,-0.0,-2.6605630409903824E-4,2023-10-21T14:58:51.557374Z,1697900331557
-3.990844707004726E-4,-6.651407456956804E-4,-0.0018623941577970982,2023-10-21T14:58:51.568535Z,1697900331568
-0.0026605629827827215,0.004123872611671686,-0.0034587320405989885,2023-10-21T14:58:51.577495Z,1697900331577
-0.0034587320405989885,-0.0019954221788793802,0.0015963378828018904,2023-10-21T14:58:51.588758Z,1697900331588
0.0011972533538937569,0.0038578163366764784,-0.0034587320405989885,2023-10-21T14:58:51.598677Z,1697900331598
-0.0031926757656037807,-0.0034587320405989885,-0.0017293660202994943,2023-10-21T14:58:51.608809Z,1697900331608
-0.0037247883155941963,-0.004655985161662102,-0.0026605629827827215,2023-10-21T14:58:51.618179Z,1697900331618
0.004256900865584612,-0.0034587320405989885,7.981689414009452E-4,2023-10-21T14:58:51.632129Z,1697900331632
0.0014633096288889647,-0.004655985161662102,0.004922041669487953,2023-10-21T14:58:51.638501Z,1697900331638
0.004522957373410463,-0.0,-0.004655985161662102,2023-10-21T14:58:51.649439Z,1697900331649
0.0031926757656037807,-0.0029266192577779293,-0.0039908443577587605,2023-10-21T14:58:51.658635Z,1697900331658
-0.0047890134155750275,7.981689414009452E-4,0.003059647511690855,2023-10-21T14:58:51.669837Z,1697900331669
-0.0029266192577779293,0.0027935912366956472,-0.0039908443577587605,2023-10-21T14:58:51.682017Z,1697900331681
0.0035917600616812706,0.005055069923400879,5.321126081980765E-4,2023-10-21T14:58:51.689860Z,1697900331689
-0.0022614786867052317,0.0015963378828018904,0.0013302814913913608,2023-10-21T14:58:51.699283Z,1697900331699
0.004389929119497538,0.0038578163366764784,7.981689414009452E-4,2023-10-21T14:58:51.710089Z,1697900331709
-0.004655985161662102,-0.0018623941577970982,-0.0014633096288889647,2023-10-21T14:58:51.719671Z,1697900331719
0.0013302814913913608,0.004256900865584612,-0.0017293660202994943,2023-10-21T14:58:51.732262Z,1697900331732
-0.003325703786686063,0.003325703786686063,-0.0022614786867052317,2023-10-21T14:58:51.739741Z,1697900331739
-0.0039908443577587605,5.321126081980765E-4,0.004922041669487953,2023-10-21T14:58:51.750782Z,1697900331750
-0.0034587320405989885,0.0023945067077875137,-9.311970788985491E-4,2023-10-21T14:58:51.759937Z,1697900331759
-0.0,0.0031926757656037807,0.0018623941577970982,2023-10-21T14:58:51.771124Z,1697900331771
-0.0013302814913913608,-0.0019954221788793802,-0.001064225216396153,2023-10-21T14:58:51.781984Z,1697900331781
-0.0013302814913913608,-0.0035917600616812706,-1.3302815204951912E-4,2023-10-21T14:58:51.791149Z,1697900331791
1.3302815204951912E-4,-0.0019954221788793802,-0.0011972533538937569,2023-10-21T14:58:51.800727Z,1697900331800
6.651407456956804E-4,0.0027935912366956472,0.0013302814913913608,2023-10-21T14:58:51.811463Z,1697900331811
-0.0019954221788793802,7.981689414009452E-4,3.990844707004726E-4,2023-10-21T14:58:51.820908Z,1697900331820
-0.0015963378828018904,9.311970788985491E-4,-6.651407456956804E-4,2023-10-21T14:58:51.832150Z,1697900331832
0.0022614786867052317,-0.003325703786686063,-0.0019954221788793802,2023-10-21T14:58:51.841034Z,1697900331841
0.0017293660202994943,9.311970788985491E-4,5.321126081980765E-4,2023-10-21T14:58:51.852314Z,1697900331852
-0.0027935912366956472,0.0011972533538937569,-0.0011972533538937569,2023-10-21T14:58:51.861256Z,1697900331861
-0.003325703786686063,-0.0023945067077875137,0.004922041669487953,2023-10-21T14:58:51.872436Z,1697900331872
0.0029266192577779293,0.0038578163366764784,-0.0026605629827827215,2023-10-21T14:58:51.881859Z,1697900331881
-0.004123872611671686,0.004256900865584612,6.651407456956804E-4,2023-10-21T14:58:51.892496Z,1697900331892
0.0031926757656037807,-0.0025275349617004395,0.0035917600616812706,2023-10-21T14:58:51.901908Z,1697900331901
-0.0034587320405989885,-0.0025275349617004395,0.0029266192577779293,2023-10-21T14:58:51.912689Z,1697900331912
0.0038578163366764784,-0.005055069923400879,0.0035917600616812706,2023-10-21T14:58:51.922161Z,1697900331922
9.311970788985491E-4,0.0011972533538937569,0.0037247883155941963,2023-10-21T14:58:51.933232Z,1697900331933
0.001064225216396153,-2.6605630409903824E-4,-0.0037247883155941963,2023-10-21T14:58:51.942318Z,1697900331942
-2.6605630409903824E-4,-0.0026605629827827215,1.3302815204951912E-4,2023-10-21T14:58:51.953530Z,1697900331953
0.0015963378828018904,-0.0038578163366764784,-0.0034587320405989885,2023-10-21T14:58:51.965159Z,1697900331965
0.004922041669487953,-0.003059647511690855,-0.0035917600616812706,2023-10-21T14:58:51.973464Z,1697900331973
0.0023945067077875137,3.990844707004726E-4,-0.0026605629827827215,2023-10-21T14:58:51.982941Z,1697900331982
0.0019954221788793802,0.0025275349617004395,0.0014633096288889647,2023-10-21T14:58:51.993741Z,1697900331993
0.0039908443577587605,-0.0037247883155941963,-0.0029266192577779293,2023-10-21T14:58:52.003241Z,1697900332003
0.0034587320405989885,-0.004922041669487953,-0.0035917600616812706,2023-10-21T14:58:52.015360Z,1697900332015
-0.004256900865584612,-0.0035917600616812706,0.0037247883155941963,2023-10-21T14:58:52.023481Z,1697900332023
-0.004123872611671686,-0.004922041669487953,-0.0,2023-10-21T14:58:52.034469Z,1697900332034
0.0015963378828018904,0.0039908443577587605,-0.0035917600616812706,2023-10-21T14:58:52.043616Z,1697900332043
-0.004922041669487953,0.0011972533538937569,5.321126081980765E-4,2023-10-21T14:58:52.054847Z,1697900332054
-0.0011972533538937569,-9.311970788985491E-4,-0.0029266192577779293,2023-10-21T14:58:52.065131Z,1697900332065
0.0029266192577779293,0.0039908443577587605,-0.003059647511690855,2023-10-21T14:58:52.074771Z,1697900332074
-0.0015963378828018904,0.003059647511690855,-0.004522957373410463,2023-10-21T14:58:52.084289Z,1697900332084
0.0029266192577779293,-0.0026605629827827215,-0.003059647511690855,2023-10-21T14:58:52.095248Z,1697900332095
-0.0035917600616812706,-0.0017293660202994943,-0.0029266192577779293,2023-10-21T14:58:52.104616Z,1697900332104
-1.3302815204951912E-4,-0.0029266192577779293,-0.0027935912366956472,2023-10-21T14:58:52.115555Z,1697900332115
0.0015963378828018904,-0.0034587320405989885,0.0023945067077875137,2023-10-21T14:58:52.124757Z,1697900332124
-0.0025275349617004395,-0.0031926757656037807,-0.0014633096288889647,2023-10-21T14:58:52.135948Z,1697900332135
-0.004123872611671686,-0.0038578163366764784,0.0023945067077875137,2023-10-21T14:58:52.144859Z,1697900332144
0.0026605629827827215,-0.004655985161662102,6.651407456956804E-4,2023-10-21T14:58:52.156175Z,1697900332156
-0.004389929119497538,-0.0035917600616812706,-0.004922041669487953,2023-10-21T14:58:52.165262Z,1697900332165
0.0034587320405989885,-0.0014633096288889647,-0.0038578163366764784,2023-10-21T14:58:52.176131Z,1697900332176
-0.004123872611671686,-0.002128450432792306,-0.004655985161662102,2023-10-21T14:58:52.185585Z,1697900332185
0.0013302814913913608,3.990844707004726E-4,-0.0015963378828018904,2023-10-21T14:58:52.198599Z,1697900332198
7.981689414009452E-4,-0.004123872611671686,-0.0018623941577970982,2023-10-21T14:58:52.205907Z,1697900332205
-0.004522957373410463,-9.311970788985491E-4,-6.651407456956804E-4,2023-10-21T14:58:52.216867Z,1697900332216
-0.002128450432792306,-0.004522957373410463,0.0011972533538937569,2023-10-21T14:58:52.226005Z,1697900332225
3.990844707004726E-4,-0.005055069923400879,0.0037247883155941963,2023-10-21T14:58:52.237196Z,1697900332237
6.651407456956804E-4,0.001064225216396153,-6.651407456956804E-4,2023-10-21T14:58:52.248291Z,1697900332248
0.001064225216396153,0.0039908443577587605,0.004256900865584612,2023-10-21T14:58:52.257230Z,1697900332257
0.003325703786686063,-0.0023945067077875137,-0.004123872611671686,2023-10-21T14:58:52.266609Z,1697900332266
-0.0018623941577970982,0.004123872611671686,0.004922041669487953,2023-10-21T14:58:52.277446Z,1697900332277
0.001064225216396153,-2.6605630409903824E-4,-0.0017293660202994943,2023-10-21T14:58:52.286969Z,1697900332286
0.0023945067077875137,-0.004389929119497538,-3.990844707004726E-4,2023-10-21T14:58:52.298448Z,1697900332298
-1.3302815204951912E-4,0.0029266192577779293,-6.651407456956804E-4,2023-10-21T14:58:52.307141Z,1697900332307
-3.990844707004726E-4,-0.004522957373410463,-0.0047890134155750275,2023-10-21T14:58:52.318165Z,1697900332318
-5.321126081980765E-4,0.0029266192577779293,0.0027935912366956472,2023-10-21T14:58:52.327310Z,1697900332327
-9.311970788985491E-4,0.003325703786686063,-0.004522957373410463,2023-10-21T14:58:52.338521Z,1697900332338
7.981689414009452E-4,0.003325703786686063,0.0015963378828018904,2023-10-21T14:58:52.348251Z,1697900332348
2.6605630409903824E-4,0.0038578163366764784,-0.0011972533538937569,2023-10-21T14:58:52.358535Z,1697900332358
-0.0018623941577970982,0.004522957373410463,2.6605630409903824E-4,2023-10-21T14:58:52.368021Z,1697900332367
0.0034587320405989885,0.0026605629827827215,-0.0023945067077875137,2023-10-21T14:58:52.381885Z,1697900332381
-6.651407456956804E-4,-0.004256900865584612,0.0013302814913913608,2023-10-21T14:58:52.388284Z,1697900332388
0.0039908443577587605,-0.0013302814913913608,0.004123872611671686,2023-10-21T14:58:52.399263Z,1697900332399
-0.0027935912366956472,0.0014633096288889647,0.0034587320405989885,2023-10-21T14:58:52.408404Z,1697900332408
-0.0047890134155750275,-5.321126081980765E-4,-0.0011972533538937569,2023-10-21T14:58:52.419643Z,1697900332419
-0.0029266192577779293,0.0037247883155941963,-0.0018623941577970982,2023-10-21T14:58:52.431453Z,1697900332431
0.0027935912366956472,9.311970788985491E-4,-0.0029266192577779293,2023-10-21T14:58:52.439677Z,1697900332439
0.03232584148645401,-0.057867247611284256,-0.056403934955596924,2023-10-21T14:58:52.448964Z,1697900332448
0.035651545971632004,-0.06850949674844742,-0.0697067528963089,2023-10-21T14:58:52.459754Z,1697900332459
0.03046344593167305,-0.058532387018203735,-0.05959661304950714,2023-10-21T14:58:52.469273Z,1697900332469
0.03485337644815445,-0.06066083908081055,-0.08128020167350769,2023-10-21T14:58:52.482001Z,1697900332481
0.03857816383242607,-0.06252323091030121,-0.09977111220359802,2023-10-21T14:58:52.489481Z,1697900332489
0.03817908093333244,-0.06717921793460846,-0.1097482219338417,2023-10-21T14:58:52.500535Z,1697900332500
0.03791302442550659,-0.07103703171014786,-0.11812900006771088,2023-10-21T14:58:52.509659Z,1697900332509
0.040307529270648956,-0.07675724476575851,-0.12983547151088715,2023-10-21T14:58:52.520805Z,1697900332520
0.04243598133325577,-0.08167928457260132,-0.13981258869171143,2023-10-21T14:58:52.531862Z,1697900332531
0.04403231665492058,-0.091656394302845,-0.15271632373332977,2023-10-21T14:58:52.540814Z,1697900332540
0.045362599194049835,-0.10003717243671417,-0.16375765204429626,2023-10-21T14:58:52.550302Z,1697900332550
0.04456442967057228,-0.11320696026086807,-0.17320264875888824,2023-10-21T14:58:52.561118Z,1697900332561
0.0438992902636528,-0.12451434880495071,-0.1811843365430832,2023-10-21T14:58:52.570589Z,1697900332570
0.041903868317604065,-0.1371520310640335,-0.18131737411022186,2023-10-21T14:58:52.581975Z,1697900332581
0.040041472762823105,-0.14806033670902252,-0.18145039677619934,2023-10-21T14:58:52.590795Z,1697900332590
0.03578457236289978,-0.1564411073923111,-0.1662851870059967,2023-10-21T14:58:52.601814Z,1697900332601
0.032192811369895935,-0.1636246293783188,-0.15338145196437836,2023-10-21T14:58:52.610985Z,1697900332610
0.02168358862400055,-0.16641822457313538,-0.12464737892150879,2023-10-21T14:58:52.622190Z,1697900332622
0.012637674808502197,-0.16867969930171967,-0.10003717243671417,2023-10-21T14:58:52.631774Z,1697900332631
0.0011972533538937569,-0.1559089869260788,-0.06944069266319275,2023-10-21T14:58:52.642253Z,1697900332642
-0.008513801731169224,-0.14513371884822845,-0.0433671772480011,2023-10-21T14:58:52.651757Z,1697900332651
-0.007316548377275467,-0.12398223578929901,-0.03698182478547096,2023-10-21T14:58:52.665581Z,1697900332665
-0.0172936599701643,-0.09152337163686752,-0.010110139846801758,2023-10-21T14:58:52.671911Z,1697900332671
-0.025674432516098022,-0.06372048705816269,0.012770703062415123,2023-10-21T14:58:52.682889Z,1697900332682
-0.027536828070878983,-0.035651545971632004,0.022747814655303955,2023-10-21T14:58:52.692114Z,1697900332692
-0.029133165255188942,-0.011573448777198792,0.031261615455150604,2023-10-21T14:58:52.703232Z,1697900332703
-0.03525245934724808,-0.005321125965565443,0.050018586218357086,2023-10-21T14:58:52.714813Z,1697900332714
-0.04988555610179901,-0.008513801731169224,0.0862022414803505,2023-10-21T14:58:52.723309Z,1697900332723
-0.06305534392595291,-0.02979830652475357,0.11985836178064346,2023-10-21T14:58:52.732675Z,1697900332732
-0.07595907151699066,-0.05813330411911011,0.16003286838531494,2023-10-21T14:58:52.743486Z,1697900332743
-0.08753252774477005,-0.08886280655860901,0.20499637722969055,2023-10-21T14:58:52.753016Z,1697900332752
-0.09790872037410736,-0.11919322609901428,0.25288650393486023,2023-10-21T14:58:52.765522Z,1697900332765
-0.10775279998779297,-0.14646399021148682,0.3011757433414459,2023-10-21T14:58:52.773253Z,1697900332773
-0.11706477403640747,-0.1690787822008133,0.34773558378219604,2023-10-21T14:58:52.784254Z,1697900332784
-0.1267758309841156,-0.1861063838005066,0.3917679190635681,2023-10-21T14:58:52.793365Z,1697900332793
-0.13595476746559143,-0.19661560654640198,0.43234148621559143,2023-10-21T14:58:52.804530Z,1697900332804
-0.14247314631938934,-0.19847799837589264,0.4682590961456299,2023-10-21T14:58:52.815015Z,1697900332814
-0.1432713270187378,-0.18983116745948792,0.4972592294216156,2023-10-21T14:58:52.824603Z,1697900332824
-0.13741807639598846,-0.17134025692939758,0.5180116295814514,2023-10-21T14:58:52.834005Z,1697900332833
-0.12637674808502197,-0.14619794487953186,0.5305162668228149,2023-10-21T14:58:52.848727Z,1697900332848
-0.11347301304340363,-0.11945927888154984,0.5363695025444031,2023-10-21T14:58:52.854295Z,1697900332854
-0.10056928545236588,-0.09524815529584885,0.5367686152458191,2023-10-21T14:58:52.865479Z,1697900332865
-0.08819766342639923,-0.07569301873445511,0.5323786735534668,2023-10-21T14:58:52.874556Z,1697900332874
-0.07622513175010681,-0.061991117894649506,0.5238648653030396,2023-10-21T14:58:52.885579Z,1697900332885
-0.06438562273979187,-0.054807599633932114,0.512291431427002,2023-10-21T14:58:52.898225Z,1697900332898
-0.052945204079151154,-0.05427548661828041,0.49872255325317383,2023-10-21T14:58:52.905631Z,1697900332905
-0.04177083820104599,-0.05879844352602959,0.48329126834869385,2023-10-21T14:58:52.915017Z,1697900332914
-0.029399221763014793,-0.0653168261051178,0.46559852361679077,2023-10-21T14:58:52.925868Z,1697900332925
-0.014234011992812157,-0.0702388659119606,0.44471311569213867,2023-10-21T14:58:52.935386Z,1697900332935
-0.005188097711652517,-0.06678013503551483,0.4018780589103699,2023-10-21T14:58:52.948342Z,1697900332948
0.017426688224077225,-0.06824344396591187,0.3771347999572754,2023-10-21T14:58:52.955557Z,1697900332955
0.036582741886377335,-0.06957372277975082,0.35598334670066833,2023-10-21T14:58:52.966600Z,1697900332966
0.05613787844777107,-0.07090400159358978,0.32738229632377625,2023-10-21T14:58:52.975763Z,1697900332975
0.07289943099021912,-0.07196822762489319,0.3030381202697754,2023-10-21T14:58:52.986900Z,1697900332986
0.09272062033414841,-0.06518379598855972,0.2672535479068756,2023-10-21T14:58:52.997846Z,1697900332997
0.1097482219338417,-0.05933055654168129,0.23665708303451538,2023-10-21T14:58:53.006892Z,1697900333006
0.12823913991451263,-0.04310112074017525,0.19462019205093384,2023-10-21T14:58:53.016376Z,1697900333016
0.16069801151752472,-0.0219496451318264,0.15018878877162933,2023-10-21T14:58:53.027216Z,1697900333027
0.17054209113121033,-0.003325703786686063,0.10828491300344467,2023-10-21T14:58:53.036696Z,1697900333036
0.1783907562494278,0.0130367586389184,0.06691315770149231,2023-10-21T14:58:53.048437Z,1697900333048
0.18411096930503845,0.02381203882396221,0.02793591283261776,2023-10-21T14:58:53.056815Z,1697900333056
0.1861063838005066,0.025674432516098022,-0.005986266769468784,2023-10-21T14:58:53.067915Z,1697900333067
0.18251462280750275,0.016761546954512596,-0.03418823331594467,2023-10-21T14:58:53.077014Z,1697900333076
0.1662851870059967,0.008912886492908001,-0.04363323375582695,2023-10-21T14:58:53.088240Z,1697900333088
0.15817047655582428,-0.014899153262376785,-0.07236731797456741,2023-10-21T14:58:53.098033Z,1697900333097
0.15710625052452087,-0.04895436018705368,-0.11679871380329132,2023-10-21T14:58:53.108234Z,1697900333108
0.14007864892482758,-0.05547273904085159,-0.11972533911466599,2023-10-21T14:58:53.117715Z,1697900333117
0.12690885365009308,-0.07103703171014786,-0.1422071009874344,2023-10-21T14:58:53.132127Z,1697900333132
0.11573449522256851,-0.08433984965085983,-0.1613631546497345,2023-10-21T14:58:53.137983Z,1697900333137
0.09910597652196884,-0.08021597564220428,-0.17360173165798187,2023-10-21T14:58:53.148894Z,1697900333148
0.08487196266651154,-0.07675724476575851,-0.18397793173789978,2023-10-21T14:58:53.158133Z,1697900333158
0.06757830083370209,-0.05241309106349945,-0.19023025035858154,2023-10-21T14:58:53.169288Z,1697900333169
0.04855527728796005,-0.0172936599701643,-0.21217989921569824,2023-10-21T14:58:53.181208Z,1697900333181
0.03205978497862816,0.018357884138822556,-0.21763405203819275,2023-10-21T14:58:53.189320Z,1697900333189
0.01662851870059967,0.05680302157998085,-0.2294735610485077,2023-10-21T14:58:53.198708Z,1697900333198
0.0038578163366764784,0.09724357724189758,-0.24942778050899506,2023-10-21T14:58:53.209540Z,1697900333209
-0.00572021072730422,0.13954652845859528,-0.2761664390563965,2023-10-21T14:58:53.219071Z,1697900333219
-0.014100983738899231,0.1817164570093155,-0.30556565523147583,2023-10-21T14:58:53.231883Z,1697900333231
-0.02381203882396221,0.22295518219470978,-0.3321712911128998,2023-10-21T14:58:53.239328Z,1697900333239
-0.036582741886377335,0.2640608847141266,-0.3502631187438965,2023-10-21T14:58:53.250255Z,1697900333250
-0.053477317094802856,0.30649685859680176,-0.3550521433353424,2023-10-21T14:58:53.259432Z,1697900333259
-0.07555998861789703,0.3506622016429901,-0.34228143095970154,2023-10-21T14:58:53.270614Z,1697900333270
-0.10362893342971802,0.3962908685207367,-0.3106207251548767,2023-10-21T14:58:53.281344Z,1697900333281
-0.1371520310640335,0.4436488747596741,-0.26219847798347473,2023-10-21T14:58:53.290559Z,1697900333290
-0.17413385212421417,0.4923371970653534,-0.20206975936889648,2023-10-21T14:58:53.300087Z,1697900333300
-0.21271201968193054,0.5391631126403809,-0.13635385036468506,2023-10-21T14:58:53.310854Z,1697900333310
-0.251822292804718,0.5797367095947266,-0.0707709789276123,2023-10-21T14:58:53.320383Z,1697900333320
-0.29053348302841187,0.6099340915679932,-0.009045914746820927,2023-10-21T14:58:53.331479Z,1697900333331
-0.32804742455482483,0.6266956329345703,0.047224994748830795,2023-10-21T14:58:53.340586Z,1697900333340
-0.363166868686676,0.6280258893966675,0.09817477315664291,2023-10-21T14:58:53.351668Z,1697900333351
-0.39442846179008484,0.6131267547607422,0.14473463594913483,2023-10-21T14:58:53.360654Z,1697900333360
-0.4209010601043701,0.5829293727874756,0.18796877562999725,2023-10-21T14:58:53.371924Z,1697900333371
-0.44258466362953186,0.5394291281700134,0.22840933501720428,2023-10-21T14:58:53.381222Z,1697900333381
-0.4598783254623413,0.4847545921802521,0.2651250958442688,2023-10-21T14:58:53.391922Z,1697900333391
-0.4726490378379822,0.42169925570487976,0.29558855295181274,2023-10-21T14:58:53.401427Z,1697900333401
-0.48116281628608704,0.3533227741718292,0.31687304377555847,2023-10-21T14:58:53.414953Z,1697900333414
-0.48448851704597473,0.28361600637435913,0.32698318362236023,2023-10-21T14:58:53.421620Z,1697900333421
-0.4812958538532257,0.2163037806749344,0.3253868520259857,2023-10-21T14:58:53.432607Z,1697900333432
-0.47052058577537537,0.1541796326637268,0.31261616945266724,2023-10-21T14:58:53.441846Z,1697900333441
-0.45256176590919495,0.09844083338975906,0.28960227966308594,2023-10-21T14:58:53.453002Z,1697900333452
-0.4296809434890747,0.04922041669487953,0.25887277722358704,2023-10-21T14:58:53.464580Z,1697900333464
-0.3868458569049835,0.02421112358570099,0.22428546845912933,2023-10-21T14:58:53.473042Z,1697900333473
-0.3638319969177246,-0.016761546954512596,0.18756969273090363,2023-10-21T14:58:53.482430Z,1697900333482
-0.3441438376903534,-0.05174795165657997,0.15604202449321747,2023-10-21T14:58:53.493197Z,1697900333493
-0.29385918378829956,-0.04416534677147865,0.1332942098379135,2023-10-21T14:58:53.502736Z,1697900333502
-0.29106560349464417,-0.08553709834814072,0.09511512517929077,2023-10-21T14:58:53.514882Z,1697900333514
-0.2888041138648987,-0.12092258781194687,0.06252323091030121,2023-10-21T14:58:53.522908Z,1697900333522
-0.24663420021533966,-0.10336287319660187,0.053477317094802856,2023-10-21T14:58:53.533999Z,1697900333533
-0.21058356761932373,-0.08819766342639923,0.04562865570187569,2023-10-21T14:58:53.543181Z,1697900333543
-0.17985406517982483,-0.07529393583536148,0.0389772467315197,2023-10-21T14:58:53.554293Z,1697900333554
-0.1536475121974945,-0.06438562273979187,0.03325703740119934,2023-10-21T14:58:53.564377Z,1697900333564
-0.18025314807891846,-0.08686738461256027,-0.0526791475713253,2023-10-21T14:58:53.574325Z,1697900333574
-0.20060645043849945,-0.09032611548900604,-0.15058787167072296,2023-10-21T14:58:53.583762Z,1697900333583
-0.1646888554096222,-0.04044055938720703,-0.18211553990840912,2023-10-21T14:58:53.594635Z,1697900333594
-0.1290373057126999,0.013169786892831326,-0.21923039853572845,2023-10-21T14:58:53.604114Z,1697900333604
-0.09192245453596115,0.0707709789276123,-0.26312968134880066,2023-10-21T14:58:53.615083Z,1697900333615
-0.05334429070353508,0.1311657577753067,-0.31301525235176086,2023-10-21T14:58:53.624255Z,1697900333624
-0.013568871654570103,0.19222567975521088,-0.3664925694465637,2023-10-21T14:58:53.635346Z,1697900333635
0.027137743309140205,0.25155624747276306,-0.4203689694404602,2023-10-21T14:58:53.647935Z,1697900333647
0.0686425268650055,0.307295024394989,-0.4713187515735626,2023-10-21T14:58:53.655516Z,1697900333655
0.10961519926786423,0.35531818866729736,-0.5153510570526123,2023-10-21T14:58:53.664777Z,1697900333664
0.14752821624279022,0.39043763279914856,-0.5488741397857666,2023-10-21T14:58:53.675678Z,1697900333675
0.1805192083120346,0.4094606637954712,-0.5706907510757446,2023-10-21T14:58:53.685092Z,1697900333685
0.20898722112178802,0.4131854474544525,-0.5821312069892883,2023-10-21T14:58:53.698168Z,1697900333698
0.2343956083059311,0.4040065109729767,-0.5847917795181274,2023-10-21T14:58:53.705277Z,1697900333705
0.2575424909591675,0.3843183219432831,-0.5797367095947266,2023-10-21T14:58:53.716369Z,1697900333716
0.27896004915237427,0.35638242959976196,-0.5684292912483215,2023-10-21T14:58:53.725476Z,1697900333725
0.29878121614456177,0.3221941888332367,-0.5535301566123962,2023-10-21T14:58:53.736685Z,1697900333736
0.31687304377555847,0.2833499610424042,-0.537699818611145,2023-10-21T14:58:53.747762Z,1697900333747
0.3325703740119934,0.23958370089530945,-0.5220024585723877,2023-10-21T14:58:53.756718Z,1697900333756
0.34613925218582153,0.19142751395702362,-0.5059060454368591,2023-10-21T14:58:53.766118Z,1697900333766
0.3583778440952301,0.14061075448989868,-0.4896766245365143,2023-10-21T14:58:53.776909Z,1697900333776
0.37114855647087097,0.08979400247335434,-0.474112331867218,2023-10-21T14:58:53.786407Z,1697900333786
0.38604769110679626,0.04177083820104599,-0.46027740836143494,2023-10-21T14:58:53.797989Z,1697900333797
0.40307530760765076,-0.0034587320405989885,-0.4473736882209778,2023-10-21T14:58:53.806586Z,1697900333806
0.41970381140708923,-0.0482892207801342,-0.4340708553791046,2023-10-21T14:58:53.817669Z,1697900333817
0.4330066442489624,-0.09471604228019714,-0.4193047285079956,2023-10-21T14:58:53.826731Z,1697900333826
0.4424516260623932,-0.14074379205703735,-0.40320831537246704,2023-10-21T14:58:53.837956Z,1697900333837
0.4499012231826782,-0.1811843365430832,-0.38724493980407715,2023-10-21T14:58:53.847514Z,1697900333847
0.45628654956817627,-0.21337716281414032,-0.37181368470191956,2023-10-21T14:58:53.857943Z,1697900333857
0.4616076946258545,-0.23785433173179626,-0.3569145202636719,2023-10-21T14:58:53.867627Z,1697900333867
0.4649333953857422,-0.25714340806007385,-0.3412172198295593,2023-10-21T14:58:53.881290Z,1697900333881
0.4653324782848358,-0.2744370698928833,-0.322726309299469,2023-10-21T14:58:53.887710Z,1697900333887
0.46293798089027405,-0.29332706332206726,-0.3001115024089813,2023-10-21T14:58:53.898648Z,1697900333898
0.4572177529335022,-0.3176712393760681,-0.2712444067001343,2023-10-21T14:58:53.907947Z,1697900333907
0.4473736882209778,-0.3507952392101288,-0.23426257073879242,2023-10-21T14:58:53.919052Z,1697900333919
0.43220847845077515,-0.3936302959918976,-0.18717060983181,2023-10-21T14:58:53.930879Z,1697900333930
0.41092395782470703,-0.4451121985912323,-0.12930336594581604,2023-10-21T14:58:53.939043Z,1697900333939
0.38338714838027954,-0.5017821788787842,-0.06159203499555588,2023-10-21T14:58:53.948482Z,1697900333948
0.35106128454208374,-0.5587182641029358,0.013435843400657177,2023-10-21T14:58:53.959385Z,1697900333959
0.31687304377555847,-0.6092689633369446,0.0921885073184967,2023-10-21T14:58:53.968807Z,1697900333968
0.2821527123451233,-0.6487783193588257,0.17080815136432648,2023-10-21T14:58:53.981408Z,1697900333981
0.24663420021533966,-0.6771132946014404,0.24729932844638824,2023-10-21T14:58:53.989784Z,1697900333989
0.20898722112178802,-0.6961362957954407,0.3211299479007721,2023-10-21T14:58:54.000245Z,1697900334000
0.17000998556613922,-0.7075767517089844,0.3928321301937103,2023-10-21T14:58:54.009317Z,1697900334009
0.13262906670570374,-0.710503339767456,0.4622728228569031,2023-10-21T14:58:54.020550Z,1697900334020
0.09857386350631714,-0.7046501040458679,0.5293189883232117,2023-10-21T14:58:54.030851Z,1697900334030
0.06811041384935379,-0.6914803385734558,0.5933055877685547,2023-10-21T14:58:54.040356Z,1697900334040
0.04083964228630066,-0.6725903153419495,0.652769148349762,2023-10-21T14:58:54.049830Z,1697900334049
0.01822485774755478,-0.6478471159934998,0.7053152918815613,2023-10-21T14:58:54.065456Z,1697900334065
0.0015963378828018904,-0.6169845461845398,0.748283326625824,2023-10-21T14:58:54.070174Z,1697900334070
-0.00971105508506298,-0.581865131855011,0.7802101373672485,2023-10-21T14:58:54.081170Z,1697900334081
-0.018091829493641853,-0.5464796423912048,0.8017606735229492,2023-10-21T14:58:54.090283Z,1697900334090
-0.02421112358570099,-0.5121583938598633,0.8136001825332642,2023-10-21T14:58:54.101419Z,1697900334101
-0.026605630293488503,-0.477970153093338,0.8173249959945679,2023-10-21T14:58:54.114288Z,1697900334114
-0.025275349617004395,-0.4451121985912323,0.8155956268310547,2023-10-21T14:58:54.121449Z,1697900334121
-0.021816616877913475,-0.41637811064720154,0.8116047382354736,2023-10-21T14:58:54.130826Z,1697900334130
-0.018091829493641853,-0.3934972882270813,0.8084120750427246,2023-10-21T14:58:54.141689Z,1697900334141
-0.014100983738899231,-0.3759375512599945,0.8062836527824402,2023-10-21T14:58:54.151214Z,1697900334151
-0.009178942069411278,-0.3623686730861664,0.8044212460517883,2023-10-21T14:58:54.164472Z,1697900334164
-0.003325703786686063,-0.35305672883987427,0.8012285828590393,2023-10-21T14:58:54.171394Z,1697900334171
0.0031926757656037807,-0.348666787147522,0.7951092720031738,2023-10-21T14:58:54.182376Z,1697900334182
0.01144042145460844,-0.348666787147522,0.7831367254257202,2023-10-21T14:58:54.191581Z,1697900334191
0.022747814655303955,-0.35212552547454834,0.7625173926353455,2023-10-21T14:58:54.202700Z,1697900334202
0.03711485490202904,-0.35917600989341736,0.7320539355278015,2023-10-21T14:58:54.214067Z,1697900334214
0.052546121180057526,-0.37021735310554504,0.6930766701698303,2023-10-21T14:58:54.222798Z,1697900334222
0.06704618781805038,-0.38498347997665405,0.6493104100227356,2023-10-21T14:58:54.232172Z,1697900334232
0.07994992285966873,-0.4018780589103699,0.6056771874427795,2023-10-21T14:58:54.242917Z,1697900334242
0.09072519838809967,-0.4194377660751343,0.5674980878829956,2023-10-21T14:58:54.252531Z,1697900334252
0.09897294640541077,-0.437529593706131,0.5382319092750549,2023-10-21T14:58:54.264364Z,1697900334264
0.10469315201044083,-0.4566856324672699,0.5180116295814514,2023-10-21T14:58:54.272756Z,1697900334272
0.10855097323656082,-0.4769059121608734,0.503644585609436,2023-10-21T14:58:54.283765Z,1697900334283
0.11134456098079681,-0.496860146522522,0.49047479033470154,2023-10-21T14:58:54.292829Z,1697900334292
0.11440420895814896,-0.5133556127548218,0.47278204560279846,2023-10-21T14:58:54.304041Z,1697900334304
0.11945927888154984,-0.5220024585723877,0.4439149498939514,2023-10-21T14:58:54.314076Z,1697900334314
0.12757399678230286,-0.5206722021102905,0.39828628301620483,2023-10-21T14:58:54.324053Z,1697900334324
0.13861533999443054,-0.5110941529273987,0.3348318636417389,2023-10-21T14:58:54.333545Z,1697900334333
0.15178512036800385,-0.4963280260562897,0.2575424909591675,2023-10-21T14:58:54.348174Z,1697900334348
0.1662851870059967,-0.47996556758880615,0.17280356585979462,2023-10-21T14:58:54.353771Z,1697900334353
0.18131737411022186,-0.46559852361679077,0.08553709834814072,2023-10-21T14:58:54.364788Z,1697900334364
0.19555138051509857,-0.4572177529335022,1.3302815204951912E-4,2023-10-21T14:58:54.373990Z,1697900334373
0.20792299509048462,-0.45854803919792175,-0.07875266671180725,2023-10-21T14:58:54.385149Z,1697900334385
0.21750102937221527,-0.470254510641098,-0.14646399021148682,2023-10-21T14:58:54.397422Z,1697900334397
0.22348730266094208,-0.49087387323379517,-0.20073948800563812,2023-10-21T14:58:54.405147Z,1697900334405
0.22601483762264252,-0.5160161852836609,-0.24157913029193878,2023-10-21T14:58:54.414561Z,1697900334414
0.2256157398223877,-0.5415576100349426,-0.2695150375366211,2023-10-21T14:58:54.425345Z,1697900334425
0.22255609929561615,-0.5639063119888306,-0.28468024730682373,2023-10-21T14:58:54.434878Z,1697900334434
0.21750102937221527,-0.5805348753929138,-0.28627657890319824,2023-10-21T14:58:54.447753Z,1697900334447
0.21045053005218506,-0.5905119776725769,-0.27536827325820923,2023-10-21T14:58:54.455055Z,1697900334455
0.20047342777252197,-0.5953009724617004,-0.25381770730018616,2023-10-21T14:58:54.466052Z,1697900334466
0.18756969273090363,-0.5960991382598877,-0.22521665692329407,2023-10-21T14:58:54.475240Z,1697900334475
0.1722714602947235,-0.593172550201416,-0.1926247626543045,2023-10-21T14:58:54.486409Z,1697900334486
0.15550990402698517,-0.586388111114502,-0.15843652188777924,2023-10-21T14:58:54.497382Z,1697900334497
0.13768413662910461,-0.5764110088348389,-0.12371618300676346,2023-10-21T14:58:54.506400Z,1697900334506
0.1179959699511528,-0.5647044777870178,-0.08739949762821198,2023-10-21T14:58:54.515922Z,1697900334515
0.09564723819494247,-0.5511356592178345,-0.04589471220970154,2023-10-21T14:58:54.526673Z,1697900334526
0.07143611460924149,-0.5333098769187927,0.004522957373410463,2023-10-21T14:58:54.536183Z,1697900334536
0.04802316427230835,-0.507768452167511,0.06544984877109528,2023-10-21T14:58:54.547553Z,1697900334547
0.027536828070878983,-0.4735802114009857,0.13475751876831055,2023-10-21T14:58:54.556417Z,1697900334556
0.00971105508506298,-0.4326075613498688,0.207523912191391,2023-10-21T14:58:54.567489Z,1697900334567
-0.007316548377275467,-0.3880431056022644,0.27736368775367737,2023-10-21T14:58:54.576484Z,1697900334576
-0.023945067077875137,-0.340951144695282,0.3381575644016266,2023-10-21T14:58:54.587742Z,1697900334587
-0.0395093597471714,-0.2919968068599701,0.3873779773712158,2023-10-21T14:58:54.597110Z,1697900334597
-0.05281217768788338,-0.24344152212142944,0.4254240393638611,2023-10-21T14:58:54.608005Z,1697900334607
-0.06465168297290802,-0.2014046162366867,0.4572177529335022,2023-10-21T14:58:54.617252Z,1697900334617
-0.07635816186666489,-0.17253752052783966,0.49047479033470154,2023-10-21T14:58:54.630710Z,1697900334630
-0.09006005525588989,-0.16322554647922516,0.5335758924484253,2023-10-21T14:58:54.637436Z,1697900334637
-0.10895005613565445,-0.17865680158138275,0.5935716032981873,2023-10-21T14:58:54.648422Z,1697900334648
-0.1344914585351944,-0.21909736096858978,0.6724573373794556,2023-10-21T14:58:54.657638Z,1697900334657
-0.1662851870059967,-0.277762770652771,0.7674394249916077,2023-10-21T14:58:54.668776Z,1697900334668
-0.19994130730628967,-0.34041905403137207,0.8712013959884644,2023-10-21T14:58:54.680479Z,1697900334680
-0.23000568151474,-0.39096975326538086,0.974564254283905,2023-10-21T14:58:54.688807Z,1697900334688
-0.2514232099056244,-0.4155799448490143,1.0676839351654053,2023-10-21T14:58:54.698233Z,1697900334698
-0.2612673044204712,-0.40480467677116394,1.1429778337478638,2023-10-21T14:58:54.709042Z,1697900334709
-0.2591388523578644,-0.3561163544654846,1.1975194215774536,2023-10-21T14:58:54.718568Z,1697900334718
-0.2475653886795044,-0.27190953493118286,1.2321066856384277,2023-10-21T14:58:54.730729Z,1697900334730
-0.2294735610485077,-0.1596337854862213,1.2487353086471558,2023-10-21T14:58:54.738709Z,1697900334738
-0.2073908895254135,-0.02793591283261776,1.2491343021392822,2023-10-21T14:58:54.749796Z,1697900334749
-0.1838449090719223,0.11333998292684555,1.2371617555618286,2023-10-21T14:58:54.758889Z,1697900334758
-0.16123011708259583,0.25607919692993164,1.2189369201660156,2023-10-21T14:58:54.770113Z,1697900334770
-0.13954652845859528,0.39429545402526855,1.1993818283081055,2023-10-21T14:58:54.780394Z,1697900334780
-0.11759688705205917,0.5239979028701782,1.1807578802108765,2023-10-21T14:58:54.790100Z,1697900334790
-0.0949821025133133,0.6426590085029602,1.1631981134414673,2023-10-21T14:58:54.799605Z,1697900334799
-0.07316548377275467,0.7481503486633301,1.1468356847763062,2023-10-21T14:58:54.814207Z,1697900334814
-0.05560576915740967,0.8398067355155945,1.1333998441696167,2023-10-21T14:58:54.819836Z,1697900334819
-0.04562865570187569,0.9172291159629822,1.1250190734863281,2023-10-21T14:58:54.830831Z,1697900334830
-0.04230295121669769,0.9824128746986389,1.122890591621399,2023-10-21T14:58:54.840020Z,1697900334839
-0.04203689470887184,1.0392159223556519,1.1274136304855347,2023-10-21T14:58:54.851134Z,1697900334851
-0.04137175530195236,1.0910968780517578,1.1397851705551147,2023-10-21T14:58:54.863706Z,1697900334863
-0.03990844637155533,1.1401842832565308,1.1616017818450928,2023-10-21T14:58:54.871117Z,1697900334871
-0.03764696791768074,1.1867440938949585,1.1924643516540527,2023-10-21T14:58:54.880609Z,1697900334880
-0.0345873199403286,1.230377435684204,1.2277168035507202,2023-10-21T14:58:54.891416Z,1697900334891
-0.031926754862070084,1.268689513206482,1.2619050741195679,2023-10-21T14:58:54.900930Z,1697900334900
-0.03259189799427986,1.2983547449111938,1.2907721996307373,2023-10-21T14:58:54.914100Z,1697900334914
-0.03831210732460022,1.3163135051727295,1.3136529922485352,2023-10-21T14:58:54.921096Z,1697900334921
-0.04802316427230835,1.3204374313354492,1.3320108652114868,2023-10-21T14:58:54.932161Z,1697900334932
-0.06119294837117195,1.307932734489441,1.3503687381744385,2023-10-21T14:58:54.941302Z,1697900334941
-0.08034900575876236,1.27507483959198,1.373781681060791,2023-10-21T14:58:54.952458Z,1697900334952
-0.10841794312000275,1.2189369201660156,1.4065066576004028,2023-10-21T14:58:54.963627Z,1697900334963
-0.1476612538099289,1.138720989227295,1.4498738050460815,2023-10-21T14:58:54.972445Z,1697900334972
-0.19914314150810242,1.0366884469985962,1.5018877983093262,2023-10-21T14:58:54.981974Z,1697900334981
-0.2612673044204712,0.9176281690597534,1.5573605298995972,2023-10-21T14:58:54.992720Z,1697900334992
-0.32911163568496704,0.7879257202148438,1.6089755296707153,2023-10-21T14:58:55.002249Z,1697900335002
-0.39602482318878174,0.6540994048118591,1.6499481201171875,2023-10-21T14:58:55.014247Z,1697900335014
-0.4586810767650604,0.5206722021102905,1.676021695137024,2023-10-21T14:58:55.022427Z,1697900335022
-0.5178785920143127,0.38937339186668396,1.685599684715271,2023-10-21T14:58:55.033453Z,1697900335033
-0.5768100619316101,0.2607351839542389,1.6794804334640503,2023-10-21T14:58:55.042551Z,1697900335042
-0.6360076069831848,0.13595476746559143,1.6593931913375854,2023-10-21T14:58:55.053782Z,1697900335053
-0.6937417984008789,0.018091829493641853,1.6291958093643188,2023-10-21T14:58:55.063398Z,1697900335063
-0.7485494017601013,-0.08966097235679626,1.59407639503479,2023-10-21T14:58:55.073797Z,1697900335073
-0.7998982667922974,-0.18557427823543549,1.560420274734497,2023-10-21T14:58:55.083321Z,1697900335083
-0.8467242121696472,-0.26911595463752747,1.5327503681182861,2023-10-21T14:58:55.097450Z,1697900335097
-0.8890271186828613,-0.34161630272865295,1.5150576829910278,2023-10-21T14:58:55.103488Z,1697900335103
-0.9276053309440613,-0.40467163920402527,1.5094704627990723,2023-10-21T14:58:55.114443Z,1697900335114
-0.9631237983703613,-0.4609425365924835,1.516387939453125,2023-10-21T14:58:55.123779Z,1697900335123
-0.9949175715446472,-0.5129565596580505,1.5331494808197021,2023-10-21T14:58:55.134822Z,1697900335134
-1.024183750152588,-0.5633742213249207,1.556429386138916,2023-10-21T14:58:55.146776Z,1697900335146
-1.0554453134536743,-0.6129937171936035,1.5848973989486694,2023-10-21T14:58:55.154868Z,1697900335154
-1.0916290283203125,-0.6608838438987732,1.6185535192489624,2023-10-21T14:58:55.164298Z,1697900335164
-1.1299411058425903,-0.7049161791801453,1.6579298973083496,2023-10-21T14:58:55.175019Z,1697900335175
-1.1654596328735352,-0.7424300909042358,1.7026273012161255,2023-10-21T14:58:55.184624Z,1697900335184
-1.1956570148468018,-0.7712972164154053,1.7517147064208984,2023-10-21T14:58:55.197192Z,1697900335197
-1.216808557510376,-0.7885909080505371,1.8018662929534912,2023-10-21T14:58:55.204855Z,1697900335204
-1.22359299659729,-0.792315661907196,1.8466968536376953,2023-10-21T14:58:55.215867Z,1697900335215
-1.211753487586975,-0.7820724844932556,1.8795547485351562,2023-10-21T14:58:55.225021Z,1697900335224
-1.1826202869415283,-0.7590586543083191,1.8963162899017334,2023-10-21T14:58:55.236136Z,1697900335236
-1.1433769464492798,-0.7277970314025879,1.8959171772003174,2023-10-21T14:58:55.246688Z,1697900335246
-1.1026703119277954,-0.6942739486694336,1.8787566423416138,2023-10-21T14:58:55.256141Z,1697900335256
-1.0712757110595703,-0.6650077104568481,1.8482931852340698,2023-10-21T14:58:55.265633Z,1697900335265
-1.0612986087799072,-0.6455855965614319,1.8121094703674316,2023-10-21T14:58:55.280216Z,1697900335280
-1.085642695426941,-0.6410626769065857,1.7801827192306519,2023-10-21T14:58:55.285939Z,1697900335285
-1.1553494930267334,-0.6551636457443237,1.7623569965362549,2023-10-21T14:58:55.297073Z,1697900335297
-1.275873064994812,-0.6889528036117554,1.7666138410568237,2023-10-21T14:58:55.306126Z,1697900335306
-1.447878360748291,-0.7407007217407227,1.7990727424621582,2023-10-21T14:58:55.317136Z,1697900335317
-1.6652463674545288,-0.8062836527824402,1.8634583950042725,2023-10-21T14:58:55.330047Z,1697900335330
-1.917866826057434,-0.8803803324699402,1.9604358673095703,2023-10-21T14:58:55.337223Z,1697900335337
-2.1901755332946777,-0.9562063813209534,2.086812734603882,2023-10-21T14:58:55.346668Z,1697900335346
-2.460355758666992,-1.0268442630767822,2.234074831008911,2023-10-21T14:58:55.357400Z,1697900335357
-2.7012696266174316,-1.0853767395019531,2.389185667037964,2023-10-21T14:58:55.366982Z,1697900335366
-2.88458251953125,-1.1259503364562988,2.535383462905884,2023-10-21T14:58:55.380307Z,1697900335380
-2.989142656326294,-1.1433769464492798,2.65510892868042,2023-10-21T14:58:55.387249Z,1697900335387
-3.0073673725128174,-1.1349961757659912,2.7337284088134766,2023-10-21T14:58:55.398144Z,1697900335398
-2.952692747116089,-1.1026703119277954,2.7659213542938232,2023-10-21T14:58:55.407448Z,1697900335407
-2.8567795753479004,-1.0526517629623413,2.7590038776397705,2023-10-21T14:58:55.418503Z,1697900335418
-2.756875514984131,-0.9922569990158081,2.727875232696533,2023-10-21T14:58:55.429954Z,1697900335429
-2.678654909133911,-0.9288025498390198,2.684641122817993,2023-10-21T14:58:55.438607Z,1697900335438
-2.6351547241210938,-0.8681417107582092,2.639012575149536,2023-10-21T14:58:55.447999Z,1697900335447
-2.629035472869873,-0.815462589263916,2.5992369651794434,2023-10-21T14:58:55.458719Z,1697900335458
-2.6504528522491455,-0.7743569016456604,2.5699708461761475,2023-10-21T14:58:55.468317Z,1697900335468
-2.6777236461639404,-0.7448246479034424,2.5480213165283203,2023-10-21T14:58:55.480281Z,1697900335480
-2.681448459625244,-0.7230079770088196,2.5206174850463867,2023-10-21T14:58:55.488498Z,1697900335488
-2.6364848613739014,-0.7031868100166321,2.471529960632324,2023-10-21T14:58:55.499540Z,1697900335499
-2.5311267375946045,-0.6795077919960022,2.3877222537994385,2023-10-21T14:58:55.508677Z,1697900335508
-2.3708276748657227,-0.6490443348884583,2.265735387802124,2023-10-21T14:58:55.519865Z,1697900335519
-2.1853864192962646,-0.6168515682220459,2.121532917022705,2023-10-21T14:58:55.529877Z,1697900335529
-2.0193674564361572,-0.5990257859230042,1.9862433671951294,2023-10-21T14:58:55.539931Z,1697900335539
-1.9172017574310303,-0.6207093596458435,1.8939218521118164,2023-10-21T14:58:55.549347Z,1697900335549
-1.9044309854507446,-0.7033198475837708,1.8649216890335083,2023-10-21T14:58:55.563944Z,1697900335563
-1.974137783050537,-0.8496508002281189,1.8911281824111938,2023-10-21T14:58:55.569580Z,1697900335569
-2.095060348510742,-1.043206810951233,1.9432752132415771,2023-10-21T14:58:55.580499Z,1697900335580
-2.216914176940918,-1.241019606590271,1.973339557647705,2023-10-21T14:58:55.589807Z,1697900335589
-2.287019968032837,-1.3757771253585815,1.9283760786056519,2023-10-21T14:58:55.600868Z,1697900335600
-2.261744737625122,-1.3660660982131958,1.7606276273727417,2023-10-21T14:58:55.613134Z,1697900335613
-2.1118218898773193,-1.1463035345077515,1.4373692274093628,2023-10-21T14:58:55.620878Z,1697900335620
-1.827407717704773,-0.7090400457382202,0.9558072686195374,2023-10-21T14:58:55.630352Z,1697900335630
-1.411029577255249,-0.10934913903474808,0.33935481309890747,2023-10-21T14:58:55.641114Z,1697900335641
-0.8810454607009888,0.5520668029785156,-0.36529529094696045,2023-10-21T14:58:55.650733Z,1697900335650
-0.26911595463752747,1.1722440719604492,-1.1001428365707397,2023-10-21T14:58:55.663587Z,1697900335663
0.3662264943122864,1.6721638441085815,-1.7978755235671997,2023-10-21T14:58:55.670862Z,1697900335670
0.9417062997817993,2.008193016052246,-2.3901166915893555,2023-10-21T14:58:55.681821Z,1697900335681
1.3841578960418701,2.1827259063720703,-2.8382885456085205,2023-10-21T14:58:55.691099Z,1697900335691
1.6725629568099976,2.2334096431732178,-3.1503727436065674,2023-10-21T14:58:55.702165Z,1697900335702
1.8570729494094849,2.2162489891052246,-3.37758469581604,2023-10-21T14:58:55.713056Z,1697900335713
2.0225601196289062,2.1811296939849854,-3.5804526805877686,2023-10-21T14:58:55.722269Z,1697900335722
2.258552074432373,2.163569927215576,-3.8088619709014893,2023-10-21T14:58:55.731722Z,1697900335731
2.6332921981811523,2.1833910942077637,-4.088886260986328,2023-10-21T14:58:55.742706Z,1697900335742
3.159684658050537,2.238996744155884,-4.407222747802734,2023-10-21T14:58:55.752061Z,1697900335752
3.782921552658081,2.311098098754883,-4.715847969055176,2023-10-21T14:58:55.763335Z,1697900335763
4.392190456390381,2.3708276748657227,-4.954899787902832,2023-10-21T14:58:55.772216Z,1697900335772
4.872023105621338,2.3921122550964355,-5.086597442626953,2023-10-21T14:58:55.783229Z,1697900335783
5.1553730964660645,2.3628461360931396,-5.112138748168945,2023-10-21T14:58:55.792305Z,1697900335792
4.992413520812988,2.262542724609375,-4.8357062339782715,2023-10-21T14:58:55.803563Z,1697900335803
5.1974101066589355,2.181262493133545,-4.9850969314575195,2023-10-21T14:58:55.812980Z,1697900335812
5.115996837615967,2.0760374069213867,-4.921243667602539,2023-10-21T14:58:55.823547Z,1697900335823
5.0872626304626465,2.001408576965332,-4.8986287117004395,2023-10-21T14:58:55.833064Z,1697900335833
5.158565521240234,1.9803900718688965,-4.921642303466797,2023-10-21T14:58:55.846735Z,1697900335846
5.056399822235107,1.997816801071167,-4.752164840698242,2023-10-21T14:58:55.853348Z,1697900335853
5.218428134918213,2.066326379776001,-4.783958435058594,2023-10-21T14:58:55.864258Z,1697900335864
5.347864627838135,2.1413540840148926,-4.779834747314453,2023-10-21T14:58:55.873561Z,1697900335873
5.408259391784668,2.1998865604400635,-4.726623058319092,2023-10-21T14:58:55.884525Z,1697900335884
5.389103412628174,2.2322123050689697,-4.622994422912598,2023-10-21T14:58:55.896237Z,1697900335896
5.292126178741455,2.2383317947387695,-4.471076011657715,2023-10-21T14:58:55.904585Z,1697900335904
5.128767490386963,2.2250287532806396,-4.275258541107178,2023-10-21T14:58:55.914056Z,1697900335914
5.151115894317627,2.2218360900878906,-4.175487518310547,2023-10-21T14:58:55.924857Z,1697900335924
4.859252452850342,2.1871159076690674,-3.8897430896759033,2023-10-21T14:58:55.934386Z,1697900335934
4.536792278289795,2.1422853469848633,-3.5900306701660156,2023-10-21T14:58:55.946555Z,1697900335946
4.198634624481201,2.081092357635498,-3.2933778762817383,2023-10-21T14:58:55.954545Z,1697900335954
3.860610008239746,1.9967526197433472,-3.0149500370025635,2023-10-21T14:58:55.965571Z,1697900335965
3.5344250202178955,1.886073112487793,-2.764324903488159,2023-10-21T14:58:55.974706Z,1697900335974
3.2272629737854004,1.7502514123916626,-2.544562578201294,2023-10-21T14:58:55.985928Z,1697900335985
2.9412524700164795,1.596869945526123,-2.352336883544922,2023-10-21T14:58:55.996220Z,1697900335996
2.674264907836914,1.436038851737976,-2.1794002056121826,2023-10-21T14:58:56.005866Z,1697900336005
2.4209792613983154,1.2799968719482422,-2.0148444175720215,2023-10-21T14:58:56.015421Z,1697900336015
2.177271842956543,1.140051245689392,-1.8506876230239868,2023-10-21T14:58:56.029863Z,1697900336029
1.941545844078064,1.0236515998840332,-1.6842694282531738,2023-10-21T14:58:56.035671Z,1697900336035
1.7163292169570923,0.9346557855606079,-1.5183833837509155,2023-10-21T14:58:56.046565Z,1697900336046
1.506410837173462,0.8722655773162842,-1.359148621559143,2023-10-21T14:58:56.055848Z,1697900336055
1.3164465427398682,0.8318250179290771,-1.2125515937805176,2023-10-21T14:58:56.066934Z,1697900336066
1.1489641666412354,0.8042882084846497,-1.082849144935608,2023-10-21T14:58:56.079443Z,1697900336079
1.003298282623291,0.7799440622329712,-0.9719036817550659,2023-10-21T14:58:56.086986Z,1697900336086
0.8749261498451233,0.7488154768943787,-0.8785179257392883,2023-10-21T14:58:56.096420Z,1697900336096
0.7582604885101318,0.7022556066513062,-0.8006964325904846,2023-10-21T14:58:56.107253Z,1697900336107
0.6501085758209229,0.6350764036178589,-0.7359117269515991,2023-10-21T14:58:56.116765Z,1697900336116
0.5543283224105835,0.5524659156799316,-0.6548975706100464,2023-10-21T14:58:56.129762Z,1697900336129
0.45641958713531494,0.4419195353984833,-0.6099340915679932,2023-10-21T14:58:56.136967Z,1697900336136
0.3727448880672455,0.3474695384502411,-0.5716219544410706,2023-10-21T14:58:56.147995Z,1697900336147
0.27576735615730286,0.20978540182113647,-0.5275896787643433,2023-10-21T14:58:56.157118Z,1697900336157
0.16149617731571198,0.03179372847080231,-0.503644585609436,2023-10-21T14:58:56.168275Z,1697900336168
0.06930766999721527,-0.10362893342971802,-0.45482325553894043,2023-10-21T14:58:56.179368Z,1697900336179
-0.018623940646648407,-0.2382534146308899,-0.4098597466945648,2023-10-21T14:58:56.188331Z,1697900336188
-0.09817477315664291,-0.36808890104293823,-0.3719467222690582,2023-10-21T14:58:56.197773Z,1697900336197
-0.16947786509990692,-0.48994266986846924,-0.3402860164642334,2023-10-21T14:58:56.208497Z,1697900336208
-0.23692314326763153,-0.6039478182792664,-0.3094234764575958,2023-10-21T14:58:56.218066Z,1697900336218
-0.30490052700042725,-0.7115675806999207,-0.2728407382965088,2023-10-21T14:58:56.229690Z,1697900336229
-0.3750063478946686,-0.8137332201004028,-0.2277441918849945,2023-10-21T14:58:56.238211Z,1697900336238
-0.4463094472885132,-0.9089813828468323,-0.17599624395370483,2023-10-21T14:58:56.249312Z,1697900336249
-0.5178785920143127,-0.995981752872467,-0.12105561792850494,2023-10-21T14:58:56.258414Z,1697900336258
-0.588649570941925,-1.0747344493865967,-0.06651407480239868,2023-10-21T14:58:56.269636Z,1697900336269
-0.6555627584457397,-1.1448402404785156,-0.017958801239728928,2023-10-21T14:58:56.279295Z,1697900336279
-0.7139620780944824,-1.2048360109329224,0.016894575208425522,2023-10-21T14:58:56.289589Z,1697900336289
-0.7611870765686035,-1.2533912658691406,0.032192811369895935,2023-10-21T14:58:56.299131Z,1697900336299
-0.7971047163009644,-1.29050612449646,0.026206545531749725,2023-10-21T14:58:56.313003Z,1697900336312
-0.8219809532165527,-1.3175108432769775,0.0029266192577779293,2023-10-21T14:58:56.319369Z,1697900336319
-0.8370131254196167,-1.3358687162399292,-0.03139464557170868,2023-10-21T14:58:56.330268Z,1697900336330
-0.8451278209686279,-1.349570631980896,-0.06944069266319275,2023-10-21T14:58:56.339551Z,1697900336339
-0.8512471318244934,-1.3634055852890015,-0.10562435537576675,2023-10-21T14:58:56.350632Z,1697900336350
-0.858696699142456,-1.3803001642227173,-0.1360878050327301,2023-10-21T14:58:56.362562Z,1697900336362
-0.8681417107582092,-1.398658037185669,-0.159101665019989,2023-10-21T14:58:56.370627Z,1697900336370
-0.8769215941429138,-1.4098323583602905,-0.17573018372058868,2023-10-21T14:58:56.380112Z,1697900336380
-0.8805133104324341,-1.4013185501098633,-0.18983116745948792,2023-10-21T14:58:56.390939Z,1697900336390
-0.8753252625465393,-1.3608779907226562,-0.20792299509048462,2023-10-21T14:58:56.400435Z,1697900336400
-0.8062836527824402,-1.2334370613098145,-0.20286792516708374,2023-10-21T14:58:56.412889Z,1697900336412
-0.6884207129478455,-1.0525187253952026,-0.17320264875888824,2023-10-21T14:58:56.420635Z,1697900336420
-0.7152923941612244,-0.9472934603691101,-0.285478413105011,2023-10-21T14:58:56.431691Z,1697900336431
-0.7665082216262817,-0.8124029040336609,-0.4468415677547455,2023-10-21T14:58:56.440783Z,1697900336440
-0.7074437141418457,-0.5766770243644714,-0.5172134637832642,2023-10-21T14:58:56.451975Z,1697900336451
-0.6535673141479492,-0.32751530408859253,-0.5798696875572205,2023-10-21T14:58:56.462414Z,1697900336462
-0.6098010540008545,-0.07728935778141022,-0.6249662637710571,2023-10-21T14:58:56.471948Z,1697900336471
-0.578140377998352,0.16375765204429626,-0.6458516716957092,2023-10-21T14:58:56.481456Z,1697900336481
-0.5588512420654297,0.38604769110679626,-0.6399984359741211,2023-10-21T14:58:56.496043Z,1697900336496
-0.5521998405456543,0.5801357626914978,-0.6095349788665771,2023-10-21T14:58:56.501700Z,1697900336501
-0.5561907291412354,0.7391043901443481,-0.5608466863632202,2023-10-21T14:58:56.512820Z,1697900336512
-0.5661678314208984,0.8608251810073853,-0.5040436387062073,2023-10-21T14:58:56.521934Z,1697900336521
-0.5764110088348389,0.9455640912055969,-0.44976818561553955,2023-10-21T14:58:56.532968Z,1697900336532
-0.5826632976531982,0.9955826997756958,-0.4054698050022125,2023-10-21T14:58:56.545717Z,1697900336545
-0.5831954479217529,1.0142066478729248,-0.3748733401298523,2023-10-21T14:58:56.553045Z,1697900336553
-0.577741265296936,1.0050276517868042,-0.3566484749317169,2023-10-21T14:58:56.562473Z,1697900336562
-0.5673650503158569,0.9723027348518372,-0.3474695384502411,2023-10-21T14:58:56.573269Z,1697900336573
-0.5529980063438416,0.9198896884918213,-0.34374475479125977,2023-10-21T14:58:56.582809Z,1697900336582
-0.5346401333808899,0.8520452976226807,-0.3429465889930725,2023-10-21T14:58:56.596507Z,1697900336596
-0.5117592811584473,0.7735586762428284,-0.344542920589447,2023-10-21T14:58:56.602974Z,1697900336602
-0.48315826058387756,0.6893518567085266,-0.3502631187438965,2023-10-21T14:58:56.614076Z,1697900336614
-0.4477727711200714,0.6048790216445923,-0.36369895935058594,2023-10-21T14:58:56.623231Z,1697900336623
-0.4062679708003998,0.5243969559669495,-0.3875110149383545,2023-10-21T14:58:56.634344Z,1697900336634
-0.36024022102355957,0.45083239674568176,-0.42183226346969604,2023-10-21T14:58:56.645765Z,1697900336645
-0.3118179738521576,0.38724493980407715,-0.46413522958755493,2023-10-21T14:58:56.654435Z,1697900336654
-0.26312968134880066,0.3353639841079712,-0.5092317461967468,2023-10-21T14:58:56.663852Z,1697900336663
-0.21670286357402802,0.29678580164909363,-0.5506035089492798,2023-10-21T14:58:56.674615Z,1697900336674
-0.17466595768928528,0.2716434895992279,-0.5817320942878723,2023-10-21T14:58:56.684138Z,1697900336684
-0.1383492797613144,0.25887277722358704,-0.5975624322891235,2023-10-21T14:58:56.696001Z,1697900336695
-0.10908308625221252,0.25607919692993164,-0.5953009724617004,2023-10-21T14:58:56.704381Z,1697900336704
-0.08859674632549286,0.25820764899253845,-0.5734843611717224,2023-10-21T14:58:56.715392Z,1697900336715
-0.07768844068050385,0.259537935256958,-0.533708930015564,2023-10-21T14:58:56.724506Z,1697900336724
-0.06930766999721527,0.2403818666934967,-0.47238296270370483,2023-10-21T14:58:56.735707Z,1697900336735
-0.07183520495891571,0.23306532204151154,-0.411190003156662,2023-10-21T14:58:56.745564Z,1697900336745
-0.07396364957094193,0.22681300342082977,-0.3589099645614624,2023-10-21T14:58:56.755667Z,1697900336755
-0.07941780984401703,0.19834497570991516,-0.28468024730682373,2023-10-21T14:58:56.765170Z,1697900336765
-0.09311970323324203,0.1624273806810379,-0.1986110359430313,2023-10-21T14:58:56.779501Z,1697900336779
-0.09790872037410736,0.10495921224355698,-0.11626660823822021,2023-10-21T14:58:56.785474Z,1697900336785
-0.10296379029750824,0.03578457236289978,-0.030197391286492348,2023-10-21T14:58:56.796537Z,1697900336796
-0.1097482219338417,-0.04110569879412651,0.05733513459563255,2023-10-21T14:58:56.805561Z,1697900336805
-0.11879414319992065,-0.11999139189720154,0.14313828945159912,2023-10-21T14:58:56.816726Z,1697900336816
-0.1289042830467224,-0.19462019205093384,0.22348730266094208,2023-10-21T14:58:56.828987Z,1697900336828
-0.13795019686222076,-0.25927186012268066,0.29492342472076416,2023-10-21T14:58:56.836768Z,1697900336836
-0.14406949281692505,-0.31208404898643494,0.3551851511001587,2023-10-21T14:58:56.846243Z,1697900336846
-0.14646399021148682,-0.35438698530197144,0.4034743905067444,2023-10-21T14:58:56.857027Z,1697900336857
-0.14699611067771912,-0.3903045952320099,0.44152042269706726,2023-10-21T14:58:56.866503Z,1697900336866
-0.14686307311058044,-0.4226304292678833,0.47278204560279846,2023-10-21T14:58:56.879362Z,1697900336879
-0.1471291333436966,-0.4521626830101013,0.5020482540130615,2023-10-21T14:58:56.886671Z,1697900336886
-0.14912456274032593,-0.4796995222568512,0.5334429144859314,2023-10-21T14:58:56.897710Z,1697900336897
-0.1552438586950302,-0.5061721205711365,0.5701586604118347,2023-10-21T14:58:56.906981Z,1697900336906
-0.16641822457313538,-0.5305162668228149,0.6131267547607422,2023-10-21T14:58:56.918039Z,1697900336918
-0.18145039677619934,-0.548608124256134,0.6612829566001892,2023-10-21T14:58:56.928570Z,1697900336928
-0.19781285524368286,-0.555924654006958,0.7127648591995239,2023-10-21T14:58:56.938081Z,1697900336938
-0.21444137394428253,-0.5498053431510925,0.7647788524627686,2023-10-21T14:58:56.947529Z,1697900336947
-0.23093686997890472,-0.5297181010246277,0.8151965141296387,2023-10-21T14:58:56.958336Z,1697900336958
-0.24769842624664307,-0.49646106362342834,0.8637517690658569,2023-10-21T14:58:56.967830Z,1697900336967
-0.26419392228126526,-0.45030030608177185,0.9116419553756714,2023-10-21T14:58:56.979236Z,1697900336979
-0.27896004915237427,-0.39216700196266174,0.9611284136772156,2023-10-21T14:58:56.988001Z,1697900336987
-0.2913316488265991,-0.32525384426116943,1.0147387981414795,2023-10-21T14:58:56.999131Z,1697900336999
-0.3025060296058655,-0.2562122344970703,1.0743353366851807,2023-10-21T14:58:57.008208Z,1697900337008
-0.3140794634819031,-0.19142751395702362,1.139652132987976,2023-10-21T14:58:57.019406Z,1697900337019
-0.3283134698867798,-0.13701899349689484,1.2084277868270874,2023-10-21T14:58:57.028754Z,1697900337028
-0.3468043804168701,-0.09724357724189758,1.2769372463226318,2023-10-21T14:58:57.039385Z,1697900337039
-0.3694191873073578,-0.07396364957094193,1.340524673461914,2023-10-21T14:58:57.048869Z,1697900337048
-0.3938963711261749,-0.0658489316701889,1.394667148590088,2023-10-21T14:58:57.062319Z,1697900337062
-0.4182405173778534,-0.0702388659119606,1.436837077140808,2023-10-21T14:58:57.069124Z,1697900337069
-0.44258466362953186,-0.08527104556560516,1.4661033153533936,2023-10-21T14:58:57.080106Z,1697900337080
-0.46852514147758484,-0.10881702601909637,1.4837960004806519,2023-10-21T14:58:57.089303Z,1697900337089
-0.4967271089553833,-0.1378171592950821,1.491378664970398,2023-10-21T14:58:57.100468Z,1697900337100
-0.5257272720336914,-0.16894575953483582,1.4897823333740234,2023-10-21T14:58:57.111994Z,1697900337111
-0.5528650283813477,-0.1992761790752411,1.4796721935272217,2023-10-21T14:58:57.120461Z,1697900337120
-0.578140377998352,-0.22854237258434296,1.4622454643249512,2023-10-21T14:58:57.129895Z,1697900337129
-0.6043468713760376,-0.25767552852630615,1.4402958154678345,2023-10-21T14:58:57.140626Z,1697900337140
-0.6333470344543457,-0.28773990273475647,1.417281985282898,2023-10-21T14:58:57.150207Z,1697900337150
-0.6647416949272156,-0.31966665387153625,1.395066261291504,2023-10-21T14:58:57.162412Z,1697900337162
-0.6979987025260925,-0.3545200228691101,1.374979019165039,2023-10-21T14:58:57.170387Z,1697900337170
-0.7360447645187378,-0.39496058225631714,1.357818365097046,2023-10-21T14:58:57.181426Z,1697900337181
-0.7828706502914429,-0.44324979186058044,1.3435842990875244,2023-10-21T14:58:57.190632Z,1697900337190
-0.8394076228141785,-0.49978676438331604,1.3310797214508057,2023-10-21T14:58:57.201739Z,1697900337201
-0.9044584035873413,-0.5637733340263367,1.318708062171936,2023-10-21T14:58:57.211926Z,1697900337211
-0.9772248268127441,-0.6348103284835815,1.3060704469680786,2023-10-21T14:58:57.221786Z,1697900337221
-1.059569239616394,-0.7142281532287598,1.2958272695541382,2023-10-21T14:58:57.231277Z,1697900337231
-1.1552164554595947,-0.804155170917511,1.2925015687942505,2023-10-21T14:58:57.245644Z,1697900337245
-1.268290400505066,-0.9069859385490417,1.302744746208191,2023-10-21T14:58:57.251540Z,1697900337251
-1.4030479192733765,-1.0243167877197266,1.3342723846435547,2023-10-21T14:58:57.262453Z,1697900337262
-1.5598881244659424,-1.154551386833191,1.3933368921279907,2023-10-21T14:58:57.271741Z,1697900337271
-1.734687089920044,-1.2923685312271118,1.4833968877792358,2023-10-21T14:58:57.282788Z,1697900337282
-1.9172017574310303,-1.4284563064575195,1.6037874221801758,2023-10-21T14:58:57.295324Z,1697900337295
-2.093996047973633,-1.5523054599761963,1.7494531869888306,2023-10-21T14:58:57.302833Z,1697900337302
-2.2503042221069336,-1.6552692651748657,1.9121466875076294,2023-10-21T14:58:57.312277Z,1697900337312
-2.3733551502227783,-1.732292652130127,2.08189058303833,2023-10-21T14:58:57.323041Z,1697900337323
-2.459291458129883,-1.7843066453933716,2.2504372596740723,2023-10-21T14:58:57.332579Z,1697900337332
-2.511305570602417,-1.815967321395874,2.411933422088623,2023-10-21T14:58:57.345662Z,1697900337345
-2.5383100509643555,-1.8347243070602417,2.562920331954956,2023-10-21T14:58:57.352859Z,1697900337352
-2.5474891662597656,-1.846430778503418,2.7008705139160156,2023-10-21T14:58:57.363881Z,1697900337363
-2.5416359901428223,-1.8536142110824585,2.8235225677490234,2023-10-21T14:58:57.373081Z,1697900337373
-2.520085334777832,-1.8554766178131104,2.929013967514038,2023-10-21T14:58:57.384116Z,1697900337384
-2.479644775390625,-1.849224328994751,3.014417886734009,2023-10-21T14:58:57.395265Z,1697900337395
-2.4193830490112305,-1.8324627876281738,3.0782713890075684,2023-10-21T14:58:57.404135Z,1697900337404
-2.340630292892456,-1.8039947748184204,3.1197762489318848,2023-10-21T14:58:57.413607Z,1697900337413
-2.2455151081085205,-1.7639533281326294,3.1394643783569336,2023-10-21T14:58:57.424407Z,1697900337424
-2.136831283569336,-1.7143337726593018,3.1378681659698486,2023-10-21T14:58:57.433926Z,1697900337433
-2.0188353061676025,-1.657796859741211,3.116849660873413,2023-10-21T14:58:57.445519Z,1697900337445
-1.8985778093338013,-1.5980671644210815,3.080000877380371,2023-10-21T14:58:57.454140Z,1697900337454
-1.783774495124817,-1.5391356945037842,3.0313124656677246,2023-10-21T14:58:57.465119Z,1697900337465
-1.6778841018676758,-1.4844611883163452,2.9743764400482178,2023-10-21T14:58:57.474301Z,1697900337474
-1.581438660621643,-1.4363049268722534,2.911853313446045,2023-10-21T14:58:57.485457Z,1697900337485
-1.4955024719238281,-1.3969286680221558,2.84653639793396,2023-10-21T14:58:57.495197Z,1697900337495
-1.4249975681304932,-1.3699239492416382,2.7829489707946777,2023-10-21T14:58:57.505489Z,1697900337505
-1.377772569656372,-1.359946846961975,2.7257468700408936,2023-10-21T14:58:57.515002Z,1697900337514
-1.3580844402313232,-1.3692587614059448,2.675861358642578,2023-10-21T14:58:57.528954Z,1697900337528
-1.3640706539154053,-1.39546537399292,2.6291685104370117,2023-10-21T14:58:57.535213Z,1697900337535
-1.3884148597717285,-1.4315159320831299,2.578883647918701,2023-10-21T14:58:57.546107Z,1697900337546
-1.4198094606399536,-1.4680986404418945,2.5179569721221924,2023-10-21T14:58:57.555477Z,1697900337555
-1.4448187351226807,-1.4966996908187866,2.4406673908233643,2023-10-21T14:58:57.566485Z,1697900337566
-1.4489426612854004,-1.5111998319625854,2.3411624431610107,2023-10-21T14:58:57.578528Z,1697900337578
-1.420474648475647,-1.5066767930984497,2.2155838012695312,2023-10-21T14:58:57.586597Z,1697900337586
-1.3522311449050903,-1.4792730808258057,2.0598080158233643,2023-10-21T14:58:57.595954Z,1697900337595
-1.2416847944259644,-1.4259287118911743,1.8705087900161743,2023-10-21T14:58:57.606886Z,1697900337606
-1.0937575101852417,-1.345579743385315,1.648750901222229,2023-10-21T14:58:57.616275Z,1697900337616
-0.9189584851264954,-1.238226056098938,1.4005204439163208,2023-10-21T14:58:57.628838Z,1697900337628
-0.7297924160957336,-1.1049318313598633,1.1315374374389648,2023-10-21T14:58:57.636571Z,1697900337636
-0.5365025401115417,-0.9503531455993652,0.8453938961029053,2023-10-21T14:58:57.647554Z,1697900337647
-0.3538548946380615,-0.7880587577819824,0.5520668029785156,2023-10-21T14:58:57.656774Z,1697900337656
-0.20446427166461945,-0.6399984359741211,0.2723086178302765,2023-10-21T14:58:57.667833Z,1697900337667
-0.1229180097579956,-0.5382319092750549,0.03525245934724808,2023-10-21T14:58:57.678325Z,1697900337678
-0.14912456274032593,-0.514153778553009,-0.13209696114063263,2023-10-21T14:58:57.687908Z,1697900337687
-0.3074280619621277,-0.5802688002586365,-0.22268912196159363,2023-10-21T14:58:57.697289Z,1697900337697
-0.5927734375,-0.7216777205467224,-0.2530195415019989,2023-10-21T14:58:57.711970Z,1697900337711
-0.9607293009757996,-0.8906234502792358,-0.262996643781662,2023-10-21T14:58:57.717586Z,1697900337717
-1.3474421501159668,-1.022720456123352,-0.3006436228752136,2023-10-21T14:58:57.728663Z,1697900337728
-1.675223469734192,-1.0421425104141235,-0.422763466835022,2023-10-21T14:58:57.737825Z,1697900337737
-1.8617290258407593,-0.8781188130378723,-0.69001704454422,2023-10-21T14:58:57.748797Z,1697900337748
-1.834990382194519,-0.5019152164459229,-1.1371246576309204,2023-10-21T14:58:57.761710Z,1697900337761
-1.5469844341278076,0.05427548661828041,-1.7553064823150635,2023-10-21T14:58:57.768928Z,1697900337768
-1.0098166465759277,0.7006592750549316,-2.4817731380462646,2023-10-21T14:58:57.778362Z,1697900337778
-0.3030381202697754,1.3356026411056519,-3.2243363857269287,2023-10-21T14:58:57.789209Z,1697900337789
0.4331396520137787,1.8661189079284668,-3.8800320625305176,2023-10-21T14:58:57.798602Z,1697900337798
1.0515875816345215,2.222501277923584,-4.364786624908447,2023-10-21T14:58:57.812036Z,1697900337812
1.4712913036346436,2.388254404067993,-4.65771484375,2023-10-21T14:58:57.818891Z,1697900337818
1.7036916017532349,2.4044837951660156,-4.800985813140869,2023-10-21T14:58:57.829823Z,1697900337829
1.8361876010894775,2.3556625843048096,-4.873353481292725,2023-10-21T14:58:57.839192Z,1697900337839
1.971344232559204,2.327061414718628,-4.946784973144531,2023-10-21T14:58:57.850146Z,1697900337850
2.1889781951904297,2.3825342655181885,-5.063716411590576,2023-10-21T14:58:57.861603Z,1697900337861
2.5246083736419678,2.5512139797210693,-5.227075099945068,2023-10-21T14:58:57.870238Z,1697900337870
2.902541160583496,2.771641492843628,-5.12504243850708,2023-10-21T14:58:57.879641Z,1697900337879
3.3266348838806152,3.0625741481781006,-5.220024585723877,2023-10-21T14:58:57.890514Z,1697900337890
3.6882054805755615,3.3312909603118896,-5.226276874542236,2023-10-21T14:58:57.900002Z,1697900337899
3.9429545402526855,3.538681983947754,-5.140872955322266,2023-10-21T14:58:57.911890Z,1697900337911
4.223244667053223,3.77374267578125,-5.235722064971924,2023-10-21T14:58:57.920223Z,1697900337920
4.274593830108643,3.846242904663086,-5.015161514282227,2023-10-21T14:58:57.931187Z,1697900337931
4.249584197998047,3.861142158508301,-4.782095909118652,2023-10-21T14:58:57.940538Z,1697900337940
4.175088405609131,3.834669589996338,-4.555682182312012,2023-10-21T14:58:57.951496Z,1697900337951
4.070528507232666,3.78092622756958,-4.343502044677734,2023-10-21T14:58:57.961428Z,1697900337961
3.9477434158325195,3.7106871604919434,-4.146088600158691,2023-10-21T14:58:57.971543Z,1697900337971
3.8152472972869873,3.6333978176116943,-3.9617114067077637,2023-10-21T14:58:57.981048Z,1697900337981
3.6810219287872314,3.557438850402832,-3.789306879043579,2023-10-21T14:58:57.991799Z,1697900337991
3.5473287105560303,3.4848055839538574,-3.6254162788391113,2023-10-21T14:58:58.001281Z,1697900338001
3.4133694171905518,3.412438154220581,-3.4663145542144775,2023-10-21T14:58:58.012202Z,1697900338012
3.2804741859436035,3.337543249130249,-3.31067156791687,2023-10-21T14:58:58.021496Z,1697900338021
3.1486432552337646,3.258258581161499,-3.156891107559204,2023-10-21T14:58:58.032505Z,1697900338032
3.01428484916687,3.169262647628784,-3.0016472339630127,2023-10-21T14:58:58.044722Z,1697900338044
2.872875928878784,3.0619089603424072,-2.8400180339813232,2023-10-21T14:58:58.052618Z,1697900338052
2.7249486446380615,2.9315414428710938,-2.6712052822113037,2023-10-21T14:58:58.062012Z,1697900338061
2.576489210128784,2.780820608139038,-2.499199867248535,2023-10-21T14:58:58.072816Z,1697900338072
2.431621551513672,2.6153335571289062,-2.3293230533599854,2023-10-21T14:58:58.082331Z,1697900338082
2.2919421195983887,2.4402685165405273,-2.165166139602661,2023-10-21T14:58:58.095075Z,1697900338095
2.1577165126800537,2.2606804370880127,-2.008991241455078,2023-10-21T14:58:58.102563Z,1697900338102
2.029477596282959,2.0829548835754395,-1.8621280193328857,2023-10-21T14:58:58.113527Z,1697900338113
1.9092199802398682,1.9134769439697266,-1.726040244102478,2023-10-21T14:58:58.122809Z,1697900338122
1.7985405921936035,1.757301926612854,-1.6027231216430664,2023-10-21T14:58:58.133871Z,1697900338133
1.698636531829834,1.6176223754882812,-1.4928419589996338,2023-10-21T14:58:58.144690Z,1697900338144
1.6084433794021606,1.4943052530288696,-1.3951992988586426,2023-10-21T14:58:58.153905Z,1697900338153
1.5239704847335815,1.383226752281189,-1.30593740940094,2023-10-21T14:58:58.163441Z,1697900338163
1.439098596572876,1.2777353525161743,-1.2201342582702637,2023-10-21T14:58:58.174194Z,1697900338174
1.349570631980896,1.1715788841247559,-1.1339319944381714,2023-10-21T14:58:58.183653Z,1697900338183
1.2557857036590576,1.062761902809143,-1.0458673238754272,2023-10-21T14:58:58.195037Z,1697900338195
1.1602715253829956,0.9499540328979492,-0.9564723968505859,2023-10-21T14:58:58.203888Z,1697900338203
1.062761902809143,0.830095648765564,-0.8666784167289734,2023-10-21T14:58:58.215024Z,1697900338214
0.9632568359375,0.7019895315170288,-0.7791458964347839,2023-10-21T14:58:58.224025Z,1697900338224
0.8662793040275574,0.5705577731132507,-0.7001271843910217,2023-10-21T14:58:58.235216Z,1697900338235
0.7768844366073608,0.4433828294277191,-0.6349433660507202,2023-10-21T14:58:58.244643Z,1697900338244
0.6948060393333435,0.32418960332870483,-0.5827963352203369,2023-10-21T14:58:58.255271Z,1697900338255
0.6148561239242554,0.21178081631660461,-0.5382319092750549,2023-10-21T14:58:58.264664Z,1697900338264
0.5326447486877441,0.1053582951426506,-0.4963280260562897,2023-10-21T14:58:58.278429Z,1697900338278
0.4457773268222809,0.0037247883155941963,-0.45362600684165955,2023-10-21T14:58:58.284936Z,1697900338284
0.34986403584480286,-0.09750963747501373,-0.40533676743507385,2023-10-21T14:58:58.295924Z,1697900338295
0.24277637898921967,-0.19967526197433472,-0.34773558378219604,2023-10-21T14:58:58.305225Z,1697900338305
0.12704189121723175,-0.2978500425815582,-0.2821527123451233,2023-10-21T14:58:58.316252Z,1697900338316
0.0063853515312075615,-0.38325411081314087,-0.21178081631660461,2023-10-21T14:58:58.327934Z,1697900338327
-0.1185280829668045,-0.4499012231826782,-0.1360878050327301,2023-10-21T14:58:58.336301Z,1697900338336
-0.25009292364120483,-0.4963280260562897,-0.049752529710531235,2023-10-21T14:58:58.345714Z,1697900338345
-0.389107346534729,-0.5204061269760132,0.052546121180057526,2023-10-21T14:58:58.356522Z,1697900338356
-0.5339750051498413,-0.5221354961395264,0.17147329449653625,2023-10-21T14:58:58.366053Z,1697900338365
-0.6800399422645569,-0.504176676273346,0.30157482624053955,2023-10-21T14:58:58.378279Z,1697900338378
-0.8177240490913391,-0.4726490378379822,0.4302130341529846,2023-10-21T14:58:58.386254Z,1697900338386
-0.937715470790863,-0.43593326210975647,0.5435530543327332,2023-10-21T14:58:58.397264Z,1697900338397
-1.0329636335372925,-0.4017450213432312,0.629622220993042,2023-10-21T14:58:58.406421Z,1697900338406
-1.1002758741378784,-0.3755384683609009,0.6805720329284668,2023-10-21T14:58:58.417587Z,1697900338417
-1.1393861770629883,-0.36037325859069824,0.6930766701698303,2023-10-21T14:58:58.427826Z,1697900338427
-1.1528220176696777,-0.35864388942718506,0.6687325239181519,2023-10-21T14:58:58.437603Z,1697900338437
-1.1460375785827637,-0.37181368470191956,0.6153882145881653,2023-10-21T14:58:58.447033Z,1697900338446
-1.1247529983520508,-0.39988261461257935,0.5442181825637817,2023-10-21T14:58:58.461432Z,1697900338461
-1.0941565036773682,-0.44165346026420593,0.4658645987510681,2023-10-21T14:58:58.467336Z,1697900338467
-1.0574407577514648,-0.49433261156082153,0.3881761431694031,2023-10-21T14:58:58.478176Z,1697900338478
-1.0176653861999512,-0.5547273755073547,0.3166069984436035,2023-10-21T14:58:58.487584Z,1697900338487
-0.9784220457077026,-0.6200442314147949,0.2562122344970703,2023-10-21T14:58:58.498636Z,1697900338498
-0.9429035186767578,-0.6878885626792908,0.21151475608348846,2023-10-21T14:58:58.511106Z,1697900338511
-0.9128391742706299,-0.7557329535484314,0.18424399197101593,2023-10-21T14:58:58.518677Z,1697900338518
-0.8878298997879028,-0.8197194933891296,0.17333568632602692,2023-10-21T14:58:58.528118Z,1697900338528
-0.8669444918632507,-0.8762564659118652,0.17599624395370483,2023-10-21T14:58:58.538945Z,1697900338538
-0.8484535813331604,-0.921885073184967,0.1877027153968811,2023-10-21T14:58:58.548403Z,1697900338548
-0.8288984298706055,-0.9535458087921143,0.201936736702919,2023-10-21T14:58:58.561555Z,1697900338561
-0.8052194118499756,-0.9680458903312683,0.211381733417511,2023-10-21T14:58:58.568666Z,1697900338568
-0.7754210829734802,-0.9643210768699646,0.21031750738620758,2023-10-21T14:58:58.579755Z,1697900338579
-0.7393704652786255,-0.9425044655799866,0.19528532028198242,2023-10-21T14:58:58.588833Z,1697900338588
-0.69773268699646,-0.904192328453064,0.16535399854183197,2023-10-21T14:58:58.599990Z,1697900338599
-0.6262965202331543,-0.8167928457260132,0.13595476746559143,2023-10-21T14:58:58.610977Z,1697900338610
-0.5831954479217529,-0.7646458148956299,0.0818123146891594,2023-10-21T14:58:58.619991Z,1697900338619
-0.5464796423912048,-0.7200813889503479,0.03551851585507393,2023-10-21T14:58:58.629427Z,1697900338629
-0.46666276454925537,-0.6148561239242554,0.030330419540405273,2023-10-21T14:58:58.640209Z,1697900338640
-0.4581489562988281,-0.6020854115486145,-0.042169924825429916,2023-10-21T14:58:58.649706Z,1697900338649
-0.45096543431282043,-0.5913101434707642,-0.10402801632881165,2023-10-21T14:58:58.661601Z,1697900338661
-0.425956130027771,-0.560447633266449,-0.11294090002775192,2023-10-21T14:58:58.669956Z,1697900338669
-0.42675432562828064,-0.567764163017273,-0.12305103987455368,2023-10-21T14:58:58.680954Z,1697900338680
-0.4094606637954712,-0.5568558573722839,-0.10495921224355698,2023-10-21T14:58:58.690121Z,1697900338690
-0.3950936198234558,-0.5567228198051453,-0.08021597564220428,2023-10-21T14:58:58.701265Z,1697900338701
-0.38179078698158264,-0.5651035904884338,-0.05201400816440582,2023-10-21T14:58:58.710837Z,1697900338710
-0.3687540292739868,-0.5798696875572205,-0.02261478640139103,2023-10-21T14:58:58.721302Z,1697900338721
-0.3574466407299042,-0.5992918014526367,0.007183520123362541,2023-10-21T14:58:58.730796Z,1697900338730
-0.3497309982776642,-0.6219066381454468,0.038445137441158295,2023-10-21T14:58:58.744826Z,1697900338744
-0.3450750410556793,-0.6449204683303833,0.07156914472579956,2023-10-21T14:58:58.750998Z,1697900338750
-0.3412172198295593,-0.6654068231582642,0.10668858140707016,2023-10-21T14:58:58.761954Z,1697900338761
-0.337492436170578,-0.681902289390564,0.14420251548290253,2023-10-21T14:58:58.771409Z,1697900338771
-0.3342997431755066,-0.6948060393333435,0.1861063838005066,2023-10-21T14:58:58.782290Z,1697900338782
-0.3313731253147125,-0.7039849758148193,0.23293229937553406,2023-10-21T14:58:58.794211Z,1697900338794
-0.3276483416557312,-0.708241879940033,0.2837490439414978,2023-10-21T14:58:58.802390Z,1697900338802
-0.32405656576156616,-0.7074437141418457,0.33735939860343933,2023-10-21T14:58:58.811780Z,1697900338811
-0.32246023416519165,-0.7031868100166321,0.392300009727478,2023-10-21T14:58:58.822629Z,1697900338822
-0.32365748286247253,-0.6965354084968567,0.4456443190574646,2023-10-21T14:58:58.832089Z,1697900338832
-0.32458868622779846,-0.6848289370536804,0.49260324239730835,2023-10-21T14:58:58.844646Z,1697900338844
-0.32192811369895935,-0.6659389138221741,0.5286538600921631,2023-10-21T14:58:58.852339Z,1697900338852
-0.31487762928009033,-0.6417278051376343,0.5524659156799316,2023-10-21T14:58:58.863378Z,1697900338863
-0.3063638210296631,-0.6179157495498657,0.566433846950531,2023-10-21T14:58:58.872548Z,1697900338872
-0.2997124195098877,-0.6002230048179626,0.5748146176338196,2023-10-21T14:58:58.883669Z,1697900338883
-0.29665279388427734,-0.5915762186050415,0.5819981694221497,2023-10-21T14:58:58.894109Z,1697900338894
-0.2979830503463745,-0.5929064750671387,0.5925073623657227,2023-10-21T14:58:58.903737Z,1697900338903
-0.30490052700042725,-0.6048790216445923,0.6104661822319031,2023-10-21T14:58:58.913120Z,1697900338913
-0.31846940517425537,-0.6270946860313416,0.6394663453102112,2023-10-21T14:58:58.927738Z,1697900338927
-0.33882269263267517,-0.6568930149078369,0.6801729202270508,2023-10-21T14:58:58.933442Z,1697900338933
-0.3643641173839569,-0.688686728477478,0.7292603254318237,2023-10-21T14:58:58.944514Z,1697900338944
-0.392300009727478,-0.7160905599594116,0.781407356262207,2023-10-21T14:58:58.953621Z,1697900338953
-0.42063501477241516,-0.7348474860191345,0.8312929272651672,2023-10-21T14:58:58.964741Z,1697900338964
-0.44817185401916504,-0.7429622411727905,0.875059187412262,2023-10-21T14:58:58.977487Z,1697900338977
-0.47291508316993713,-0.7389714121818542,0.9089813828468323,2023-10-21T14:58:58.984701Z,1697900338984
-0.49260324239730835,-0.7232740521430969,0.9315961599349976,2023-10-21T14:58:58.994134Z,1697900338994
-0.5080345273017883,-0.7001271843910217,0.944632887840271,2023-10-21T14:58:59.004986Z,1697900339004
-0.5233327746391296,-0.6767141819000244,0.9534127712249756,2023-10-21T14:58:59.014466Z,1697900339014
-0.5411584973335266,-0.6582232713699341,0.9621925950050354,2023-10-21T14:58:59.027851Z,1697900339027
-0.5615118145942688,-0.6465167999267578,0.9727018475532532,2023-10-21T14:58:59.034690Z,1697900339034
-0.5842596292495728,-0.6430580615997314,0.9861376881599426,2023-10-21T14:58:59.045694Z,1697900339045
-0.6105992197990417,-0.6490443348884583,1.003697395324707,2023-10-21T14:58:59.054964Z,1697900339054
-0.640530526638031,-0.6630123257637024,1.024582862854004,2023-10-21T14:58:59.065965Z,1697900339065
-0.6736545562744141,-0.6803059577941895,1.0470645427703857,2023-10-21T14:58:59.077395Z,1697900339077
-0.7091730833053589,-0.6960033178329468,1.0704774856567383,2023-10-21T14:58:59.086040Z,1697900339086
-0.7442924976348877,-0.7038519382476807,1.0933583974838257,2023-10-21T14:58:59.095509Z,1697900339095
-0.7735586762428284,-0.6969344615936279,1.1134456396102905,2023-10-21T14:58:59.106345Z,1697900339106
-0.7917835712432861,-0.6693976521492004,1.1290099620819092,2023-10-21T14:58:59.115776Z,1697900339115
-0.7976368069648743,-0.6188469529151917,1.1417806148529053,2023-10-21T14:58:59.127838Z,1697900339127
-0.7915174961090088,-0.5466126799583435,1.1548173427581787,2023-10-21T14:58:59.136042Z,1697900339135
-0.7739577889442444,-0.45575445890426636,1.1719779968261719,2023-10-21T14:58:59.147386Z,1697900339147
-0.7474851608276367,-0.3522585332393646,1.1971203088760376,2023-10-21T14:58:59.156251Z,1697900339156
-0.7158244848251343,-0.24330848455429077,1.2335700988769531,2023-10-21T14:58:59.167405Z,1697900339167
-0.6836316585540771,-0.1366199105978012,1.2823914289474487,2023-10-21T14:58:59.178004Z,1697900339177
-0.6533012390136719,-0.038445137441158295,1.3411898612976074,2023-10-21T14:58:59.187454Z,1697900339187
-0.6260305047035217,0.046958938241004944,1.4057084321975708,2023-10-21T14:58:59.196868Z,1697900339196
-0.603681743144989,0.1169317439198494,1.4703601598739624,2023-10-21T14:58:59.207670Z,1697900339207
-0.5879844427108765,0.1701430082321167,1.5303558111190796,2023-10-21T14:58:59.217104Z,1697900339217
-0.5812000036239624,0.20512941479682922,1.5830349922180176,2023-10-21T14:58:59.228314Z,1697900339228
-0.5859889984130859,0.22095976769924164,1.6281315088272095,2023-10-21T14:58:59.237335Z,1697900339237
-0.6022184491157532,0.2184322327375412,1.6664437055587769,2023-10-21T14:58:59.248418Z,1697900339248
-0.6282919645309448,0.20020736753940582,1.6989024877548218,2023-10-21T14:58:59.260657Z,1697900339260
-0.6626132130622864,0.16814757883548737,1.7267054319381714,2023-10-21T14:58:59.268438Z,1697900339268
-0.7051822543144226,0.12384921312332153,1.7515816688537598,2023-10-21T14:58:59.277827Z,1697900339277
-0.755466878414154,0.06904160976409912,1.7737973928451538,2023-10-21T14:58:59.288657Z,1697900339288
-0.8117377758026123,0.0063853515312075615,1.7928204536437988,2023-10-21T14:58:59.298151Z,1697900339298
-0.8730637431144714,-0.06159203499555588,1.8093159198760986,2023-10-21T14:58:59.311066Z,1697900339311
-0.938247561454773,-0.1322299838066101,1.8239489793777466,2023-10-21T14:58:59.318456Z,1697900339318
-1.0042295455932617,-0.20220279693603516,1.83698570728302,2023-10-21T14:58:59.329384Z,1697900339329
-1.0662206411361694,-0.2677856683731079,1.8482931852340698,2023-10-21T14:58:59.338588Z,1697900339338
-1.1191658973693848,-0.3253868520259857,1.8581372499465942,2023-10-21T14:58:59.349631Z,1697900339349
-1.1584091186523438,-0.37234580516815186,1.8671830892562866,2023-10-21T14:58:59.360495Z,1697900339360
-1.1824872493743896,-0.4066670536994934,1.8776923418045044,2023-10-21T14:58:59.369741Z,1697900339369
-1.1940606832504272,-0.42941486835479736,1.892458438873291,2023-10-21T14:58:59.379284Z,1697900339379
-1.1967213153839111,-0.44378191232681274,1.913743019104004,2023-10-21T14:58:59.389922Z,1697900339389
-1.19379460811615,-0.45469021797180176,1.9426101446151733,2023-10-21T14:58:59.399499Z,1697900339399
-1.1888725757598877,-0.4677269756793976,1.979591965675354,2023-10-21T14:58:59.410824Z,1697900339410
-1.1875423192977905,-0.48861241340637207,2.0248215198516846,2023-10-21T14:58:59.419732Z,1697900339419
-1.1975194215774536,-0.5233327746391296,2.0789639949798584,2023-10-21T14:58:59.430692Z,1697900339430
-1.2237259149551392,-0.5752137303352356,2.1418862342834473,2023-10-21T14:58:59.439826Z,1697900339439
-1.267226219177246,-0.6447874307632446,2.2123911380767822,2023-10-21T14:58:59.451012Z,1697900339450
-1.321900725364685,-0.7275309562683105,2.288217306137085,2023-10-21T14:58:59.460399Z,1697900339460
-1.377772569656372,-0.8167928457260132,2.3661718368530273,2023-10-21T14:58:59.471058Z,1697900339471
-1.42326819896698,-0.90459144115448,2.442795991897583,2023-10-21T14:58:59.480667Z,1697900339480
-1.4494746923446655,-0.9841422438621521,2.5150301456451416,2023-10-21T14:58:59.492628Z,1697900339492
-1.450538992881775,-1.049592137336731,2.5784847736358643,2023-10-21T14:58:59.500710Z,1697900339500
-1.4227360486984253,-1.096418023109436,2.6279711723327637,2023-10-21T14:58:59.511624Z,1697900339511
-1.3652678728103638,-1.121826410293579,2.656572103500366,2023-10-21T14:58:59.520916Z,1697900339520
-1.2813271284103394,-1.1258172988891602,2.657503366470337,2023-10-21T14:58:59.532103Z,1697900339532
-1.1799596548080444,-1.1119823455810547,2.628636360168457,2023-10-21T14:58:59.543665Z,1697900339543
-1.074202299118042,-1.0861748456954956,2.573296546936035,2023-10-21T14:58:59.552148Z,1697900339552
-0.9760275483131409,-1.0553122758865356,2.500131130218506,2023-10-21T14:58:59.561541Z,1697900339561
-0.8916876912117004,-1.025114893913269,2.4181857109069824,2023-10-21T14:58:59.572361Z,1697900339572
-0.8202515840530396,-0.9990414381027222,2.333845853805542,2023-10-21T14:58:59.581836Z,1697900339581
-0.75639808177948,-0.9788211584091187,2.2508363723754883,2023-10-21T14:58:59.594100Z,1697900339594
-0.6916133761405945,-0.9617935419082642,2.1675608158111572,2023-10-21T14:58:59.602246Z,1697900339602
-0.619113028049469,-0.9419723153114319,2.0788309574127197,2023-10-21T14:58:59.613207Z,1697900339613
-0.536901593208313,-0.911907970905304,1.976000189781189,2023-10-21T14:58:59.622292Z,1697900339622
-0.4488369822502136,-0.8650820851325989,1.8489582538604736,2023-10-21T14:58:59.633406Z,1697900339633
-0.36276775598526,-0.7973707318305969,1.6881272792816162,2023-10-21T14:58:59.643731Z,1697900339643
-0.29771700501441956,-0.7025216817855835,1.4804702997207642,2023-10-21T14:58:59.653495Z,1697900339653
-0.2365240603685379,-0.5976954698562622,1.245409607887268,2023-10-21T14:58:59.662893Z,1697900339662
-0.18956512212753296,-0.4928693175315857,0.9911927580833435,2023-10-21T14:58:59.673668Z,1697900339673
-0.18743667006492615,-0.3876440227031708,0.7175538539886475,2023-10-21T14:58:59.683195Z,1697900339683
-0.21337716281414032,-0.29705187678337097,0.45043331384658813,2023-10-21T14:58:59.694035Z,1697900339694
-0.25448286533355713,-0.22614786028862,0.2041982114315033,2023-10-21T14:58:59.703441Z,1697900339703
-0.2985151708126068,-0.1778586357831955,-0.00944499857723713,2023-10-21T14:58:59.714398Z,1697900339714
-0.35585030913352966,-0.16442279517650604,-0.1766613870859146,2023-10-21T14:58:59.727044Z,1697900339727
-0.4614746570587158,-0.20978540182113647,-0.2792260944843292,2023-10-21T14:58:59.734558Z,1697900339734
-0.6531682014465332,-0.33443278074264526,-0.30875834822654724,2023-10-21T14:58:59.743922Z,1697900339743
-0.9460962414741516,-0.5395621657371521,-0.2740379869937897,2023-10-21T14:58:59.754744Z,1697900339754
-1.320969581604004,-0.8037561178207397,-0.20206975936889648,2023-10-21T14:58:59.764230Z,1697900339764
-1.735485315322876,-1.0954868793487549,-0.1229180097579956,2023-10-21T14:58:59.777360Z,1697900339777
-2.1273860931396484,-1.36460280418396,-0.0751609057188034,2023-10-21T14:58:59.784471Z,1697900339784
-2.4281628131866455,-1.5408650636672974,-0.10708766430616379,2023-10-21T14:58:59.795507Z,1697900339795
-2.573695659637451,-1.5547000169754028,-0.2619324326515198,2023-10-21T14:58:59.804709Z,1697900339804
-2.5115714073181152,-1.3667312860488892,-0.5599154829978943,2023-10-21T14:58:59.815836Z,1697900339815
-2.2335426807403564,-1.0015689134597778,-0.9778899550437927,2023-10-21T14:58:59.826920Z,1697900339826
-1.7902928590774536,-0.5353052616119385,-1.4590528011322021,2023-10-21T14:58:59.835828Z,1697900339835
-1.2843867540359497,-0.06465168297290802,-1.93369722366333,2023-10-21T14:58:59.845264Z,1697900339845
-0.8217148780822754,0.3325703740119934,-2.3448872566223145,2023-10-21T14:58:59.856013Z,1697900339855
-0.46679577231407166,0.6196451187133789,-2.6704070568084717,2023-10-21T14:58:59.865583Z,1697900339865
-0.23279926180839539,0.7975037693977356,-2.9189038276672363,2023-10-21T14:58:59.877163Z,1697900339877
-0.08819766342639923,0.901398777961731,-3.120441436767578,2023-10-21T14:58:59.885781Z,1697900339885
0.021816616877913475,0.9856055974960327,-3.3121349811553955,2023-10-21T14:58:59.896750Z,1697900339896
0.1680145561695099,1.1125143766403198,-3.53189754486084,2023-10-21T14:58:59.905937Z,1697900339905
0.418905645608902,1.3336071968078613,-3.8091280460357666,2023-10-21T14:58:59.916854Z,1697900339916
0.7988340258598328,1.6603243350982666,-4.137973785400391,2023-10-21T14:58:59.926225Z,1697900339926
1.2734785079956055,2.057147264480591,-4.474401950836182,2023-10-21T14:58:59.937073Z,1697900339937
1.7772561311721802,2.467273235321045,-4.7667975425720215,2023-10-21T14:58:59.946508Z,1697900339946
2.2574877738952637,2.8478667736053467,-4.988422870635986,2023-10-21T14:58:59.960907Z,1697900339960
2.689164161682129,3.182166337966919,-5.142336368560791,2023-10-21T14:58:59.966850Z,1697900339966
3.009229898452759,3.388493061065674,-4.99321174621582,2023-10-21T14:58:59.978109Z,1697900339978
3.31266713142395,3.61637020111084,-5.046689033508301,2023-10-21T14:58:59.987085Z,1697900339987
3.5684802532196045,3.818174123764038,-5.072363376617432,2023-10-21T14:58:59.998166Z,1697900339998
3.7819902896881104,4.005743503570557,-5.066643238067627,2023-10-21T14:59:00.011021Z,1697900340010
3.952000379562378,4.180542469024658,-5.017688751220703,2023-10-21T14:59:00.018167Z,1697900340018
4.200231075286865,4.4893012046813965,-5.144464492797852,2023-10-21T14:59:00.027570Z,1697900340027
4.240538597106934,4.590535640716553,-4.933615207672119,2023-10-21T14:59:00.038406Z,1697900340038
4.188790321350098,4.607296943664551,-4.6434807777404785,2023-10-21T14:59:00.047851Z,1697900340047
4.054564952850342,4.531204700469971,-4.296410083770752,2023-10-21T14:59:00.059268Z,1697900340059
3.8616743087768555,4.373566627502441,-3.9236652851104736,2023-10-21T14:59:00.068194Z,1697900340068
3.6356594562530518,4.15659761428833,-3.5539801120758057,2023-10-21T14:59:00.079142Z,1697900340079
3.3991353511810303,3.905573606491089,-3.207308769226074,2023-10-21T14:59:00.088354Z,1697900340088
3.167267322540283,3.641645669937134,-2.8944265842437744,2023-10-21T14:59:00.099489Z,1697900340099
2.9485690593719482,3.380112409591675,-2.61706280708313,2023-10-21T14:59:00.110052Z,1697900340109
2.7468984127044678,3.130950689315796,-2.3728232383728027,2023-10-21T14:59:00.119540Z,1697900340119
2.560525894165039,2.8968210220336914,-2.155189037322998,2023-10-21T14:59:00.128937Z,1697900340128
2.386658191680908,2.6757283210754395,-1.9579083919525146,2023-10-21T14:59:00.139714Z,1697900340139
2.2231664657592773,2.465144634246826,-1.7767239809036255,2023-10-21T14:59:00.149266Z,1697900340149
2.069119930267334,2.263340950012207,-1.6096405982971191,2023-10-21T14:59:00.160328Z,1697900340160
1.923720121383667,2.0689868927001953,-1.4563921689987183,2023-10-21T14:59:00.169469Z,1697900340169
1.7872332334518433,1.8808850049972534,-1.3177769184112549,2023-10-21T14:59:00.180448Z,1697900340180
1.6616545915603638,1.7002328634262085,-1.194991946220398,2023-10-21T14:59:00.193230Z,1697900340193
1.5481816530227661,1.5292916297912598,-1.0889683961868286,2023-10-21T14:59:00.200509Z,1697900340200
1.4468141794204712,1.3672633171081543,-1.000105619430542,2023-10-21T14:59:00.209997Z,1697900340209
1.3570201396942139,1.2094919681549072,-0.9294676780700684,2023-10-21T14:59:00.220802Z,1697900340220
1.2784005403518677,1.0542480945587158,-0.8794491291046143,2023-10-21T14:59:00.230270Z,1697900340230
1.2094919681549072,0.9052565693855286,-0.8503159284591675,2023-10-21T14:59:00.243657Z,1697900340243
1.145505428314209,0.7671733498573303,-0.8354167938232422,2023-10-21T14:59:00.250512Z,1697900340250
1.0788582563400269,0.6397323608398438,-0.822380006313324,2023-10-21T14:59:00.261482Z,1697900340261
1.000504732131958,0.5184106826782227,-0.7981688976287842,2023-10-21T14:59:00.270735Z,1697900340270
0.9035272002220154,0.3985523581504822,-0.7548017501831055,2023-10-21T14:59:00.281776Z,1697900340281
0.7852652072906494,0.27590039372444153,-0.6874895095825195,2023-10-21T14:59:00.293286Z,1697900340293
0.6470489501953125,0.14633096754550934,-0.5935716032981873,2023-10-21T14:59:00.301865Z,1697900340301
0.49207112193107605,0.007449576631188393,-0.4742453694343567,2023-10-21T14:59:00.311391Z,1697900340311
0.32512080669403076,-0.13861533999443054,-0.3365612328052521,2023-10-21T14:59:00.322114Z,1697900340322
0.15404659509658813,-0.28454720973968506,-0.19102843105793,2023-10-21T14:59:00.331588Z,1697900340331
-0.01223859004676342,-0.42076805233955383,-0.04669288173317909,2023-10-21T14:59:00.343569Z,1697900340343
-0.16695033013820648,-0.5382319092750549,0.09099125862121582,2023-10-21T14:59:00.351877Z,1697900340351
-0.3078271448612213,-0.6316176652908325,0.2194964438676834,2023-10-21T14:59:00.362931Z,1697900340362
-0.4335387349128723,-0.7006592750549316,0.33443278074264526,2023-10-21T14:59:00.372003Z,1697900340371
-0.5431539416313171,-0.7504118084907532,0.43061211705207825,2023-10-21T14:59:00.383106Z,1697900340383
-0.636406660079956,-0.790054202079773,0.5016491413116455,2023-10-21T14:59:00.393106Z,1697900340393
-0.7101042866706848,-0.8258387446403503,0.5403603315353394,2023-10-21T14:59:00.403201Z,1697900340403
-0.7613201141357422,-0.8610912561416626,0.5424888134002686,2023-10-21T14:59:00.412642Z,1697900340412
-0.7899211645126343,-0.8982060551643372,0.5088326930999756,2023-10-21T14:59:00.427344Z,1697900340427
-0.8008294701576233,-0.937715470790863,0.44644248485565186,2023-10-21T14:59:00.432969Z,1697900340432
-0.7997652292251587,-0.9780229926109314,0.36569440364837646,2023-10-21T14:59:00.443833Z,1697900340443
-0.7905862927436829,-1.0134084224700928,0.2772306799888611,2023-10-21T14:59:00.453133Z,1697900340453
-0.7774165272712708,-1.0390828847885132,0.19235870242118835,2023-10-21T14:59:00.464149Z,1697900340464
-0.7654439806938171,-1.0530508756637573,0.12039047479629517,2023-10-21T14:59:00.476487Z,1697900340476
-0.7591916918754578,-1.056376576423645,0.06837646663188934,2023-10-21T14:59:00.484241Z,1697900340484
-0.7601228356361389,-1.049991250038147,0.03804605081677437,2023-10-21T14:59:00.493661Z,1697900340493
-0.7650449275970459,-1.0326975584030151,0.025674432516098022,2023-10-21T14:59:00.504569Z,1697900340504
-0.7697008848190308,-1.0042295455932617,0.025674432516098022,2023-10-21T14:59:00.514016Z,1697900340513
-0.7731596231460571,-0.967779815196991,0.03418823331594467,2023-10-21T14:59:00.527997Z,1697900340527
-0.7770174145698547,-0.9284034967422485,0.04922041669487953,2023-10-21T14:59:00.534202Z,1697900340534
-0.7810083031654358,-0.8890271186828613,0.06811041384935379,2023-10-21T14:59:00.545224Z,1697900340545
-0.782338559627533,-0.8481875061988831,0.08806463330984116,2023-10-21T14:59:00.554426Z,1697900340554
-0.7791458964347839,-0.8036230802536011,0.10761977732181549,2023-10-21T14:59:00.565467Z,1697900340565
-0.7720953822135925,-0.7542695999145508,0.12757399678230286,2023-10-21T14:59:00.576226Z,1697900340576
-0.7645127773284912,-0.7007923126220703,0.14939060807228088,2023-10-21T14:59:00.585525Z,1697900340585
-0.7573292851448059,-0.6425259709358215,0.1717393398284912,2023-10-21T14:59:00.594995Z,1697900340594
-0.7480173110961914,-0.5761449337005615,0.19076237082481384,2023-10-21T14:59:00.609730Z,1697900340609
-0.7324529886245728,-0.4983234703540802,0.20233581960201263,2023-10-21T14:59:00.615353Z,1697900340615
-0.7103703022003174,-0.41079092025756836,0.20486335456371307,2023-10-21T14:59:00.626751Z,1697900340626
-0.6864252686500549,-0.3205978572368622,0.1998082846403122,2023-10-21T14:59:00.635569Z,1697900340635
-0.6644756197929382,-0.23506075143814087,0.18956512212753296,2023-10-21T14:59:00.646543Z,1697900340646
-0.6451865434646606,-0.15817047655582428,0.1755971610546112,2023-10-21T14:59:00.655663Z,1697900340655
-0.6261634826660156,-0.09139034152030945,0.159101665019989,2023-10-21T14:59:00.666811Z,1697900340666
-0.6056771874427795,-0.035917602479457855,0.1415419578552246,2023-10-21T14:59:00.676252Z,1697900340676
-0.5839936137199402,0.006784435827285051,0.12491343170404434,2023-10-21T14:59:00.686849Z,1697900340686
-0.5619109272956848,0.0351194329559803,0.11014731228351593,2023-10-21T14:59:00.696356Z,1697900340696
-0.5402273535728455,0.048156190663576126,0.09804175049066544,2023-10-21T14:59:00.710055Z,1697900340710
-0.5200070738792419,0.045362599194049835,0.08886280655860901,2023-10-21T14:59:00.716642Z,1697900340716
-0.5019152164459229,0.026871686801314354,0.08327562361955643,2023-10-21T14:59:00.727699Z,1697900340727
-0.48595184087753296,-0.00611929502338171,0.08221139758825302,2023-10-21T14:59:00.736829Z,1697900340736
-0.47185084223747253,-0.05094978213310242,0.0867343544960022,2023-10-21T14:59:00.747896Z,1697900340747
-0.4589471220970154,-0.10402801632881165,0.09750963747501373,2023-10-21T14:59:00.759645Z,1697900340759
-0.4467085301876068,-0.16162919998168945,0.1136060431599617,2023-10-21T14:59:00.767934Z,1697900340767
-0.43433693051338196,-0.21962948143482208,0.1332942098379135,2023-10-21T14:59:00.777352Z,1697900340777
-0.42063501477241516,-0.2735058665275574,0.15338145196437836,2023-10-21T14:59:00.788174Z,1697900340788
-0.40467163920402527,-0.31913453340530396,0.17080815136432648,2023-10-21T14:59:00.797667Z,1697900340797
-0.38604769110679626,-0.3545200228691101,0.18331278860569,2023-10-21T14:59:00.809936Z,1697900340809
-0.3659604489803314,-0.3797953724861145,0.1899642050266266,2023-10-21T14:59:00.817897Z,1697900340817
-0.3457401692867279,-0.39602482318878174,0.19142751395702362,2023-10-21T14:59:00.829011Z,1697900340828
-0.32698318362236023,-0.40427255630493164,0.18916603922843933,2023-10-21T14:59:00.838065Z,1697900340838
-0.31035467982292175,-0.4049376845359802,0.18504215776920319,2023-10-21T14:59:00.849191Z,1697900340849
-0.2954555153846741,-0.3984193205833435,0.18145039677619934,2023-10-21T14:59:00.859464Z,1697900340859
-0.28135454654693604,-0.3857816457748413,0.17985406517982483,2023-10-21T14:59:00.869254Z,1697900340869
-0.26751962304115295,-0.36902010440826416,0.1817164570093155,2023-10-21T14:59:00.878748Z,1697900340878
-0.25381770730018616,-0.35039615631103516,0.1877027153968811,2023-10-21T14:59:00.889555Z,1697900340889
-0.24011582136154175,-0.3319052457809448,0.19794589281082153,2023-10-21T14:59:00.899002Z,1697900340898
-0.2277441918849945,-0.31474462151527405,0.2135101854801178,2023-10-21T14:59:00.909866Z,1697900340909
-0.21883131563663483,-0.29944637417793274,0.23572587966918945,2023-10-21T14:59:00.919241Z,1697900340919
-0.21390926837921143,-0.28561145067214966,0.2645930051803589,2023-10-21T14:59:00.930221Z,1697900340930
-0.2112487107515335,-0.27031320333480835,0.2986482083797455,2023-10-21T14:59:00.942861Z,1697900340942
-0.20832209289073944,-0.24982686340808868,0.3357630670070648,2023-10-21T14:59:00.950278Z,1697900340950
-0.20406518876552582,-0.2222900390625,0.3748733401298523,2023-10-21T14:59:00.959702Z,1697900340959
-0.19994130730628967,-0.18889997899532318,0.41518086194992065,2023-10-21T14:59:00.970527Z,1697900340970
-0.19728074967861176,-0.15205118060112,0.45575445890426636,2023-10-21T14:59:00.980072Z,1697900340979
-0.19688166677951813,-0.11440420895814896,0.49539685249328613,2023-10-21T14:59:00.993184Z,1697900340993
-0.1970146894454956,-0.07702329754829407,0.5314474701881409,2023-10-21T14:59:01.000305Z,1697900341000
-0.19515229761600494,-0.04017450287938118,0.5605806112289429,2023-10-21T14:59:01.011325Z,1697900341011
-0.19076237082481384,-0.0055871824733912945,0.5814660787582397,2023-10-21T14:59:01.020527Z,1697900341020
-0.1866385042667389,0.023412954062223434,0.5951679348945618,2023-10-21T14:59:01.031725Z,1697900341031
-0.18504215776920319,0.04522957280278206,0.604080855846405,2023-10-21T14:59:01.042934Z,1697900341042
-0.1866385042667389,0.060128726065158844,0.6107322573661804,2023-10-21T14:59:01.051698Z,1697900341051
-0.1904963105916977,0.06904160976409912,0.6165854930877686,2023-10-21T14:59:01.061153Z,1697900341061
-0.19608350098133087,0.07396364957094193,0.6231038570404053,2023-10-21T14:59:01.071894Z,1697900341071
-0.20220279693603516,0.07768844068050385,0.6314846277236938,2023-10-21T14:59:01.081372Z,1697900341081
-0.20778997242450714,0.08433984965085983,0.6427920460700989,2023-10-21T14:59:01.093136Z,1697900341093
-0.2135101854801178,0.09471604228019714,0.6590214371681213,2023-10-21T14:59:01.101591Z,1697900341101
-0.22082673013210297,0.10761977732181549,0.6821683645248413,2023-10-21T14:59:01.112795Z,1697900341112
-0.2305377870798111,0.12052350491285324,0.7126318216323853,2023-10-21T14:59:01.121739Z,1697900341121
-0.24304243922233582,0.13103273510932922,0.7488154768943787,2023-10-21T14:59:01.133002Z,1697900341132
-0.2591388523578644,0.1367529332637787,0.7883248329162598,2023-10-21T14:59:01.142998Z,1697900341142
-0.2793591320514679,0.13515660166740417,0.8283662796020508,2023-10-21T14:59:01.152990Z,1697900341152
-0.3023729920387268,0.12478040903806686,0.8654811382293701,2023-10-21T14:59:01.162464Z,1697900341162
-0.32698318362236023,0.10615646839141846,0.8963437080383301,2023-10-21T14:59:01.176662Z,1697900341176
-0.3529236912727356,0.08088111877441406,0.9193575382232666,2023-10-21T14:59:01.182664Z,1697900341182
-0.38112565875053406,0.050683725625276566,0.9343897104263306,2023-10-21T14:59:01.193828Z,1697900341193
-0.4133184552192688,0.017426688224077225,0.9435687065124512,2023-10-21T14:59:01.202913Z,1697900341202
-0.44857093691825867,-0.016229433938860893,0.9498209953308105,2023-10-21T14:59:01.213985Z,1697900341213
-0.4834243059158325,-0.04682590812444687,0.9562063813209534,2023-10-21T14:59:01.226292Z,1697900341226
-0.5156171321868896,-0.07236731797456741,0.9659174084663391,2023-10-21T14:59:01.234037Z,1697900341234
-0.5487411022186279,-0.09431695938110352,0.9833440780639648,2023-10-21T14:59:01.243436Z,1697900341243
-0.5879844427108765,-0.1169317439198494,1.0120781660079956,2023-10-21T14:59:01.254254Z,1697900341254
-0.6352094411849976,-0.14367040991783142,1.0529178380966187,2023-10-21T14:59:01.263779Z,1697900341263
-0.688686728477478,-0.17626230418682098,1.1037346124649048,2023-10-21T14:59:01.276508Z,1697900341276
-0.7481503486633301,-0.21750102937221527,1.1604045629501343,2023-10-21T14:59:01.283975Z,1697900341283
-0.8157286047935486,-0.27097833156585693,1.2202672958374023,2023-10-21T14:59:01.295363Z,1697900341295
-0.8924858570098877,-0.3390887677669525,1.2819923162460327,2023-10-21T14:59:01.304205Z,1697900341304
-0.9772248268127441,-0.42023593187332153,1.3453136682510376,2023-10-21T14:59:01.315330Z,1697900341315
-1.0675508975982666,-0.5101629495620728,1.4107635021209717,2023-10-21T14:59:01.325634Z,1697900341325
-1.161468744277954,-0.6051450371742249,1.4790070056915283,2023-10-21T14:59:01.335439Z,1697900341335
-1.256450891494751,-0.7011913657188416,1.5513743162155151,2023-10-21T14:59:01.344839Z,1697900341344
-1.3489054441452026,-0.7933799028396606,1.6283975839614868,2023-10-21T14:59:01.355611Z,1697900341355
-1.4345755577087402,-0.8767885565757751,1.7098108530044556,2023-10-21T14:59:01.365098Z,1697900341365
-1.5108007192611694,-0.9479585886001587,1.7940176725387573,2023-10-21T14:59:01.376106Z,1697900341376
-1.5769157409667969,-1.0070230960845947,1.8795547485351562,2023-10-21T14:59:01.385289Z,1697900341385
-1.6334526538848877,-1.0565096139907837,1.9657570123672485,2023-10-21T14:59:01.396392Z,1697900341396
-1.6817419528961182,-1.1001428365707397,2.05302357673645,2023-10-21T14:59:01.409093Z,1697900341409
-1.7239118814468384,-1.1421797275543213,2.142019271850586,2023-10-21T14:59:01.416421Z,1697900341416
-1.7607606649398804,-1.185147762298584,2.23420786857605,2023-10-21T14:59:01.425778Z,1697900341425
-1.7910910844802856,-1.2289140224456787,2.3303871154785156,2023-10-21T14:59:01.436674Z,1697900341436
-1.8111783266067505,-1.2705519199371338,2.4298923015594482,2023-10-21T14:59:01.446109Z,1697900341446
-1.81636643409729,-1.305538296699524,2.5295302867889404,2023-10-21T14:59:01.459467Z,1697900341459
-1.8026645183563232,-1.3294833898544312,2.6235811710357666,2023-10-21T14:59:01.466339Z,1697900341466
-1.7682101726531982,-1.3393274545669556,2.7060587406158447,2023-10-21T14:59:01.477336Z,1697900341477
-1.7157970666885376,-1.3342723846435547,2.770843267440796,2023-10-21T14:59:01.486646Z,1697900341486
-1.6528748273849487,-1.3171117305755615,2.8143436908721924,2023-10-21T14:59:01.497630Z,1697900341497
-1.5902185440063477,-1.2943639755249023,2.8362932205200195,2023-10-21T14:59:01.509116Z,1697900341509
-1.5394017696380615,-1.2741436958312988,2.839751958847046,2023-10-21T14:59:01.517738Z,1697900341517
-1.508805274963379,-1.2631022930145264,2.830440044403076,2023-10-21T14:59:01.527185Z,1697900341527
-1.4998924732208252,-1.2635014057159424,2.8131463527679443,2023-10-21T14:59:01.537989Z,1697900341537
-1.5082732439041138,-1.2741436958312988,2.789999485015869,2023-10-21T14:59:01.547493Z,1697900341547
-1.5284935235977173,-1.2938318252563477,2.7617974281311035,2023-10-21T14:59:01.559232Z,1697900341559
-1.5594890117645264,-1.321900725364685,2.72920560836792,2023-10-21T14:59:01.567676Z,1697900341567
-1.6025902032852173,-1.3572862148284912,2.6924898624420166,2023-10-21T14:59:01.578646Z,1697900341578
-1.656998634338379,-1.3979928493499756,2.651384115219116,2023-10-21T14:59:01.587839Z,1697900341587
-1.7195218801498413,-1.4426902532577515,2.605090379714966,2023-10-21T14:59:01.598943Z,1697900341598
-1.7852377891540527,-1.4892501831054688,2.5528101921081543,2023-10-21T14:59:01.608843Z,1697900341608
-1.8470958471298218,-1.533814549446106,2.4925484657287598,2023-10-21T14:59:01.619041Z,1697900341619
-1.8931236267089844,-1.5681358575820923,2.4172544479370117,2023-10-21T14:59:01.628510Z,1697900341628
-1.9113484621047974,-1.5811725854873657,2.316951274871826,2023-10-21T14:59:01.639218Z,1697900341639
-1.8948529958724976,-1.5630807876586914,2.182459831237793,2023-10-21T14:59:01.648755Z,1697900341648
-1.8429720401763916,-1.507741093635559,2.0071287155151367,2023-10-21T14:59:01.659524Z,1697900341659
-1.7610266208648682,-1.4147543907165527,1.7888295650482178,2023-10-21T14:59:01.668891Z,1697900341668
-1.6571316719055176,-1.2862491607666016,1.5300898551940918,2023-10-21T14:59:01.679787Z,1697900341679
-1.5427274703979492,-1.1311383247375488,1.2411526441574097,2023-10-21T14:59:01.690741Z,1697900341690
-1.4255297183990479,-0.9635229110717773,0.9366512298583984,2023-10-21T14:59:01.700262Z,1697900341700
-1.3092631101608276,-0.800430417060852,0.634145200252533,2023-10-21T14:59:01.709700Z,1697900341709
-1.194592833518982,-0.6564939022064209,0.34986403584480286,2023-10-21T14:59:01.720436Z,1697900341720
-1.0976152420043945,-0.5565897822380066,0.10549132525920868,2023-10-21T14:59:01.729892Z,1697900341729
-1.0603673458099365,-0.5394291281700134,-0.06811041384935379,2023-10-21T14:59:01.743347Z,1697900341743
-1.1335328817367554,-0.6316176652908325,-0.15298236906528473,2023-10-21T14:59:01.749978Z,1697900341749
-1.3379971981048584,-0.8221139907836914,-0.16495491564273834,2023-10-21T14:59:01.760857Z,1697900341760
-1.6385077238082886,-1.0545141696929932,-0.15630808472633362,2023-10-21T14:59:01.770242Z,1697900341770
-1.9717432260513306,-1.2583132982254028,-0.18198251724243164,2023-10-21T14:59:01.781348Z,1697900341781
-2.263340950012207,-1.355556845664978,-0.29332706332206726,2023-10-21T14:59:01.792579Z,1697900341792
-2.435213327407837,-1.2611068487167358,-0.5483420491218567,2023-10-21T14:59:01.801503Z,1697900341801
-2.385061740875244,-0.8952794671058655,-1.0094176530838013,2023-10-21T14:59:01.810907Z,1697900341810
-1.9807891845703125,-0.20938630402088165,-1.7308292388916016,2023-10-21T14:59:01.821662Z,1697900341821
-1.1556155681610107,0.7474851608276367,-2.6930220127105713,2023-10-21T14:59:01.831122Z,1697900341831
-0.006252323277294636,1.8199580907821655,-3.7583112716674805,2023-10-21T14:59:01.842754Z,1697900341842
1.198184609413147,2.7833480834960938,-4.692036151885986,2023-10-21T14:59:01.851395Z,1697900341851
2.155189037322998,3.370800256729126,-5.048950672149658,2023-10-21T14:59:01.862515Z,1697900341862
2.751953363418579,3.6626641750335693,-5.291860103607178,2023-10-21T14:59:01.871542Z,1697900341871
3.0217344760894775,3.6822192668914795,-5.330571174621582,2023-10-21T14:59:01.882660Z,1697900341882
3.083326578140259,3.5428056716918945,-5.270176410675049,2023-10-21T14:59:01.892109Z,1697900341892
3.0569870471954346,3.3529746532440186,-5.184505939483643,2023-10-21T14:59:01.902710Z,1697900341902
3.027188539505005,3.1928086280822754,-5.109212398529053,2023-10-21T14:59:01.912121Z,1697900341912
3.0378308296203613,3.108468770980835,-5.049748420715332,2023-10-21T14:59:01.925790Z,1697900341925
3.152900218963623,3.1687304973602295,-5.239047527313232,2023-10-21T14:59:01.932464Z,1697900341932
3.2360427379608154,3.235377788543701,-5.141538143157959,2023-10-21T14:59:01.943421Z,1697900341943
3.308011054992676,3.3278322219848633,-4.992679595947266,2023-10-21T14:59:01.952669Z,1697900341952
3.338341474533081,3.4057867527008057,-4.787017822265625,2023-10-21T14:59:01.963746Z,1697900341963
3.317988157272339,3.4495530128479004,-4.541315078735352,2023-10-21T14:59:01.975324Z,1697900341975
3.255465030670166,3.4627227783203125,-4.281909942626953,2023-10-21T14:59:01.983788Z,1697900341983
3.167001247406006,3.462589740753174,-4.030487060546875,2023-10-21T14:59:01.993221Z,1697900341993
3.0653676986694336,3.464984178543091,-3.796889543533325,2023-10-21T14:59:02.004117Z,1697900342004
2.9540231227874756,3.471768617630005,-3.579521417617798,2023-10-21T14:59:02.013505Z,1697900342013
2.8319032192230225,3.4740302562713623,-3.3742589950561523,2023-10-21T14:59:02.025698Z,1697900342025
2.699939489364624,3.4595301151275635,-3.181767225265503,2023-10-21T14:59:02.033775Z,1697900342033
2.564915895462036,3.422415256500244,-3.0080325603485107,2023-10-21T14:59:02.044857Z,1697900342044
2.43388295173645,3.3610892295837402,-2.858242988586426,2023-10-21T14:59:02.053982Z,1697900342053
2.309767723083496,3.2752861976623535,-2.732398271560669,2023-10-21T14:59:02.065025Z,1697900342065
2.1917717456817627,3.1667351722717285,-2.6239802837371826,2023-10-21T14:59:02.075639Z,1697900342075
2.0781657695770264,3.0410234928131104,-2.5238101482391357,2023-10-21T14:59:02.085098Z,1697900342085
1.9682844877243042,2.905068874359131,-2.423107862472534,2023-10-21T14:59:02.094579Z,1697900342094
1.8625271320343018,2.764857053756714,-2.314290761947632,2023-10-21T14:59:02.109116Z,1697900342109
1.760893702507019,2.619856357574463,-2.1942994594573975,2023-10-21T14:59:02.114801Z,1697900342114
1.6627188920974731,2.465277671813965,-2.064729928970337,2023-10-21T14:59:02.125704Z,1697900342125
1.5693330764770508,2.2980613708496094,-1.9325000047683716,2023-10-21T14:59:02.135014Z,1697900342134
1.4841951131820679,2.119537591934204,-1.8070544004440308,2023-10-21T14:59:02.146045Z,1697900342146
