ACC_X,ACC_Y,ACC_Z,DATE,UNIX_TIMESTAMP
0.18192148208618164,0.23681926727294922,-0.07294678688049316,2023-10-21T14:59:41.840411Z,1697900381840
0.1325697898864746,0.17438030242919922,-0.0516970157623291,2023-10-21T14:59:41.864166Z,1697900381864
0.12060022354125977,0.15785694122314453,-0.04781198501586914,2023-10-21T14:59:41.881016Z,1697900381880
0.12858295440673828,0.16680622100830078,-0.05106306076049805,2023-10-21T14:59:41.901259Z,1697900381901
0.17568063735961914,0.2250051498413086,-0.07278990745544434,2023-10-21T14:59:41.921513Z,1697900381921
0.16282320022583008,0.21106910705566406,-0.06811165809631348,2023-10-21T14:59:41.941759Z,1697900381941
0.12419939041137695,0.16309499740600586,-0.05101656913757324,2023-10-21T14:59:41.963556Z,1697900381963
0.13110017776489258,0.1715989112854004,-0.053674936294555664,2023-10-21T14:59:41.982336Z,1697900381982
0.15869808197021484,0.20455503463745117,-0.06566596031188965,2023-10-21T14:59:42.002580Z,1697900382002
0.14858675003051758,0.19118309020996094,-0.06406402587890625,2023-10-21T14:59:42.022827Z,1697900382022
0.14026165008544922,0.18211984634399414,-0.05781698226928711,2023-10-21T14:59:42.043127Z,1697900382043
0.1395101547241211,0.18087387084960938,-0.05822634696960449,2023-10-21T14:59:42.063443Z,1697900382063
0.14488554000854492,0.18744659423828125,-0.06097722053527832,2023-10-21T14:59:42.083698Z,1697900382083
0.15356922149658203,0.19821882247924805,-0.06486082077026367,2023-10-21T14:59:42.103963Z,1697900382103
0.15710067749023438,0.20268535614013672,-0.0662393569946289,2023-10-21T14:59:42.124188Z,1697900382124
0.16008424758911133,0.2064380645751953,-0.06727719306945801,2023-10-21T14:59:42.146542Z,1697900382146
0.1651778221130371,0.21289396286010742,-0.0692758560180664,2023-10-21T14:59:42.164720Z,1697900382164
0.16519975662231445,0.21321582794189453,-0.06911873817443848,2023-10-21T14:59:42.185039Z,1697900382185
0.15540695190429688,0.201629638671875,-0.0648655891418457,2023-10-21T14:59:42.205289Z,1697900382205
0.14134788513183594,0.18480443954467773,-0.05864548683166504,2023-10-21T14:59:42.225490Z,1697900382225
0.13020610809326172,0.1714768409729004,-0.05347633361816406,2023-10-21T14:59:42.246475Z,1697900382246
0.1226806640625,0.16233253479003906,-0.049666404724121094,2023-10-21T14:59:42.266289Z,1697900382266
0.11409902572631836,0.15134763717651367,-0.04538774490356445,2023-10-21T14:59:42.286347Z,1697900382286
0.10977983474731445,0.1453561782836914,-0.04286050796508789,2023-10-21T14:59:42.306545Z,1697900382306
0.11686563491821289,0.1542987823486328,-0.045006513595581055,2023-10-21T14:59:42.329363Z,1697900382329
0.12604665756225586,0.1661524772644043,-0.048458099365234375,2023-10-21T14:59:42.347078Z,1697900382347
0.12756681442260742,0.16880130767822266,-0.049627065658569336,2023-10-21T14:59:42.367400Z,1697900382367
0.12177658081054688,0.16202497482299805,-0.04829978942871094,2023-10-21T14:59:42.387651Z,1697900382387
0.12221002578735352,0.16286706924438477,-0.04915118217468262,2023-10-21T14:59:42.407862Z,1697900382407
0.13636445999145508,0.1810469627380371,-0.05523276329040527,2023-10-21T14:59:42.429882Z,1697900382429
0.15252351760864258,0.20143556594848633,-0.06213212013244629,2023-10-21T14:59:42.448423Z,1697900382448
0.16300535202026367,0.21470403671264648,-0.06689310073852539,2023-10-21T14:59:42.468750Z,1697900382468
0.17088603973388672,0.22510385513305664,-0.07091116905212402,2023-10-21T14:59:42.488933Z,1697900382488
0.1717376708984375,0.2273111343383789,-0.07241201400756836,2023-10-21T14:59:42.509121Z,1697900382509
0.1424579620361328,0.1868724822998047,-0.05831313133239746,2023-10-21T14:59:42.529485Z,1697900382529
0.14279890060424805,0.1875462532043457,-0.05854201316833496,2023-10-21T14:59:42.549774Z,1697900382549
0.1430373191833496,0.18808746337890625,-0.058676958084106445,2023-10-21T14:59:42.570006Z,1697900382569
0.14350318908691406,0.18890905380249023,-0.05884718894958496,2023-10-21T14:59:42.590235Z,1697900382590
0.14422321319580078,0.1900496482849121,-0.0590817928314209,2023-10-21T14:59:42.612535Z,1697900382612
0.14502334594726562,0.19129610061645508,-0.05934786796569824,2023-10-21T14:59:42.630782Z,1697900382630
0.1456456184387207,0.19232845306396484,-0.0595552921295166,2023-10-21T14:59:42.651094Z,1697900382651
0.14578676223754883,0.19275283813476562,-0.059576988220214844,2023-10-21T14:59:42.671415Z,1697900382671
0.1454629898071289,0.19256925582885742,-0.05941271781921387,2023-10-21T14:59:42.691544Z,1697900382691
0.1451573371887207,0.19236135482788086,-0.05924367904663086,2023-10-21T14:59:42.712311Z,1697900382712
0.1454639434814453,0.19288015365600586,-0.0593259334564209,2023-10-21T14:59:42.732107Z,1697900382732
0.14642763137817383,0.19419431686401367,-0.059694528579711914,2023-10-21T14:59:42.752410Z,1697900382752
0.14772319793701172,0.19592523574829102,-0.06024575233459473,2023-10-21T14:59:42.772615Z,1697900382772
0.1488656997680664,0.1974782943725586,-0.060805559158325195,2023-10-21T14:59:42.792833Z,1697900382792
0.14946651458740234,0.19832944869995117,-0.06121420860290527,2023-10-21T14:59:42.813222Z,1697900382813
0.1491713523864746,0.19794368743896484,-0.061307668685913086,2023-10-21T14:59:42.833498Z,1697900382833
0.14812231063842773,0.19643545150756836,-0.061098337173461914,2023-10-21T14:59:42.853841Z,1697900382853
0.14675045013427734,0.19431400299072266,-0.06071877479553223,2023-10-21T14:59:42.873935Z,1697900382873
0.1453394889831543,0.19196033477783203,-0.06026959419250488,2023-10-21T14:59:42.895481Z,1697900382895
0.1437835693359375,0.1892833709716797,-0.05973935127258301,2023-10-21T14:59:42.914502Z,1697900382914
0.1414041519165039,0.18545198440551758,-0.058862924575805664,2023-10-21T14:59:42.934778Z,1697900382934
0.1378765106201172,0.18005800247192383,-0.057454586029052734,2023-10-21T14:59:42.955048Z,1697900382954
0.1336350440979004,0.17363405227661133,-0.05564618110656738,2023-10-21T14:59:42.975243Z,1697900382975
0.1296710968017578,0.16742897033691406,-0.0538177490234375,2023-10-21T14:59:42.995742Z,1697900382995
0.12665653228759766,0.16231489181518555,-0.05227351188659668,2023-10-21T14:59:43.015842Z,1697900383015
0.12513303756713867,0.15903139114379883,-0.051279306411743164,2023-10-21T14:59:43.036091Z,1697900383036
0.12441062927246094,0.15675783157348633,-0.050600528717041016,2023-10-21T14:59:43.056301Z,1697900383056
0.12380504608154297,0.15468168258666992,-0.05000925064086914,2023-10-21T14:59:43.079384Z,1697900383079
0.12273693084716797,0.15211200714111328,-0.049306392669677734,2023-10-21T14:59:43.096868Z,1697900383096
0.12033653259277344,0.14801263809204102,-0.0481410026550293,2023-10-21T14:59:43.117167Z,1697900383117
0.11661052703857422,0.1424083709716797,-0.04650592803955078,2023-10-21T14:59:43.137432Z,1697900383137
0.11229181289672852,0.13618087768554688,-0.04469180107116699,2023-10-21T14:59:43.157670Z,1697900383157
0.10802316665649414,0.13011598587036133,-0.042964935302734375,2023-10-21T14:59:43.179142Z,1697900383179
0.10379838943481445,0.12420511245727539,-0.04131007194519043,2023-10-21T14:59:43.198270Z,1697900383198
0.09935903549194336,0.11814594268798828,-0.03960275650024414,2023-10-21T14:59:43.218491Z,1697900383218
0.09440946578979492,0.11155891418457031,-0.03767538070678711,2023-10-21T14:59:43.238756Z,1697900383238
0.08975839614868164,0.10535430908203125,-0.03582286834716797,2023-10-21T14:59:43.258873Z,1697900383258
0.08625364303588867,0.10046577453613281,-0.034356117248535156,2023-10-21T14:59:43.279335Z,1697900383279
0.08449506759643555,0.09754133224487305,-0.0335087776184082,2023-10-21T14:59:43.299642Z,1697900383299
0.08488178253173828,0.09702682495117188,-0.033448219299316406,2023-10-21T14:59:43.319810Z,1697900383319
0.08683156967163086,0.09823083877563477,-0.03394007682800293,2023-10-21T14:59:43.340035Z,1697900383339
0.08952045440673828,0.10020017623901367,-0.03466796875,2023-10-21T14:59:43.362600Z,1697900383362
0.09229421615600586,0.10217857360839844,-0.035395145416259766,2023-10-21T14:59:43.380594Z,1697900383380
0.09491872787475586,0.10389947891235352,-0.03607034683227539,2023-10-21T14:59:43.400872Z,1697900383400
0.09708929061889648,0.10506200790405273,-0.036608219146728516,2023-10-21T14:59:43.421152Z,1697900383421
0.09833478927612305,0.10521841049194336,-0.03687620162963867,2023-10-21T14:59:43.441293Z,1697900383441
0.09876585006713867,0.10456037521362305,-0.03697514533996582,2023-10-21T14:59:43.462505Z,1697900383462
0.09809541702270508,0.1028599739074707,-0.03685259819030762,2023-10-21T14:59:43.481939Z,1697900383481
0.09531021118164062,0.09911489486694336,-0.03612565994262695,2023-10-21T14:59:43.502120Z,1697900383502
0.09029912948608398,0.09321784973144531,-0.034691572189331055,2023-10-21T14:59:43.522387Z,1697900383522
0.08382511138916016,0.08593082427978516,-0.03275585174560547,2023-10-21T14:59:43.545936Z,1697900383545
0.07758951187133789,0.07897424697875977,-0.03092646598815918,2023-10-21T14:59:43.563053Z,1697900383563
0.07225513458251953,0.07300949096679688,-0.029431819915771484,2023-10-21T14:59:43.583293Z,1697900383583
0.06757402420043945,0.06776094436645508,-0.028150320053100586,2023-10-21T14:59:43.603532Z,1697900383603
0.06403923034667969,0.06368350982666016,-0.027283668518066406,2023-10-21T14:59:43.623739Z,1697900383623
0.06210136413574219,0.06118297576904297,-0.02704167366027832,2023-10-21T14:59:43.645908Z,1697900383645
0.061003684997558594,0.059478759765625,-0.027118206024169922,2023-10-21T14:59:43.664289Z,1697900383664
0.060286521911621094,0.05810070037841797,-0.02732992172241211,2023-10-21T14:59:43.684577Z,1697900383684
0.061127662658691406,0.05815839767456055,-0.02824234962463379,2023-10-21T14:59:43.704863Z,1697900383704
0.06512451171875,0.061100006103515625,-0.03068685531616211,2023-10-21T14:59:43.725002Z,1697900383724
0.0737767219543457,0.06821155548095703,-0.03552889823913574,2023-10-21T14:59:43.745651Z,1697900383745
0.0866246223449707,0.07893800735473633,-0.04276108741760254,2023-10-21T14:59:43.765639Z,1697900383765
0.10280561447143555,0.09244012832641602,-0.05220913887023926,2023-10-21T14:59:43.785890Z,1697900383785
0.12150382995605469,0.1080160140991211,-0.0637202262878418,2023-10-21T14:59:43.806149Z,1697900383806
0.1415419578552246,0.1247243881225586,-0.07692718505859375,2023-10-21T14:59:43.829075Z,1697900383829
0.16322660446166992,0.14298152923583984,-0.09223008155822754,2023-10-21T14:59:43.846629Z,1697900383846
0.18695688247680664,0.16330623626708984,-0.11011505126953125,2023-10-21T14:59:43.866965Z,1697900383866
0.21274662017822266,0.18592262268066406,-0.13083934783935547,2023-10-21T14:59:43.887179Z,1697900383887
0.23943424224853516,0.2100377082824707,-0.1538524627685547,2023-10-21T14:59:43.907397Z,1697900383907
0.2651991844177246,0.23423528671264648,-0.17795324325561523,2023-10-21T14:59:43.928818Z,1697900383928
0.28864431381225586,0.2573561668395996,-0.20195531845092773,2023-10-21T14:59:43.947971Z,1697900383947
0.3086714744567871,0.2783699035644531,-0.22469568252563477,2023-10-21T14:59:43.968257Z,1697900383968
0.3253207206726074,0.297121524810791,-0.24570846557617188,2023-10-21T14:59:43.988427Z,1697900383988
0.3397636413574219,0.3144254684448242,-0.26547765731811523,2023-10-21T14:59:44.008666Z,1697900384008
0.35308218002319336,0.33109521865844727,-0.284574031829834,2023-10-21T14:59:44.028984Z,1697900384028
0.36496400833129883,0.346771240234375,-0.30258750915527344,2023-10-21T14:59:44.049292Z,1697900384049
0.3748140335083008,0.3608064651489258,-0.318819522857666,2023-10-21T14:59:44.069524Z,1697900384069
0.38239097595214844,0.3728961944580078,-0.3328824043273926,2023-10-21T14:59:44.089738Z,1697900384089
0.38817310333251953,0.38347291946411133,-0.3451056480407715,2023-10-21T14:59:44.111949Z,1697900384111
0.39277076721191406,0.3931708335876465,-0.3560366630554199,2023-10-21T14:59:44.130313Z,1697900384130
0.39643096923828125,0.40232324600219727,-0.36596155166625977,2023-10-21T14:59:44.150579Z,1697900384150
0.3996310234069824,0.41147279739379883,-0.3753328323364258,2023-10-21T14:59:44.170861Z,1697900384170
0.402493953704834,0.4207744598388672,-0.38422393798828125,2023-10-21T14:59:44.191059Z,1697900384191
0.4042778015136719,0.42946338653564453,-0.39179468154907227,2023-10-21T14:59:44.211940Z,1697900384211
0.40377044677734375,0.43622875213623047,-0.3966646194458008,2023-10-21T14:59:44.231674Z,1697900384231
0.3998904228210449,0.4397001266479492,-0.39744997024536133,2023-10-21T14:59:44.251961Z,1697900384251
0.3926544189453125,0.43950366973876953,-0.3937983512878418,2023-10-21T14:59:44.272157Z,1697900384272
0.38284921646118164,0.43596458435058594,-0.38611888885498047,2023-10-21T14:59:44.295234Z,1697900384295
0.37136077880859375,0.42952919006347656,-0.37497615814208984,2023-10-21T14:59:44.312690Z,1697900384312
0.35863780975341797,0.4203157424926758,-0.3606381416320801,2023-10-21T14:59:44.333005Z,1697900384332
0.34386157989501953,0.4072537422180176,-0.3423304557800293,2023-10-21T14:59:44.353232Z,1697900384353
0.32610511779785156,0.3893427848815918,-0.31946277618408203,2023-10-21T14:59:44.373451Z,1697900384373
0.3050527572631836,0.3664131164550781,-0.29232358932495117,2023-10-21T14:59:44.395092Z,1697900384395
0.2813901901245117,0.33943891525268555,-0.26223087310791016,2023-10-21T14:59:44.414044Z,1697900384414
0.25734758377075195,0.31114959716796875,-0.23186588287353516,2023-10-21T14:59:44.434305Z,1697900384434
0.23563623428344727,0.2849607467651367,-0.20412492752075195,2023-10-21T14:59:44.454500Z,1697900384454
0.21822261810302734,0.26346540451049805,-0.18087482452392578,2023-10-21T14:59:44.474716Z,1697900384474
0.20562314987182617,0.24754905700683594,-0.1624593734741211,2023-10-21T14:59:44.495046Z,1697900384495
0.1971445083618164,0.2365884780883789,-0.1480860710144043,2023-10-21T14:59:44.515391Z,1697900384515
0.1915755271911621,0.22926712036132812,-0.13659954071044922,2023-10-21T14:59:44.535619Z,1697900384535
0.18839550018310547,0.2249608039855957,-0.12742114067077637,2023-10-21T14:59:44.555821Z,1697900384555
0.18681097030639648,0.22261714935302734,-0.11980652809143066,2023-10-21T14:59:44.578340Z,1697900384578
0.1859149932861328,0.22103452682495117,-0.1130528450012207,2023-10-21T14:59:44.596406Z,1697900384596
0.18473386764526367,0.2189936637878418,-0.10655879974365234,2023-10-21T14:59:44.616688Z,1697900384616
0.18200969696044922,0.2150559425354004,-0.09967780113220215,2023-10-21T14:59:44.636937Z,1697900384636
0.17650747299194336,0.20783424377441406,-0.09186601638793945,2023-10-21T14:59:44.657133Z,1697900384657
0.16731786727905273,0.1963348388671875,-0.08281350135803223,2023-10-21T14:59:44.678244Z,1697900384678
0.15434837341308594,0.18051958084106445,-0.07265377044677734,2023-10-21T14:59:44.697732Z,1697900384697
0.13808536529541016,0.16103363037109375,-0.061794281005859375,2023-10-21T14:59:44.718003Z,1697900384717
0.11993980407714844,0.13955116271972656,-0.05100536346435547,2023-10-21T14:59:44.738188Z,1697900384738
0.10135602951049805,0.1177515983581543,-0.040950775146484375,2023-10-21T14:59:44.761550Z,1697900384761
0.0835413932800293,0.0970149040222168,-0.03208136558532715,2023-10-21T14:59:44.778729Z,1697900384778
0.06737089157104492,0.07831048965454102,-0.02461695671081543,2023-10-21T14:59:44.799046Z,1697900384799
0.053202152252197266,0.06198883056640625,-0.01853322982788086,2023-10-21T14:59:44.819337Z,1697900384819
0.041042327880859375,0.048003196716308594,-0.013673067092895508,2023-10-21T14:59:44.839553Z,1697900384839
0.030884265899658203,0.0363011360168457,-0.009884834289550781,2023-10-21T14:59:44.861473Z,1697900384861
0.022569656372070312,0.026679039001464844,-0.006981968879699707,2023-10-21T14:59:44.880123Z,1697900384880
0.015401363372802734,0.018312454223632812,-0.0046395063400268555,2023-10-21T14:59:44.900377Z,1697900384900
0.00879812240600586,0.010518550872802734,-0.0026023387908935547,2023-10-21T14:59:44.920588Z,1697900384920
0.0016264915466308594,0.0019550323486328125,-4.773139953613281E-4,2023-10-21T14:59:44.940849Z,1697900384940
-0.006714344024658203,-0.008098125457763672,0.001967191696166992,2023-10-21T14:59:44.961109Z,1697900384961
-0.015985488891601562,-0.019324779510498047,0.00471806526184082,2023-10-21T14:59:44.981432Z,1697900384981
-0.025667667388916016,-0.031027793884277344,0.007676601409912109,2023-10-21T14:59:45.001696Z,1697900385001
-0.034865379333496094,-0.042034149169921875,0.01061403751373291,2023-10-21T14:59:45.021919Z,1697900385021
-0.04189252853393555,-0.05022907257080078,0.013025045394897461,2023-10-21T14:59:45.044641Z,1697900385044
-0.044745445251464844,-0.05322122573852539,0.014249563217163086,2023-10-21T14:59:45.062461Z,1697900385062
-0.042421817779541016,-0.049967288970947266,0.01386713981628418,2023-10-21T14:59:45.082768Z,1697900385082
-0.035413265228271484,-0.04126596450805664,0.011894702911376953,2023-10-21T14:59:45.102979Z,1697900385102
-0.025450706481933594,-0.029317855834960938,0.00878763198852539,2023-10-21T14:59:45.123245Z,1697900385123
-0.013363838195800781,-0.015199661254882812,0.004738330841064453,2023-10-21T14:59:45.144573Z,1697900385144
0.0015015602111816406,0.0016827583312988281,-5.45501708984375E-4,2023-10-21T14:59:45.163927Z,1697900385163
0.019639968872070312,0.02166748046875,-0.0073392391204833984,2023-10-21T14:59:45.184093Z,1697900385184
0.041179656982421875,0.044602394104003906,-0.015778541564941406,2023-10-21T14:59:45.204306Z,1697900385204
0.06581783294677734,0.06983327865600586,-0.02584075927734375,2023-10-21T14:59:45.224540Z,1697900385224
0.09236955642700195,0.0957951545715332,-0.03710651397705078,2023-10-21T14:59:45.244827Z,1697900385244
0.11972713470458984,0.12107419967651367,-0.0491328239440918,2023-10-21T14:59:45.265147Z,1697900385265
0.14824581146240234,0.14578676223754883,-0.062044382095336914,2023-10-21T14:59:45.285451Z,1697900385285
0.18029117584228516,0.1719369888305664,-0.07688713073730469,2023-10-21T14:59:45.305600Z,1697900385305
0.21973943710327148,0.20269250869750977,-0.09543323516845703,2023-10-21T14:59:45.327812Z,1697900385327
0.26914548873901367,0.23964500427246094,-0.11892485618591309,2023-10-21T14:59:45.346144Z,1697900385346
0.327791690826416,0.28132104873657227,-0.14708256721496582,2023-10-21T14:59:45.366451Z,1697900385366
0.3935823440551758,0.3253765106201172,-0.1788785457611084,2023-10-21T14:59:45.386653Z,1697900385386
0.46395111083984375,0.36942625045776367,-0.2129354476928711,2023-10-21T14:59:45.406846Z,1697900385406
0.5375576019287109,0.4122452735900879,-0.2484292984008789,2023-10-21T14:59:45.427690Z,1697900385427
0.6135673522949219,0.453035831451416,-0.2848048210144043,2023-10-21T14:59:45.447586Z,1697900385447
0.6906032562255859,0.4907855987548828,-0.32118916511535645,2023-10-21T14:59:45.467929Z,1697900385467
0.766507625579834,0.5241122245788574,-0.35620713233947754,2023-10-21T14:59:45.488082Z,1697900385488
0.8387336730957031,0.5514488220214844,-0.38803577423095703,2023-10-21T14:59:45.511207Z,1697900385511
0.9053831100463867,0.5717720985412598,-0.41506505012512207,2023-10-21T14:59:45.528625Z,1697900385528
0.9660844802856445,0.5849103927612305,-0.43627429008483887,2023-10-21T14:59:45.548961Z,1697900385548
1.0218892097473145,0.5915284156799316,-0.4516003131866455,2023-10-21T14:59:45.569110Z,1697900385569
1.0757904052734375,0.5932111740112305,-0.46187877655029297,2023-10-21T14:59:45.589329Z,1697900385589
1.132349967956543,0.5924777984619141,-0.4689209461212158,2023-10-21T14:59:45.611244Z,1697900385611
1.1951799392700195,0.5914912223815918,-0.47386980056762695,2023-10-21T14:59:45.629820Z,1697900385629
1.2655668258666992,0.5912656784057617,-0.4765942096710205,2023-10-21T14:59:45.650127Z,1697900385650
1.3411455154418945,0.5909924507141113,-0.47554445266723633,2023-10-21T14:59:45.670359Z,1697900385670
1.4190435409545898,0.5897555351257324,-0.46936845779418945,2023-10-21T14:59:45.690532Z,1697900385690
1.4963703155517578,0.5869193077087402,-0.457416296005249,2023-10-21T14:59:45.710910Z,1697900385710
1.5700273513793945,0.5820646286010742,-0.43946075439453125,2023-10-21T14:59:45.731245Z,1697900385731
1.6358489990234375,0.5750710964202881,-0.4156227111816406,2023-10-21T14:59:45.751435Z,1697900385751
1.6871261596679688,0.5656068325042725,-0.3856635093688965,2023-10-21T14:59:45.771674Z,1697900385771
1.714249610900879,0.5527353286743164,-0.3492305278778076,2023-10-21T14:59:45.794299Z,1697900385794
1.7056283950805664,0.5346691608428955,-0.306093692779541,2023-10-21T14:59:45.812206Z,1697900385812
1.6512184143066406,0.5093836784362793,-0.2573671340942383,2023-10-21T14:59:45.832530Z,1697900385832
1.548151969909668,0.47588276863098145,-0.2061554193496704,2023-10-21T14:59:45.852768Z,1697900385852
1.401698112487793,0.43422555923461914,-0.15653347969055176,2023-10-21T14:59:45.872956Z,1697900385872
1.2203369140625,0.3840768337249756,-0.1115064024925232,2023-10-21T14:59:45.894120Z,1697900385894
1.0114803314208984,0.32509613037109375,-0.07266879081726074,2023-10-21T14:59:45.913542Z,1697900385913
0.780242919921875,0.2569315433502197,-0.0408821702003479,2023-10-21T14:59:45.933834Z,1697900385933
0.5360927581787109,0.18121552467346191,-0.017526179552078247,2023-10-21T14:59:45.954046Z,1697900385954
0.29353809356689453,0.10177850723266602,-0.0038364529609680176,2023-10-21T14:59:45.977445Z,1697900385977
0.06835460662841797,0.024205684661865234,3.8414448499679565E-4,2023-10-21T14:59:45.994608Z,1697900385994
-0.12884807586669922,-0.046288490295410156,-0.002910822629928589,2023-10-21T14:59:46.014889Z,1697900386014
-0.29535579681396484,-0.10689473152160645,-0.011231184005737305,2023-10-21T14:59:46.035200Z,1697900386035
-0.4368572235107422,-0.15851211547851562,-0.022990286350250244,2023-10-21T14:59:46.055389Z,1697900386055
-0.5599527359008789,-0.20354080200195312,-0.03746521472930908,2023-10-21T14:59:46.077275Z,1697900386077
-0.6676225662231445,-0.24422931671142578,-0.05357694625854492,2023-10-21T14:59:46.095879Z,1697900386095
-0.7584362030029297,-0.28160595893859863,-0.06926262378692627,2023-10-21T14:59:46.116191Z,1697900386116
-0.829925537109375,-0.3158409595489502,-0.08184558153152466,2023-10-21T14:59:46.136396Z,1697900386136
-0.8859491348266602,-0.34868955612182617,-0.08997994661331177,2023-10-21T14:59:46.156601Z,1697900386156
-0.9329299926757812,-0.3830223083496094,-0.09370100498199463,2023-10-21T14:59:46.177161Z,1697900386177
-0.9770293235778809,-0.4221374988555908,-0.09375983476638794,2023-10-21T14:59:46.197252Z,1697900386197
-1.0176467895507812,-0.46634793281555176,-0.09018385410308838,2023-10-21T14:59:46.217470Z,1697900386217
-1.0483779907226562,-0.5121135711669922,-0.08180403709411621,2023-10-21T14:59:46.237723Z,1697900386237
-1.060387134552002,-0.5523161888122559,-0.0673651397228241,2023-10-21T14:59:46.260476Z,1697900386260
-1.0477666854858398,-0.579195499420166,-0.047037363052368164,2023-10-21T14:59:46.278238Z,1697900386278
-1.0092377662658691,-0.5867948532104492,-0.02319437265396118,2023-10-21T14:59:46.298556Z,1697900386298
-0.945988655090332,-0.5716056823730469,6.460952572524548E-4,2023-10-21T14:59:46.318829Z,1697900386318
-0.8598265647888184,-0.5327587127685547,0.020900070667266846,2023-10-21T14:59:46.338997Z,1697900386338
-0.7523355484008789,-0.47185611724853516,0.03491401672363281,2023-10-21T14:59:46.360419Z,1697900386360
-0.6243734359741211,-0.39228105545043945,0.04131728410720825,2023-10-21T14:59:46.379648Z,1697900386379
-0.4738888740539551,-0.29630184173583984,0.03962290287017822,2023-10-21T14:59:46.399909Z,1697900386399
-0.2976655960083008,-0.1845541000366211,0.029564738273620605,2023-10-21T14:59:46.420131Z,1697900386420
-0.09540271759033203,-0.05854225158691406,0.010865390300750732,2023-10-21T14:59:46.440355Z,1697900386440
0.1256103515625,0.07626914978027344,-0.01599264144897461,2023-10-21T14:59:46.460617Z,1697900386460
0.3516845703125,0.21185731887817383,-0.0489426851272583,2023-10-21T14:59:46.480904Z,1697900386480
0.5667839050292969,0.3409852981567383,-0.08451986312866211,2023-10-21T14:59:46.501182Z,1697900386501
0.7584514617919922,0.45998382568359375,-0.11945545673370361,2023-10-21T14:59:46.521380Z,1697900386521
0.9203519821166992,0.568443775177002,-0.15227878093719482,2023-10-21T14:59:46.543666Z,1697900386543
1.052454948425293,0.6680135726928711,-0.18349695205688477,2023-10-21T14:59:46.561959Z,1697900386561
1.156259536743164,0.7590336799621582,-0.21362173557281494,2023-10-21T14:59:46.582276Z,1697900386582
1.2299394607543945,0.8381319046020508,-0.24125361442565918,2023-10-21T14:59:46.602606Z,1697900386602
1.2687397003173828,0.8994059562683105,-0.26313698291778564,2023-10-21T14:59:46.622732Z,1697900386622
1.2699880599975586,0.9382615089416504,-0.2761577367782593,2023-10-21T14:59:46.643356Z,1697900386643
1.2398242950439453,0.9563899040222168,-0.28034543991088867,2023-10-21T14:59:46.663330Z,1697900386663
1.1897211074829102,0.9591784477233887,-0.278195858001709,2023-10-21T14:59:46.683588Z,1697900386683
1.131728172302246,0.9531402587890625,-0.27297139167785645,2023-10-21T14:59:46.703772Z,1697900386703
1.0724153518676758,0.9421505928039551,-0.26650309562683105,2023-10-21T14:59:46.726705Z,1697900386726
1.0133185386657715,0.9273123741149902,-0.25885677337646484,2023-10-21T14:59:46.744310Z,1697900386744
0.9537825584411621,0.908604621887207,-0.24939465522766113,2023-10-21T14:59:46.764635Z,1697900386764
0.8936800956726074,0.8865079879760742,-0.23794150352478027,2023-10-21T14:59:46.784839Z,1697900386784
0.8349761962890625,0.8630499839782715,-0.22543120384216309,2023-10-21T14:59:46.805065Z,1697900386805
0.7798342704772949,0.8403830528259277,-0.21318507194519043,2023-10-21T14:59:46.826716Z,1697900386826
0.7294611930847168,0.8196849822998047,-0.2022007703781128,2023-10-21T14:59:46.845630Z,1697900386845
0.6832561492919922,0.8000783920288086,-0.19258332252502441,2023-10-21T14:59:46.865908Z,1697900386865
0.640073299407959,0.7798595428466797,-0.18389570713043213,2023-10-21T14:59:46.886151Z,1697900386886
0.5979881286621094,0.7562456130981445,-0.17532670497894287,2023-10-21T14:59:46.906355Z,1697900386906
0.555088996887207,0.7267560958862305,-0.16614007949829102,2023-10-21T14:59:46.926651Z,1697900386926
0.510828971862793,0.6909079551696777,-0.15605175495147705,2023-10-21T14:59:46.946974Z,1697900386946
0.4659862518310547,0.650017261505127,-0.1452423334121704,2023-10-21T14:59:46.967285Z,1697900386967
0.4221673011779785,0.6064047813415527,-0.13425767421722412,2023-10-21T14:59:46.987550Z,1697900386987
0.38032054901123047,0.5613813400268555,-0.12347543239593506,2023-10-21T14:59:47.009816Z,1697900387009
0.34093666076660156,0.5158243179321289,-0.11312568187713623,2023-10-21T14:59:47.028014Z,1697900387027
0.3045616149902344,0.47081565856933594,-0.10338079929351807,2023-10-21T14:59:47.048305Z,1697900387048
0.27204465866088867,0.4280891418457031,-0.09446096420288086,2023-10-21T14:59:47.068562Z,1697900387068
0.24395465850830078,0.38908958435058594,-0.08657026290893555,2023-10-21T14:59:47.088797Z,1697900387088
0.22046661376953125,0.35471343994140625,-0.07984626293182373,2023-10-21T14:59:47.109776Z,1697900387109
0.20120477676391602,0.32486534118652344,-0.07426464557647705,2023-10-21T14:59:47.129331Z,1697900387129
0.18532848358154297,0.2986307144165039,-0.06962192058563232,2023-10-21T14:59:47.149657Z,1697900387149
0.17186450958251953,0.27480411529541016,-0.06560921669006348,2023-10-21T14:59:47.169862Z,1697900387169
0.16039562225341797,0.25299549102783203,-0.06205391883850098,2023-10-21T14:59:47.193164Z,1697900387193
0.15103578567504883,0.23358821868896484,-0.05895662307739258,2023-10-21T14:59:47.210392Z,1697900387210
0.14378070831298828,0.21666812896728516,-0.056279659271240234,2023-10-21T14:59:47.230714Z,1697900387230
0.13827991485595703,0.2018146514892578,-0.05389523506164551,2023-10-21T14:59:47.250952Z,1697900387250
0.13342523574829102,0.18762636184692383,-0.05144476890563965,2023-10-21T14:59:47.271185Z,1697900387271
0.12860107421875,0.1735701560974121,-0.04880023002624512,2023-10-21T14:59:47.293061Z,1697900387293
0.1237797737121582,0.15996026992797852,-0.04607415199279785,2023-10-21T14:59:47.311698Z,1697900387311
0.11987876892089844,0.14814472198486328,-0.04366707801818848,2023-10-21T14:59:47.332039Z,1697900387331
0.11813068389892578,0.13952350616455078,-0.042026519775390625,2023-10-21T14:59:47.352229Z,1697900387352
0.11977195739746094,0.13518333435058594,-0.041544437408447266,2023-10-21T14:59:47.372423Z,1697900387372
0.12464714050292969,0.13452863693237305,-0.042127132415771484,2023-10-21T14:59:47.392904Z,1697900387392
0.13159894943237305,0.13603639602661133,-0.04338669776916504,2023-10-21T14:59:47.413001Z,1697900387412
0.13928794860839844,0.13825368881225586,-0.044950246810913086,2023-10-21T14:59:47.433304Z,1697900387433
0.14722251892089844,0.1407451629638672,-0.04673290252685547,2023-10-21T14:59:47.453504Z,1697900387453
0.15592241287231445,0.1440267562866211,-0.04895329475402832,2023-10-21T14:59:47.476315Z,1697900387476
0.16587495803833008,0.14850139617919922,-0.05177426338195801,2023-10-21T14:59:47.494059Z,1697900387494
0.17745542526245117,0.15439605712890625,-0.05527758598327637,2023-10-21T14:59:47.514389Z,1697900387514
0.19078540802001953,0.16166305541992188,-0.059456825256347656,2023-10-21T14:59:47.534631Z,1697900387534
0.20588397979736328,0.17017507553100586,-0.06428265571594238,2023-10-21T14:59:47.554833Z,1697900387554
0.22243785858154297,0.1795639991760254,-0.06964278221130371,2023-10-21T14:59:47.576021Z,1697900387575
0.2403402328491211,0.18968772888183594,-0.07550382614135742,2023-10-21T14:59:47.595443Z,1697900387595
0.259401798248291,0.20035696029663086,-0.08178877830505371,2023-10-21T14:59:47.615704Z,1697900387615
0.28014564514160156,0.2119293212890625,-0.08863091468811035,2023-10-21T14:59:47.635947Z,1697900387635
0.30323219299316406,0.22481679916381836,-0.09617829322814941,2023-10-21T14:59:47.656188Z,1697900387656
0.3291306495666504,0.23923349380493164,-0.1045079231262207,2023-10-21T14:59:47.676474Z,1697900387676
0.356781005859375,0.25434207916259766,-0.11323046684265137,2023-10-21T14:59:47.696773Z,1697900387696
0.38374900817871094,0.26844358444213867,-0.12157821655273438,2023-10-21T14:59:47.717Z,1697900387716
0.40758562088012695,0.2800159454345703,-0.12885189056396484,2023-10-21T14:59:47.737281Z,1697900387737
0.42661094665527344,0.28812265396118164,-0.13460469245910645,2023-10-21T14:59:47.759971Z,1697900387759
0.4412269592285156,0.2931385040283203,-0.13898038864135742,2023-10-21T14:59:47.777803Z,1697900387777
0.4528932571411133,0.2960338592529297,-0.1424117088317871,2023-10-21T14:59:47.798081Z,1697900387798
0.4639263153076172,0.29825735092163086,-0.14559364318847656,2023-10-21T14:59:47.818307Z,1697900387818
0.4755983352661133,0.300595760345459,-0.14892005920410156,2023-10-21T14:59:47.838498Z,1697900387838
0.4876365661621094,0.30288219451904297,-0.1522994041442871,2023-10-21T14:59:47.859657Z,1697900387859
0.4991617202758789,0.30466604232788086,-0.1554398536682129,2023-10-21T14:59:47.879130Z,1697900387879
0.5106792449951172,0.3063058853149414,-0.15842294692993164,2023-10-21T14:59:47.899431Z,1697900387899
0.5231599807739258,0.30842018127441406,-0.16141533851623535,2023-10-21T14:59:47.919735Z,1697900387919
0.53680419921875,0.31115293502807617,-0.16431808471679688,2023-10-21T14:59:47.943024Z,1697900387942
0.5510644912719727,0.3142552375793457,-0.1667482852935791,2023-10-21T14:59:47.960122Z,1697900387960
0.5647172927856445,0.31719446182250977,-0.16820693016052246,2023-10-21T14:59:47.980420Z,1697900387980
0.5769929885864258,0.3196854591369629,-0.16837620735168457,2023-10-21T14:59:48.000658Z,1697900388000
0.5871782302856445,0.32146549224853516,-0.1670360565185547,2023-10-21T14:59:48.020874Z,1697900388020
0.5956029891967773,0.32285499572753906,-0.16431784629821777,2023-10-21T14:59:48.042464Z,1697900388042
0.6038589477539062,0.32494211196899414,-0.16071534156799316,2023-10-21T14:59:48.061459Z,1697900388061
0.6137857437133789,0.328859806060791,-0.15666437149047852,2023-10-21T14:59:48.081751Z,1697900388081
0.6258544921875,0.33490753173828125,-0.1521155834197998,2023-10-21T14:59:48.101957Z,1697900388101
0.6407060623168945,0.34331274032592773,-0.14703750610351562,2023-10-21T14:59:48.122142Z,1697900388122
0.6599626541137695,0.3548159599304199,-0.14175951480865479,2023-10-21T14:59:48.143606Z,1697900388143
0.6871576309204102,0.37131595611572266,-0.13713288307189941,2023-10-21T14:59:48.162814Z,1697900388162
0.726287841796875,0.3950934410095215,-0.13406503200531006,2023-10-21T14:59:48.183024Z,1697900388182
0.7808923721313477,0.42836999893188477,-0.1333853006362915,2023-10-21T14:59:48.203320Z,1697900388203
0.8511829376220703,0.4715690612792969,-0.1352696418762207,2023-10-21T14:59:48.225807Z,1697900388225
0.9330034255981445,0.5221786499023438,-0.13915002346038818,2023-10-21T14:59:48.243811Z,1697900388243
1.0206737518310547,0.575831413269043,-0.1437169313430786,2023-10-21T14:59:48.264097Z,1697900388264
1.1105461120605469,0.628507137298584,-0.14833009243011475,2023-10-21T14:59:48.284330Z,1697900388284
1.2021150588989258,0.677919864654541,-0.1537715196609497,2023-10-21T14:59:48.304598Z,1697900388304
1.290837287902832,0.7203335762023926,-0.16070020198822021,2023-10-21T14:59:48.325602Z,1697900388325
1.3687458038330078,0.7518420219421387,-0.1699047088623047,2023-10-21T14:59:48.345208Z,1697900388345
1.4264812469482422,0.7699971199035645,-0.18052244186401367,2023-10-21T14:59:48.365471Z,1697900388365
1.4628658294677734,0.7775478363037109,-0.1913233995437622,2023-10-21T14:59:48.385632Z,1697900388385
1.4828596115112305,0.7789096832275391,-0.20091652870178223,2023-10-21T14:59:48.408958Z,1697900388408
1.493499755859375,0.777745246887207,-0.207724928855896,2023-10-21T14:59:48.426189Z,1697900388426
1.4978504180908203,0.7752962112426758,-0.2107529640197754,2023-10-21T14:59:48.446504Z,1697900388446
1.4955730438232422,0.772679328918457,-0.21089065074920654,2023-10-21T14:59:48.466721Z,1697900388466
1.484537124633789,0.7709050178527832,-0.2093268632888794,2023-10-21T14:59:48.486937Z,1697900388486
1.4626922607421875,0.7702212333679199,-0.20600879192352295,2023-10-21T14:59:48.508908Z,1697900388508
1.4343481063842773,0.7727174758911133,-0.2011106014251709,2023-10-21T14:59:48.527552Z,1697900388527
1.4079618453979492,0.7805910110473633,-0.19443833827972412,2023-10-21T14:59:48.547816Z,1697900388547
1.3902854919433594,0.7936892509460449,-0.18674373626708984,2023-10-21T14:59:48.568039Z,1697900388568
1.3755626678466797,0.805363655090332,-0.1781454086303711,2023-10-21T14:59:48.588235Z,1697900388588
1.3500137329101562,0.8062186241149902,-0.16847288608551025,2023-10-21T14:59:48.608773Z,1697900388608
1.3030433654785156,0.7902436256408691,-0.15845859050750732,2023-10-21T14:59:48.628910Z,1697900388628
1.2340059280395508,0.7578725814819336,-0.14879822731018066,2023-10-21T14:59:48.649167Z,1697900388649
1.1454858779907227,0.7104735374450684,-0.13890838623046875,2023-10-21T14:59:48.669355Z,1697900388669
1.0384254455566406,0.648308277130127,-0.12723910808563232,2023-10-21T14:59:48.692166Z,1697900388692
0.9108753204345703,0.5705819129943848,-0.11235082149505615,2023-10-21T14:59:48.709877Z,1697900388709
0.7630815505981445,0.4785747528076172,-0.09393429756164551,2023-10-21T14:59:48.730197Z,1697900388730
0.5990238189697266,0.3764071464538574,-0.07285916805267334,2023-10-21T14:59:48.750424Z,1697900388750
0.42470264434814453,0.26874256134033203,-0.050784945487976074,2023-10-21T14:59:48.770659Z,1697900388770
0.2467184066772461,0.1587085723876953,-0.028901994228363037,2023-10-21T14:59:48.791992Z,1697900388791
0.07216072082519531,0.047777652740478516,-0.008193790912628174,2023-10-21T14:59:48.811348Z,1697900388811
-0.08750629425048828,-0.0604252815246582,0.009425520896911621,2023-10-21T14:59:48.831593Z,1697900388831
-0.2194809913635254,-0.15988397598266602,0.021541953086853027,2023-10-21T14:59:48.851773Z,1697900388851
-0.3132147789001465,-0.24239444732666016,0.02659827470779419,2023-10-21T14:59:48.872006Z,1697900388871
-0.36931848526000977,-0.30429983139038086,0.025520145893096924,2023-10-21T14:59:48.892291Z,1697900388892
-0.39466333389282227,-0.3460264205932617,0.020755112171173096,2023-10-21T14:59:48.912583Z,1697900388912
-0.3971848487854004,-0.370058536529541,0.01501646637916565,2023-10-21T14:59:48.932800Z,1697900388932
-0.3818035125732422,-0.3771791458129883,0.010054513812065125,2023-10-21T14:59:48.953037Z,1697900388952
-0.3539004325866699,-0.3686814308166504,0.006283208727836609,2023-10-21T14:59:48.975215Z,1697900388975
-0.31942081451416016,-0.34750843048095703,0.0035427063703536987,2023-10-21T14:59:48.993605Z,1697900388993
-0.2834739685058594,-0.31800127029418945,0.0018941015005111694,2023-10-21T14:59:49.013935Z,1697900389013
-0.25197935104370117,-0.2877011299133301,0.0013633817434310913,2023-10-21T14:59:49.034125Z,1697900389034
-0.22904491424560547,-0.2635464668273926,0.0020212680101394653,2023-10-21T14:59:49.054324Z,1697900389054
-0.2145681381225586,-0.24758577346801758,0.003581807017326355,2023-10-21T14:59:49.075054Z,1697900389075
-0.20064210891723633,-0.23184919357299805,0.00558800995349884,2023-10-21T14:59:49.094938Z,1697900389094
-0.17694616317749023,-0.2045297622680664,0.00722166895866394,2023-10-21T14:59:49.115276Z,1697900389115
-0.13724851608276367,-0.15831375122070312,0.0073773860931396484,2023-10-21T14:59:49.135412Z,1697900389135
-0.08275842666625977,-0.09496927261352539,0.005439639091491699,2023-10-21T14:59:49.158408Z,1697900389158
-0.01574420928955078,-0.01793956756591797,0.00121229887008667,2023-10-21T14:59:49.176066Z,1697900389175
0.06369352340698242,0.07203388214111328,-0.005659341812133789,2023-10-21T14:59:49.196308Z,1697900389196
0.15714359283447266,0.17634963989257812,-0.015986859798431396,2023-10-21T14:59:49.216678Z,1697900389216
0.2646474838256836,0.2944459915161133,-0.03052610158920288,2023-10-21T14:59:49.236749Z,1697900389236
0.3829689025878906,0.421658992767334,-0.049302637577056885,2023-10-21T14:59:49.258122Z,1697900389258
0.5063767433166504,0.5502958297729492,-0.07146167755126953,2023-10-21T14:59:49.277299Z,1697900389277
0.6287617683410645,0.6725983619689941,-0.09585678577423096,2023-10-21T14:59:49.297581Z,1697900389297
0.7443356513977051,0.7817916870117188,-0.12149190902709961,2023-10-21T14:59:49.317775Z,1697900389317
0.8489408493041992,0.8731551170349121,-0.1476353406906128,2023-10-21T14:59:49.337983Z,1697900389337
0.9392366409301758,0.9429140090942383,-0.17342495918273926,2023-10-21T14:59:49.358306Z,1697900389358
1.013012409210205,0.9888124465942383,-0.19781005382537842,2023-10-21T14:59:49.378636Z,1697900389378
1.0674657821655273,1.0090608596801758,-0.2195601463317871,2023-10-21T14:59:49.398854Z,1697900389398
1.0988273620605469,1.002309799194336,-0.23734033107757568,2023-10-21T14:59:49.419144Z,1697900389419
1.1041011810302734,0.9692831039428711,-0.25041961669921875,2023-10-21T14:59:49.441528Z,1697900389441
1.0844659805297852,0.9151468276977539,-0.2595036029815674,2023-10-21T14:59:49.459655Z,1697900389459
1.045313835144043,0.8486166000366211,-0.2661278247833252,2023-10-21T14:59:49.479962Z,1697900389479
0.9924325942993164,0.777320384979248,-0.2710578441619873,2023-10-21T14:59:49.500152Z,1697900389500
0.930211067199707,0.7058796882629395,-0.2738475799560547,2023-10-21T14:59:49.520371Z,1697900389520
0.8613653182983398,0.6362218856811523,-0.27340078353881836,2023-10-21T14:59:49.541456Z,1697900389541
0.7903480529785156,0.5709095001220703,-0.26976513862609863,2023-10-21T14:59:49.560991Z,1697900389560
0.7204504013061523,0.5115456581115723,-0.26342010498046875,2023-10-21T14:59:49.581278Z,1697900389581
0.6539020538330078,0.45893383026123047,-0.25501394271850586,2023-10-21T14:59:49.601504Z,1697900389601
0.5926837921142578,0.41358518600463867,-0.24546241760253906,2023-10-21T14:59:49.624870Z,1697900389624
0.5399265289306641,0.3766746520996094,-0.23638105392456055,2023-10-21T14:59:49.642014Z,1697900389641
0.49707794189453125,0.3481631278991699,-0.22874689102172852,2023-10-21T14:59:49.662343Z,1697900389662
0.461336612701416,0.32512569427490234,-0.22159266471862793,2023-10-21T14:59:49.682596Z,1697900389682
0.42676353454589844,0.30283403396606445,-0.21239089965820312,2023-10-21T14:59:49.702798Z,1697900389702
0.38872671127319336,0.2778768539428711,-0.19927668571472168,2023-10-21T14:59:49.724702Z,1697900389724
0.3476400375366211,0.25058794021606445,-0.1829984188079834,2023-10-21T14:59:49.743404Z,1697900389743
0.3074617385864258,0.22380399703979492,-0.16613984107971191,2023-10-21T14:59:49.763619Z,1697900389763
0.27460575103759766,0.20213985443115234,-0.15253400802612305,2023-10-21T14:59:49.783890Z,1697900389783
0.25208187103271484,0.1878652572631836,-0.14413166046142578,2023-10-21T14:59:49.804105Z,1697900389804
0.23871135711669922,0.1802821159362793,-0.14046907424926758,2023-10-21T14:59:49.824589Z,1697900389824
0.2307286262512207,0.17670440673828125,-0.1394648551940918,2023-10-21T14:59:49.844688Z,1697900389844
0.22652864456176758,0.17595291137695312,-0.1402115821838379,2023-10-21T14:59:49.865022Z,1697900389864
0.22787952423095703,0.1794581413269043,-0.14395666122436523,2023-10-21T14:59:49.885205Z,1697900389885
0.23854875564575195,0.1902937889099121,-0.15332984924316406,2023-10-21T14:59:49.907834Z,1697900389907
0.26107072830200195,0.2107400894165039,-0.1701979637145996,2023-10-21T14:59:49.925688Z,1697900389925
0.2947540283203125,0.2404003143310547,-0.19403600692749023,2023-10-21T14:59:49.946022Z,1697900389945
0.33498096466064453,0.2753596305847168,-0.22123336791992188,2023-10-21T14:59:49.966283Z,1697900389966
0.3752322196960449,0.3095703125,-0.24657249450683594,2023-10-21T14:59:49.986498Z,1697900389986
0.4122505187988281,0.33945274353027344,-0.2672739028930664,2023-10-21T14:59:50.007815Z,1697900390007
0.4464406967163086,0.36484479904174805,-0.2837052345275879,2023-10-21T14:59:50.027138Z,1697900390027
0.4797992706298828,0.3873600959777832,-0.2977309226989746,2023-10-21T14:59:50.047369Z,1697900390047
0.5113186836242676,0.40639257431030273,-0.3094019889831543,2023-10-21T14:59:50.067562Z,1697900390067
0.5402011871337891,0.4213237762451172,-0.3186674118041992,2023-10-21T14:59:50.087790Z,1697900390087
0.5665383338928223,0.43202638626098633,-0.32558584213256836,2023-10-21T14:59:50.108082Z,1697900390108
0.5905070304870605,0.43832969665527344,-0.3300137519836426,2023-10-21T14:59:50.128390Z,1697900390128
0.6104955673217773,0.4390130043029785,-0.33078694343566895,2023-10-21T14:59:50.148628Z,1697900390148
0.6249723434448242,0.43340492248535156,-0.32716941833496094,2023-10-21T14:59:50.168872Z,1697900390168
0.6352405548095703,0.42319774627685547,-0.3201606273651123,2023-10-21T14:59:50.191091Z,1697900390191
0.6435098648071289,0.4104475975036621,-0.3110947608947754,2023-10-21T14:59:50.209398Z,1697900390209
0.6508736610412598,0.39595890045166016,-0.300368070602417,2023-10-21T14:59:50.229733Z,1697900390229
0.6561765670776367,0.3790130615234375,-0.28717541694641113,2023-10-21T14:59:50.249932Z,1697900390249
0.6595668792724609,0.3598179817199707,-0.2713911533355713,2023-10-21T14:59:50.270132Z,1697900390270
0.6623411178588867,0.33937978744506836,-0.2534811496734619,2023-10-21T14:59:50.290860Z,1697900390290
0.6685075759887695,0.32000160217285156,-0.23508882522583008,2023-10-21T14:59:50.310718Z,1697900390310
0.6835203170776367,0.3042781352996826,-0.2182328701019287,2023-10-21T14:59:50.331011Z,1697900390330
0.7112464904785156,0.2936863899230957,-0.20404267311096191,2023-10-21T14:59:50.351244Z,1697900390351
0.7498836517333984,0.28734374046325684,-0.19154119491577148,2023-10-21T14:59:50.374189Z,1697900390374
0.7920761108398438,0.2826533317565918,-0.17836236953735352,2023-10-21T14:59:50.391798Z,1697900390391
0.8309144973754883,0.27770090103149414,-0.16253137588500977,2023-10-21T14:59:50.412084Z,1697900390412
0.8635683059692383,0.27202272415161133,-0.14354300498962402,2023-10-21T14:59:50.432346Z,1697900390432
0.8913383483886719,0.26630306243896484,-0.12190508842468262,2023-10-21T14:59:50.452537Z,1697900390452
0.9157209396362305,0.261110782623291,-0.09820985794067383,2023-10-21T14:59:50.474134Z,1697900390474
0.9357728958129883,0.2563197612762451,-0.07271862030029297,2023-10-21T14:59:50.493104Z,1697900390493
0.9478244781494141,0.25119519233703613,-0.04561877250671387,2023-10-21T14:59:50.513391Z,1697900390513
0.9469566345214844,0.24468612670898438,-0.017319053411483765,2023-10-21T14:59:50.533626Z,1697900390533
0.9290342330932617,0.23571515083312988,0.011273682117462158,2023-10-21T14:59:50.553815Z,1697900390553
0.8931188583374023,0.22367596626281738,0.0387570858001709,2023-10-21T14:59:50.574128Z,1697900390574
0.8389968872070312,0.2081003189086914,0.0633435845375061,2023-10-21T14:59:50.594498Z,1697900390594
0.7655706405639648,0.18864750862121582,0.08258271217346191,2023-10-21T14:59:50.614684Z,1697900390614
0.6713342666625977,0.16508817672729492,0.09385561943054199,2023-10-21T14:59:50.634993Z,1697900390634
0.5551176071166992,0.1369342803955078,0.09468388557434082,2023-10-21T14:59:50.657227Z,1697900390657
0.41498565673828125,0.10325193405151367,0.08294844627380371,2023-10-21T14:59:50.675488Z,1697900390675
0.24853038787841797,0.06276869773864746,0.05662965774536133,2023-10-21T14:59:50.695755Z,1697900390695
0.0570068359375,0.014717578887939453,0.014529228210449219,2023-10-21T14:59:50.715995Z,1697900390715
-0.15244483947753906,-0.04048323631286621,-0.04296398162841797,2023-10-21T14:59:50.736210Z,1697900390736
-0.36014366149902344,-0.09873843193054199,-0.11105656623840332,2023-10-21T14:59:50.757288Z,1697900390757
-0.5510454177856445,-0.15633344650268555,-0.18423986434936523,2023-10-21T14:59:50.776780Z,1697900390776
-0.7170486450195312,-0.21096301078796387,-0.25769853591918945,2023-10-21T14:59:50.797106Z,1697900390797
-0.8554682731628418,-0.26168060302734375,-0.327451229095459,2023-10-21T14:59:50.817329Z,1697900390817
-0.9730105400085449,-0.31034326553344727,-0.39373040199279785,2023-10-21T14:59:50.840625Z,1697900390840
-1.0704283714294434,-0.35712385177612305,-0.4546844959259033,2023-10-21T14:59:50.857823Z,1697900390857
-1.151266098022461,-0.403184175491333,-0.510150671005249,2023-10-21T14:59:50.878126Z,1697900390878
-1.2117390632629395,-0.4459571838378906,-0.5564651489257812,2023-10-21T14:59:50.898400Z,1697900390898
-1.2487225532531738,-0.48236751556396484,-0.589407205581665,2023-10-21T14:59:50.918622Z,1697900390918
-1.263321876525879,-0.5109710693359375,-0.6061339378356934,2023-10-21T14:59:50.940495Z,1697900390940
-1.2677783966064453,-0.5366084575653076,-0.6127045154571533,2023-10-21T14:59:50.959138Z,1697900390959
-1.2740979194641113,-0.5651106834411621,-0.6151580810546875,2023-10-21T14:59:50.979505Z,1697900390979
-1.286916732788086,-0.5993590354919434,-0.6158108711242676,2023-10-21T14:59:50.999716Z,1697900390999
-1.3035502433776855,-0.6376807689666748,-0.6139466762542725,2023-10-21T14:59:51.019931Z,1697900391019
-1.3118972778320312,-0.6715340614318848,-0.6030395030975342,2023-10-21T14:59:51.040403Z,1697900391040
-1.305344581604004,-0.6947314739227295,-0.580946683883667,2023-10-21T14:59:51.060652Z,1697900391060
-1.276749610900879,-0.7012214660644531,-0.5451607704162598,2023-10-21T14:59:51.080779Z,1697900391080
-1.2254462242126465,-0.6906673908233643,-0.4970433712005615,2023-10-21T14:59:51.101031Z,1697900391100
-1.1535978317260742,-0.6646051406860352,-0.4404773712158203,2023-10-21T14:59:51.124178Z,1697900391124
-1.0646772384643555,-0.625065803527832,-0.37990403175354004,2023-10-21T14:59:51.141522Z,1697900391141
-0.9588370323181152,-0.5723295211791992,-0.31800055503845215,2023-10-21T14:59:51.161855Z,1697900391161
-0.8340520858764648,-0.5051112174987793,-0.2556886672973633,2023-10-21T14:59:51.182141Z,1697900391182
-0.689763069152832,-0.4229917526245117,-0.194108247756958,2023-10-21T14:59:51.202395Z,1697900391202
-0.5287489891052246,-0.3279390335083008,-0.13540875911712646,2023-10-21T14:59:51.223595Z,1697900391223
-0.35766124725341797,-0.22450017929077148,-0.082344651222229,2023-10-21T14:59:51.242887Z,1697900391242
-0.19074440002441406,-0.1216282844543457,-0.03903377056121826,2023-10-21T14:59:51.263214Z,1697900391263
-0.03829765319824219,-0.024931907653808594,-0.006861686706542969,2023-10-21T14:59:51.283482Z,1697900391283
0.09387969970703125,0.06267213821411133,0.014416217803955078,2023-10-21T14:59:51.303685Z,1697900391303
0.20269012451171875,0.13922929763793945,0.025932788848876953,2023-10-21T14:59:51.323956Z,1697900391323
0.2944164276123047,0.20846176147460938,0.030090510845184326,2023-10-21T14:59:51.344246Z,1697900391344
0.3715400695800781,0.2712974548339844,0.028439581394195557,2023-10-21T14:59:51.364464Z,1697900391364
0.441162109375,0.3318052291870117,0.022526025772094727,2023-10-21T14:59:51.384708Z,1697900391384
0.503936767578125,0.3898320198059082,0.012979462742805481,2023-10-21T14:59:51.406816Z,1697900391406
0.5561847686767578,0.44207000732421875,4.3752649798989296E-4,2023-10-21T14:59:51.425265Z,1697900391425
0.5935382843017578,0.48445844650268555,-0.013788163661956787,2023-10-21T14:59:51.445537Z,1697900391445
0.6237120628356934,0.5217547416687012,-0.028956174850463867,2023-10-21T14:59:51.465763Z,1697900391465
0.6546921730041504,0.5593390464782715,-0.04471319913864136,2023-10-21T14:59:51.486020Z,1697900391485
0.6907224655151367,0.6000895500183105,-0.06106835603713989,2023-10-21T14:59:51.506738Z,1697900391506
0.7332711219787598,0.6453089714050293,-0.07862341403961182,2023-10-21T14:59:51.526568Z,1697900391526
0.7746443748474121,0.6894369125366211,-0.09707951545715332,2023-10-21T14:59:51.546847Z,1697900391546
0.8131923675537109,0.7317037582397461,-0.11668741703033447,2023-10-21T14:59:51.567067Z,1697900391567
0.844273567199707,0.7686038017272949,-0.13679254055023193,2023-10-21T14:59:51.590079Z,1697900391590
0.8677806854248047,0.7994537353515625,-0.1565854549407959,2023-10-21T14:59:51.607636Z,1697900391607
0.8862380981445312,0.8257927894592285,-0.17583298683166504,2023-10-21T14:59:51.627914Z,1697900391627
0.9019927978515625,0.8495540618896484,-0.19455575942993164,2023-10-21T14:59:51.648163Z,1697900391648
0.9143047332763672,0.8702034950256348,-0.21237289905548096,2023-10-21T14:59:51.668365Z,1697900391668
0.9205880165100098,0.8856430053710938,-0.2284470796585083,2023-10-21T14:59:51.689957Z,1697900391689
0.9190187454223633,0.8940796852111816,-0.24182701110839844,2023-10-21T14:59:51.708947Z,1697900391708
0.9099330902099609,0.8951597213745117,-0.2520256042480469,2023-10-21T14:59:51.729227Z,1697900391729
0.8947772979736328,0.8894133567810059,-0.2589859962463379,2023-10-21T14:59:51.749447Z,1697900391749
0.8743181228637695,0.8769960403442383,-0.2626783847808838,2023-10-21T14:59:51.769642Z,1697900391769
0.8483304977416992,0.8576664924621582,-0.26310133934020996,2023-10-21T14:59:51.789957Z,1697900391789
0.8164992332458496,0.831540584564209,-0.2602884769439697,2023-10-21T14:59:51.810266Z,1697900391810
0.7798161506652832,0.7998080253601074,-0.25449204444885254,2023-10-21T14:59:51.830517Z,1697900391830
0.7402982711791992,0.7642030715942383,-0.24615240097045898,2023-10-21T14:59:51.850771Z,1697900391850
0.7002725601196289,0.7267718315124512,-0.23585772514343262,2023-10-21T14:59:51.873208Z,1697900391873
0.6611909866333008,0.6888618469238281,-0.2240617275238037,2023-10-21T14:59:51.891294Z,1697900391891
0.6245331764221191,0.6522049903869629,-0.211439847946167,2023-10-21T14:59:51.911615Z,1697900391911
0.5910096168518066,0.6180315017700195,-0.198502779006958,2023-10-21T14:59:51.931821Z,1697900391931
0.561495304107666,0.5876750946044922,-0.18594574928283691,2023-10-21T14:59:51.952035Z,1697900391952
0.5360860824584961,0.5615262985229492,-0.17423558235168457,2023-10-21T14:59:51.973062Z,1697900391973
0.5137877464294434,0.5385727882385254,-0.16333651542663574,2023-10-21T14:59:51.992668Z,1697900391992
0.49379682540893555,0.5177154541015625,-0.15317010879516602,2023-10-21T14:59:52.012963Z,1697900392012
0.4751143455505371,0.49777841567993164,-0.14353680610656738,2023-10-21T14:59:52.033179Z,1697900392033
0.45636749267578125,0.47742795944213867,-0.13422632217407227,2023-10-21T14:59:52.056429Z,1697900392056
0.43557262420654297,0.4549226760864258,-0.1249237060546875,2023-10-21T14:59:52.073684Z,1697900392073
0.41100549697875977,0.428830623626709,-0.11537778377532959,2023-10-21T14:59:52.093998Z,1697900392093
0.38166332244873047,0.3983464241027832,-0.10545313358306885,2023-10-21T14:59:52.114251Z,1697900392114
0.3479151725769043,0.36382198333740234,-0.09518599510192871,2023-10-21T14:59:52.134463Z,1697900392134
0.3108692169189453,0.32612037658691406,-0.08459579944610596,2023-10-21T14:59:52.156024Z,1697900392155
0.27211427688598633,0.28662109375,-0.07385194301605225,2023-10-21T14:59:52.175014Z,1697900392174
0.23355722427368164,0.2472248077392578,-0.06327557563781738,2023-10-21T14:59:52.195341Z,1697900392195
0.19689035415649414,0.2097034454345703,-0.05325281620025635,2023-10-21T14:59:52.215560Z,1697900392215
0.16348838806152344,0.1754741668701172,-0.04412662982940674,2023-10-21T14:59:52.235719Z,1697900392235
0.13534927368164062,0.14658594131469727,-0.03644752502441406,2023-10-21T14:59:52.256143Z,1697900392256
0.1139211654663086,0.12459421157836914,-0.03063344955444336,2023-10-21T14:59:52.276376Z,1697900392276
0.09992218017578125,0.11040258407592773,-0.026880979537963867,2023-10-21T14:59:52.296636Z,1697900392296
0.09314918518066406,0.10396337509155273,-0.02514827251434326,2023-10-21T14:59:52.316863Z,1697900392316
0.09326744079589844,0.10510015487670898,-0.025390148162841797,2023-10-21T14:59:52.339493Z,1697900392339
0.09985160827636719,0.11352777481079102,-0.027593135833740234,2023-10-21T14:59:52.357366Z,1697900392357
0.11153411865234375,0.12782716751098633,-0.03150749206542969,2023-10-21T14:59:52.377657Z,1697900392377
0.12640142440795898,0.14582395553588867,-0.03675103187561035,2023-10-21T14:59:52.397914Z,1697900392397
0.14190673828125,0.16451644897460938,-0.04272639751434326,2023-10-21T14:59:52.418159Z,1697900392418
0.1567540168762207,0.18224048614501953,-0.04915261268615723,2023-10-21T14:59:52.439519Z,1697900392439
0.1700115203857422,0.1977252960205078,-0.055731773376464844,2023-10-21T14:59:52.458695Z,1697900392458
0.1819157600402832,0.21103191375732422,-0.06239008903503418,2023-10-21T14:59:52.478996Z,1697900392478
0.19335508346557617,0.2230215072631836,-0.06924867630004883,2023-10-21T14:59:52.499234Z,1697900392499
0.20521879196166992,0.23466253280639648,-0.07646036148071289,2023-10-21T14:59:52.519521Z,1697900392519
0.21823787689208984,0.24671077728271484,-0.08416509628295898,2023-10-21T14:59:52.539714Z,1697900392539
0.23331546783447266,0.26004552841186523,-0.09256696701049805,2023-10-21T14:59:52.560029Z,1697900392559
0.25220632553100586,0.27640485763549805,-0.10226869583129883,2023-10-21T14:59:52.580276Z,1697900392580
0.2764434814453125,0.29721832275390625,-0.11386513710021973,2023-10-21T14:59:52.600489Z,1697900392600
0.30684947967529297,0.32298994064331055,-0.12761378288269043,2023-10-21T14:59:52.622712Z,1697900392622
0.34265613555908203,0.35242795944213867,-0.14302992820739746,2023-10-21T14:59:52.641056Z,1697900392641
0.38198089599609375,0.38321685791015625,-0.15913653373718262,2023-10-21T14:59:52.661384Z,1697900392661
0.4223189353942871,0.41264915466308594,-0.17474770545959473,2023-10-21T14:59:52.681640Z,1697900392681
0.4610896110534668,0.43806886672973633,-0.18864870071411133,2023-10-21T14:59:52.701817Z,1697900392701
0.49695634841918945,0.45807981491088867,-0.20018720626831055,2023-10-21T14:59:52.722562Z,1697900392722
0.5297689437866211,0.47240734100341797,-0.20917916297912598,2023-10-21T14:59:52.742416Z,1697900392742
0.5590839385986328,0.4807462692260742,-0.21540522575378418,2023-10-21T14:59:52.762776Z,1697900392762
0.5838608741760254,0.4826169013977051,-0.21843504905700684,2023-10-21T14:59:52.782842Z,1697900392782
0.6024742126464844,0.4773392677307129,-0.21758294105529785,2023-10-21T14:59:52.805909Z,1697900392805
0.6145167350769043,0.4655337333679199,-0.2127060890197754,2023-10-21T14:59:52.823457Z,1697900392823
0.6203899383544922,0.44855213165283203,-0.20406842231750488,2023-10-21T14:59:52.843772Z,1697900392843
0.6214590072631836,0.42830896377563477,-0.19241738319396973,2023-10-21T14:59:52.863983Z,1697900392863
0.6186928749084473,0.4062976837158203,-0.17856121063232422,2023-10-21T14:59:52.884142Z,1697900392884
0.6119928359985352,0.38324689865112305,-0.16314196586608887,2023-10-21T14:59:52.905819Z,1697900392905
0.6013107299804688,0.35973501205444336,-0.14671111106872559,2023-10-21T14:59:52.924778Z,1697900392924
0.5861377716064453,0.33588123321533203,-0.1294804811477661,2023-10-21T14:59:52.946348Z,1697900392946
0.5679960250854492,0.312746524810791,-0.11195850372314453,2023-10-21T14:59:52.965385Z,1697900392965
0.5493898391723633,0.29169416427612305,-0.09469354152679443,2023-10-21T14:59:52.985464Z,1697900392985
0.5325727462768555,0.2737736701965332,-0.0780630111694336,2023-10-21T14:59:53.006409Z,1697900393006
0.5170974731445312,0.2585911750793457,-0.061998963356018066,2023-10-21T14:59:53.026813Z,1697900393026
0.5006284713745117,0.2448568344116211,-0.04637938737869263,2023-10-21T14:59:53.046354Z,1697900393046
0.48096179962158203,0.23137378692626953,-0.03136312961578369,2023-10-21T14:59:53.066611Z,1697900393066
0.45830535888671875,0.21793270111083984,-0.017283260822296143,2023-10-21T14:59:53.089130Z,1697900393089
0.4352531433105469,0.20525312423706055,-0.004270114004611969,2023-10-21T14:59:53.107115Z,1697900393107
0.41255664825439453,0.1932845115661621,0.007771298289299011,2023-10-21T14:59:53.127432Z,1697900393127
0.38892459869384766,0.1812748908996582,0.018739819526672363,2023-10-21T14:59:53.147677Z,1697900393147
0.36333179473876953,0.1686229705810547,0.028239011764526367,2023-10-21T14:59:53.167937Z,1697900393167
0.3374929428100586,0.15588855743408203,0.03598123788833618,2023-10-21T14:59:53.189011Z,1697900393188
0.3147134780883789,0.14428281784057617,0.04222917556762695,2023-10-21T14:59:53.208485Z,1697900393208
0.29778003692626953,0.13489913940429688,0.047590017318725586,2023-10-21T14:59:53.228745Z,1697900393228
0.2873239517211914,0.12810587882995605,0.052689433097839355,2023-10-21T14:59:53.248990Z,1697900393248
0.2819976806640625,0.12343525886535645,0.05787062644958496,2023-10-21T14:59:53.272284Z,1697900393272
0.28127002716064453,0.12079286575317383,0.06326770782470703,2023-10-21T14:59:53.289497Z,1697900393289
0.28206920623779297,0.1190190315246582,0.06844830513000488,2023-10-21T14:59:53.309786Z,1697900393309
0.28142261505126953,0.11705780029296875,0.07265853881835938,2023-10-21T14:59:53.330036Z,1697900393329
0.2725820541381836,0.1122884750366211,0.07398056983947754,2023-10-21T14:59:53.350255Z,1697900393350
0.24739933013916016,0.10151290893554688,0.06998300552368164,2023-10-21T14:59:53.372165Z,1697900393372
0.2001495361328125,0.08237457275390625,0.05876922607421875,2023-10-21T14:59:53.390828Z,1697900393390
0.1321563720703125,0.05500960350036621,0.04023623466491699,2023-10-21T14:59:53.411098Z,1697900393411
0.049141883850097656,0.02086496353149414,0.01553201675415039,2023-10-21T14:59:53.431389Z,1697900393431
-0.04410076141357422,-0.019232511520385742,-0.014488935470581055,2023-10-21T14:59:53.451609Z,1697900393451
-0.14490890502929688,-0.06522989273071289,-0.0494842529296875,2023-10-21T14:59:53.472135Z,1697900393472
-0.2537546157836914,-0.11828184127807617,-0.09012365341186523,2023-10-21T14:59:53.492300Z,1697900393492
-0.36901378631591797,-0.17842435836791992,-0.1360912322998047,2023-10-21T14:59:53.512454Z,1697900393512
-0.4859304428100586,-0.24361228942871094,-0.18547892570495605,2023-10-21T14:59:53.532687Z,1697900393532
-0.5958728790283203,-0.30879640579223633,-0.23431777954101562,2023-10-21T14:59:53.555669Z,1697900393555
-0.6927433013916016,-0.3692617416381836,-0.27901721000671387,2023-10-21T14:59:53.573304Z,1697900393573
-0.7772893905639648,-0.42409253120422363,-0.3184835910797119,2023-10-21T14:59:53.593696Z,1697900393593
-0.8556070327758789,-0.4763627052307129,-0.35377073287963867,2023-10-21T14:59:53.613897Z,1697900393613
-0.9312195777893066,-0.528287410736084,-0.3847055435180664,2023-10-21T14:59:53.634089Z,1697900393634
-1.001406192779541,-0.5780014991760254,-0.4084939956665039,2023-10-21T14:59:53.655310Z,1697900393655
-1.0613970756530762,-0.622126579284668,-0.4220297336578369,2023-10-21T14:59:53.674549Z,1697900393674
-1.1083388328552246,-0.6590805053710938,-0.42449235916137695,2023-10-21T14:59:53.694794Z,1697900393694
-1.1425604820251465,-0.6905550956726074,-0.41718554496765137,2023-10-21T14:59:53.715051Z,1697900393715
-1.1657381057739258,-0.7195615768432617,-0.4025554656982422,2023-10-21T14:59:53.735301Z,1697900393735
-1.178940773010254,-0.7472996711730957,-0.3819434642791748,2023-10-21T14:59:53.755589Z,1697900393755
-1.180288314819336,-0.7715682983398438,-0.35500645637512207,2023-10-21T14:59:53.775864Z,1697900393775
-1.1677742004394531,-0.7886204719543457,-0.3226943016052246,2023-10-21T14:59:53.796120Z,1697900393796
-1.1400508880615234,-0.7944097518920898,-0.2854558229446411,2023-10-21T14:59:53.816405Z,1697900393816
-1.0990114212036133,-0.7877345085144043,-0.24550938606262207,2023-10-21T14:59:53.838605Z,1697900393838
-1.0444912910461426,-0.7669081687927246,-0.2045663595199585,2023-10-21T14:59:53.856889Z,1697900393856
-0.9746150970458984,-0.7294416427612305,-0.16371440887451172,2023-10-21T14:59:53.877206Z,1697900393877
-0.8874578475952148,-0.6728296279907227,-0.12390077114105225,2023-10-21T14:59:53.897471Z,1697900393897
-0.7847685813903809,-0.5981674194335938,-0.08717620372772217,2023-10-21T14:59:53.917689Z,1697900393917
-0.6692075729370117,-0.5087399482727051,-0.055198609828948975,2023-10-21T14:59:53.938493Z,1697900393938
-0.5409073829650879,-0.40735864639282227,-0.029335469007492065,2023-10-21T14:59:53.958225Z,1697900393958
-0.40027761459350586,-0.2971515655517578,-0.010669246315956116,2023-10-21T14:59:53.978509Z,1697900393978
-0.24585819244384766,-0.17930078506469727,1.4668935909867287E-4,2023-10-21T14:59:53.998818Z,1697900393998
-0.08061027526855469,-0.05765533447265625,0.0021672993898391724,2023-10-21T14:59:54.021858Z,1697900394021
0.09103870391845703,0.06386613845825195,-0.0047290027141571045,2023-10-21T14:59:54.039318Z,1697900394039
0.26104164123535156,0.17998981475830078,-0.01976466178894043,2023-10-21T14:59:54.059565Z,1697900394059
0.42363643646240234,0.28794240951538086,-0.04150843620300293,2023-10-21T14:59:54.079827Z,1697900394079
0.5777292251586914,0.3880953788757324,-0.06834650039672852,2023-10-21T14:59:54.100113Z,1697900394100
0.7261962890625,0.48293113708496094,-0.09887361526489258,2023-10-21T14:59:54.121683Z,1697900394121
0.8690433502197266,0.572751522064209,-0.13148188591003418,2023-10-21T14:59:54.140621Z,1697900394140
1.0005769729614258,0.6543846130371094,-0.1639864444732666,2023-10-21T14:59:54.160910Z,1697900394160
1.114614486694336,0.7247343063354492,-0.19425630569458008,2023-10-21T14:59:54.181130Z,1697900394181
1.2075920104980469,0.7823486328125,-0.2209010124206543,2023-10-21T14:59:54.205479Z,1697900394205
1.2798995971679688,0.827812671661377,-0.24346506595611572,2023-10-21T14:59:54.222491Z,1697900394222
1.3346796035766602,0.8628640174865723,-0.2621203660964966,2023-10-21T14:59:54.242183Z,1697900394242
1.3740863800048828,0.8884296417236328,-0.27703630924224854,2023-10-21T14:59:54.262329Z,1697900394262
1.3961677551269531,0.9034457206726074,-0.28805673122406006,2023-10-21T14:59:54.282534Z,1697900394282
1.3972969055175781,0.9063386917114258,-0.2947969436645508,2023-10-21T14:59:54.305054Z,1697900394305
1.376729965209961,0.897212028503418,-0.29736995697021484,2023-10-21T14:59:54.322979Z,1697900394322
1.3388824462890625,0.8787460327148438,-0.29643750190734863,2023-10-21T14:59:54.343284Z,1697900394343
1.2904024124145508,0.8544831275939941,-0.29300403594970703,2023-10-21T14:59:54.363505Z,1697900394363
1.2355613708496094,0.8264369964599609,-0.2875504493713379,2023-10-21T14:59:54.383785Z,1697900394383
1.176743507385254,0.7955937385559082,-0.28022241592407227,2023-10-21T14:59:54.404873Z,1697900394404
1.1155967712402344,0.7626094818115234,-0.2711966037750244,2023-10-21T14:59:54.424372Z,1697900394424
1.0529694557189941,0.7278680801391602,-0.2607231140136719,2023-10-21T14:59:54.444598Z,1697900394444
0.9893765449523926,0.6915817260742188,-0.24915742874145508,2023-10-21T14:59:54.464823Z,1697900394464
0.9251728057861328,0.6537704467773438,-0.2367091178894043,2023-10-21T14:59:54.488020Z,1697900394487
0.8610010147094727,0.6146135330200195,-0.22362399101257324,2023-10-21T14:59:54.505463Z,1697900394505
0.7974357604980469,0.5743021965026855,-0.21005988121032715,2023-10-21T14:59:54.525733Z,1697900394525
0.734644889831543,0.532996654510498,-0.19615459442138672,2023-10-21T14:59:54.546046Z,1697900394545
0.6735610961914062,0.4914875030517578,-0.1822516918182373,2023-10-21T14:59:54.566285Z,1697900394566
0.6143641471862793,0.4501476287841797,-0.1685786247253418,2023-10-21T14:59:54.588016Z,1697900394587
0.5562868118286133,0.40877532958984375,-0.15510344505310059,2023-10-21T14:59:54.606684Z,1697900394606
0.49816226959228516,0.36688232421875,-0.14160561561584473,2023-10-21T14:59:54.626949Z,1697900394626
0.44097328186035156,0.32537221908569336,-0.12821435928344727,2023-10-21T14:59:54.647229Z,1697900394647
0.3882632255554199,0.2868828773498535,-0.11575651168823242,2023-10-21T14:59:54.667451Z,1697900394667
0.34333372116088867,0.25386667251586914,-0.10508179664611816,2023-10-21T14:59:54.687885Z,1697900394687
0.30837583541870117,0.22800827026367188,-0.09688377380371094,2023-10-21T14:59:54.708002Z,1697900394707
0.2829723358154297,0.2091050148010254,-0.09118175506591797,2023-10-21T14:59:54.728275Z,1697900394728
0.2658209800720215,0.19624090194702148,-0.08774876594543457,2023-10-21T14:59:54.748573Z,1697900394748
0.25572967529296875,0.1885528564453125,-0.08637666702270508,2023-10-21T14:59:54.771107Z,1697900394771
0.2532520294189453,0.186370849609375,-0.08738160133361816,2023-10-21T14:59:54.789029Z,1697900394788
0.2597064971923828,0.19052982330322266,-0.0913546085357666,2023-10-21T14:59:54.809337Z,1697900394809
0.2751021385192871,0.2008500099182129,-0.09841489791870117,2023-10-21T14:59:54.829596Z,1697900394829
0.2973494529724121,0.2156081199645996,-0.10794472694396973,2023-10-21T14:59:54.849817Z,1697900394849
0.32309913635253906,0.23223352432250977,-0.11882758140563965,2023-10-21T14:59:54.871191Z,1697900394871
0.35024023056030273,0.24910974502563477,-0.13039755821228027,2023-10-21T14:59:54.890399Z,1697900394890
0.3774223327636719,0.26522207260131836,-0.14228177070617676,2023-10-21T14:59:54.910652Z,1697900394910
0.4047579765319824,0.2805647850036621,-0.15459752082824707,2023-10-21T14:59:54.930909Z,1697900394930
0.43262815475463867,0.2952003479003906,-0.16741538047790527,2023-10-21T14:59:54.951065Z,1697900394951
0.4614725112915039,0.30913400650024414,-0.1807117462158203,2023-10-21T14:59:54.971436Z,1697900394971
0.49159908294677734,0.3223094940185547,-0.19435763359069824,2023-10-21T14:59:54.991685Z,1697900394991
0.5230369567871094,0.3345217704772949,-0.20813417434692383,2023-10-21T14:59:55.011959Z,1697900395011
0.5561995506286621,0.34587812423706055,-0.2219526767730713,2023-10-21T14:59:55.032201Z,1697900395032
0.5914254188537598,0.35636043548583984,-0.23558902740478516,2023-10-21T14:59:55.054379Z,1697900395054
0.6290216445922852,0.3658151626586914,-0.24869966506958008,2023-10-21T14:59:55.072718Z,1697900395072
0.6691293716430664,0.37392759323120117,-0.2608215808868408,2023-10-21T14:59:55.092992Z,1697900395092
0.712315559387207,0.38057708740234375,-0.2716984748840332,2023-10-21T14:59:55.113253Z,1697900395113
0.7594842910766602,0.3858203887939453,-0.2812798023223877,2023-10-21T14:59:55.133483Z,1697900395133
0.8112020492553711,0.3896756172180176,-0.28944969177246094,2023-10-21T14:59:55.154264Z,1697900395154
0.8669624328613281,0.39182186126708984,-0.2957024574279785,2023-10-21T14:59:55.174059Z,1697900395174
0.9253301620483398,0.3917708396911621,-0.2992591857910156,2023-10-21T14:59:55.194309Z,1697900395194
0.9840736389160156,0.38894176483154297,-0.29920530319213867,2023-10-21T14:59:55.214611Z,1697900395214
1.0417976379394531,0.3832237720489502,-0.29511547088623047,2023-10-21T14:59:55.237894Z,1697900395237
1.0973176956176758,0.37474584579467773,-0.28685998916625977,2023-10-21T14:59:55.255198Z,1697900395255
1.1488523483276367,0.3635594844818115,-0.2743527889251709,2023-10-21T14:59:55.275386Z,1697900395275
1.1942253112792969,0.3498704433441162,-0.2575085163116455,2023-10-21T14:59:55.295624Z,1697900395295
1.230886459350586,0.33397817611694336,-0.23615097999572754,2023-10-21T14:59:55.315864Z,1697900395315
1.2551498413085938,0.3160233497619629,-0.21013247966766357,2023-10-21T14:59:55.337413Z,1697900395337
1.2618560791015625,0.29581236839294434,-0.17972230911254883,2023-10-21T14:59:55.356423Z,1697900395356
1.244847297668457,0.27295351028442383,-0.14579331874847412,2023-10-21T14:59:55.376719Z,1697900395376
1.198542594909668,0.2471848726272583,-0.10989439487457275,2023-10-21T14:59:55.396910Z,1697900395396
1.1211566925048828,0.2187708616256714,-0.07411551475524902,2023-10-21T14:59:55.417192Z,1697900395417
1.0125036239624023,0.1880568265914917,-0.040780842304229736,2023-10-21T14:59:55.437422Z,1697900395437
0.871373176574707,0.15527522563934326,-0.012446790933609009,2023-10-21T14:59:55.457782Z,1697900395457
0.6949691772460938,0.12018418312072754,0.008160926401615143,2023-10-21T14:59:55.478019Z,1697900395477
0.4823179244995117,0.08211314678192139,0.018232256174087524,2023-10-21T14:59:55.498259Z,1697900395498
0.23814105987548828,0.040461182594299316,0.015273094177246094,2023-10-21T14:59:55.520874Z,1697900395520
-0.027655601501464844,-0.004736185073852539,-0.002520322799682617,2023-10-21T14:59:55.538766Z,1697900395538
-0.30480098724365234,-0.05300021171569824,-0.03634500503540039,2023-10-21T14:59:55.559064Z,1697900395559
-0.5805397033691406,-0.10316646099090576,-0.08594214916229248,2023-10-21T14:59:55.579356Z,1697900395579
-0.8458776473999023,-0.15478897094726562,-0.15085864067077637,2023-10-21T14:59:55.599550Z,1697900395599
-1.0880908966064453,-0.20667731761932373,-0.22818005084991455,2023-10-21T14:59:55.620785Z,1697900395620
-1.291855812072754,-0.2565805912017822,-0.3131296634674072,2023-10-21T14:59:55.640091Z,1697900395640
-1.4539084434509277,-0.30362987518310547,-0.39894556999206543,2023-10-21T14:59:55.660388Z,1697900395660
-1.5743045806884766,-0.34626317024230957,-0.4790370464324951,2023-10-21T14:59:55.680648Z,1697900395680
-1.6602530479431152,-0.3844066858291626,-0.5515172481536865,2023-10-21T14:59:55.703967Z,1697900395703
-1.7166557312011719,-0.41803598403930664,-0.6147637367248535,2023-10-21T14:59:55.721206Z,1697900395721
-1.7463030815124512,-0.44740307331085205,-0.6660361289978027,2023-10-21T14:59:55.741448Z,1697900395741
-1.7560787200927734,-0.4743766784667969,-0.7044119834899902,2023-10-21T14:59:55.761722Z,1697900395761
-1.7532916069030762,-0.50091552734375,-0.7329301834106445,2023-10-21T14:59:55.781980Z,1697900395781
-1.7448697090148926,-0.5281128883361816,-0.7518887519836426,2023-10-21T14:59:55.803922Z,1697900395803
-1.737790584564209,-0.5578818321228027,-0.7652449607849121,2023-10-21T14:59:55.822513Z,1697900395822
-1.7411022186279297,-0.5934545993804932,-0.7764246463775635,2023-10-21T14:59:55.842772Z,1697900395842
-1.7464923858642578,-0.631721019744873,-0.7854671478271484,2023-10-21T14:59:55.863059Z,1697900395863
-1.744168758392334,-0.6681911945343018,-0.7898116111755371,2023-10-21T14:59:55.883234Z,1697900395883
-1.7244315147399902,-0.696636438369751,-0.7831418514251709,2023-10-21T14:59:55.903767Z,1697900395903
-1.6857519149780273,-0.7151238918304443,-0.7632999420166016,2023-10-21T14:59:55.923878Z,1697900395923
-1.630904197692871,-0.7245073318481445,-0.7318611145019531,2023-10-21T14:59:55.944087Z,1697900395944
-1.5583000183105469,-0.722083330154419,-0.689056396484375,2023-10-21T14:59:55.964314Z,1697900395964
-1.464268684387207,-0.7034566402435303,-0.6342601776123047,2023-10-21T14:59:55.987329Z,1697900395987
-1.3474411964416504,-0.6665523052215576,-0.5684008598327637,2023-10-21T14:59:56.004811Z,1697900396004
-1.209582805633545,-0.6130917072296143,-0.49419593811035156,2023-10-21T14:59:56.025138Z,1697900396025
-1.0536751747131348,-0.5461597442626953,-0.4149208068847656,2023-10-21T14:59:56.045410Z,1697900396045
-0.8839359283447266,-0.46834492683410645,-0.3335883617401123,2023-10-21T14:59:56.065653Z,1697900396065
-0.707146167755127,-0.3831477165222168,-0.25476527214050293,2023-10-21T14:59:56.086833Z,1697900396086
-0.5321722030639648,-0.29499244689941406,-0.1816256046295166,2023-10-21T14:59:56.106186Z,1697900396106
-0.3695497512817383,-0.20985984802246094,-0.11870050430297852,2023-10-21T14:59:56.126475Z,1697900396126
-0.23165082931518555,-0.13511228561401367,-0.06946802139282227,2023-10-21T14:59:56.146652Z,1697900396146
-0.11927127838134766,-0.07164382934570312,-0.03327298164367676,2023-10-21T14:59:56.166926Z,1697900396166
-0.031304359436035156,-0.01942729949951172,-0.008109807968139648,2023-10-21T14:59:56.187226Z,1697900396187
0.0396728515625,0.025482177734375,0.009495377540588379,2023-10-21T14:59:56.207485Z,1697900396207
0.0992116928100586,0.06595182418823242,0.021767139434814453,2023-10-21T14:59:56.227744Z,1697900396227
0.14707660675048828,0.10103893280029297,0.029363155364990234,2023-10-21T14:59:56.247971Z,1697900396247
0.18407201766967773,0.1303110122680664,0.03325176239013672,2023-10-21T14:59:56.270378Z,1697900396270
0.21471405029296875,0.15607976913452148,0.034746646881103516,2023-10-21T14:59:56.288569Z,1697900396288
0.24280643463134766,0.1806340217590332,0.035053372383117676,2023-10-21T14:59:56.308888Z,1697900396308
0.27547264099121094,0.20887279510498047,0.03526449203491211,2023-10-21T14:59:56.329168Z,1697900396329
0.3195199966430664,0.2456831932067871,0.036240339279174805,2023-10-21T14:59:56.349323Z,1697900396349
0.37399768829345703,0.2902998924255371,0.03702360391616821,2023-10-21T14:59:56.370006Z,1697900396369
0.43576765060424805,0.3401370048522949,0.03656923770904541,2023-10-21T14:59:56.389916Z,1697900396389
0.49683570861816406,0.38914012908935547,0.03412985801696777,2023-10-21T14:59:56.410181Z,1697900396410
0.5525984764099121,0.43369531631469727,0.02964875102043152,2023-10-21T14:59:56.430434Z,1697900396430
0.6032352447509766,0.4737987518310547,0.02332630753517151,2023-10-21T14:59:56.453518Z,1697900396453
0.647857666015625,0.509087085723877,0.015236645936965942,2023-10-21T14:59:56.470916Z,1697900396470
0.6862592697143555,0.5396113395690918,0.005583532154560089,2023-10-21T14:59:56.491271Z,1697900396491
0.7198781967163086,0.5663313865661621,-0.005322031676769257,2023-10-21T14:59:56.511530Z,1697900396511
0.7508058547973633,0.590482234954834,-0.01723611354827881,2023-10-21T14:59:56.531754Z,1697900396531
0.7786855697631836,0.6116786003112793,-0.030058056116104126,2023-10-21T14:59:56.553327Z,1697900396553
0.8010358810424805,0.6284503936767578,-0.0436042845249176,2023-10-21T14:59:56.572322Z,1697900396572
0.8156471252441406,0.6397900581359863,-0.05746549367904663,2023-10-21T14:59:56.592556Z,1697900396592
0.822845458984375,0.6462516784667969,-0.07115679979324341,2023-10-21T14:59:56.612771Z,1697900396612
0.8255734443664551,0.6498961448669434,-0.08450663089752197,2023-10-21T14:59:56.633036Z,1697900396632
0.8255071640014648,0.6516928672790527,-0.09743905067443848,2023-10-21T14:59:56.653259Z,1697900396653
0.8214225769042969,0.650665283203125,-0.10970580577850342,2023-10-21T14:59:56.673578Z,1697900396673
0.809211254119873,0.6438751220703125,-0.12057983875274658,2023-10-21T14:59:56.693854Z,1697900396693
0.7847223281860352,0.6284394264221191,-0.1292412281036377,2023-10-21T14:59:56.714049Z,1697900396714
0.7455635070800781,0.6026797294616699,-0.13511192798614502,2023-10-21T14:59:56.736473Z,1697900396736
0.6938557624816895,0.5679545402526855,-0.1380387544631958,2023-10-21T14:59:56.754638Z,1697900396754
0.6347103118896484,0.527493953704834,-0.13828325271606445,2023-10-21T14:59:56.774914Z,1697900396774
0.5730500221252441,0.4842839241027832,-0.13624250888824463,2023-10-21T14:59:56.795151Z,1697900396795
0.5120172500610352,0.4403257369995117,-0.13233160972595215,2023-10-21T14:59:56.815397Z,1697900396815
0.452880859375,0.3965725898742676,-0.1268174648284912,2023-10-21T14:59:56.836441Z,1697900396836
0.3977541923522949,0.3549075126647949,-0.12029623985290527,2023-10-21T14:59:56.855986Z,1697900396855
0.34918880462646484,0.31769514083862305,-0.11371231079101562,2023-10-21T14:59:56.876275Z,1697900396876
0.3095536231994629,0.28728437423706055,-0.10818862915039062,2023-10-21T14:59:56.896464Z,1697900396896
0.28069067001342773,0.26570796966552734,-0.1048576831817627,2023-10-21T14:59:56.919839Z,1697900396919
0.26311492919921875,0.2538771629333496,-0.10449743270874023,2023-10-21T14:59:56.937059Z,1697900396937
0.25539255142211914,0.2507967948913574,-0.10713028907775879,2023-10-21T14:59:56.957276Z,1697900396957
0.2549924850463867,0.2543048858642578,-0.11223363876342773,2023-10-21T14:59:56.977558Z,1697900396977
0.25867700576782227,0.2614741325378418,-0.11878490447998047,2023-10-21T14:59:56.997842Z,1697900396997
0.26332998275756836,0.2694110870361328,-0.12557625770568848,2023-10-21T14:59:57.019537Z,1697900397019
0.2662997245788574,0.2755775451660156,-0.13138222694396973,2023-10-21T14:59:57.038360Z,1697900397038
0.2657904624938965,0.27809715270996094,-0.13519906997680664,2023-10-21T14:59:57.058641Z,1697900397058
0.26152610778808594,0.2764396667480469,-0.13666462898254395,2023-10-21T14:59:57.078835Z,1697900397078
0.25418853759765625,0.27106237411499023,-0.13595199584960938,2023-10-21T14:59:57.098985Z,1697900397098
0.24426937103271484,0.2624044418334961,-0.13327598571777344,2023-10-21T14:59:57.119606Z,1697900397119
0.23176860809326172,0.250551700592041,-0.12864375114440918,2023-10-21T14:59:57.139884Z,1697900397139
0.2173771858215332,0.23635387420654297,-0.12245559692382812,2023-10-21T14:59:57.159906Z,1697900397159
0.20237445831298828,0.22124385833740234,-0.11541962623596191,2023-10-21T14:59:57.180113Z,1697900397180
0.1891765594482422,0.20781278610229492,-0.10893726348876953,2023-10-21T14:59:57.202898Z,1697900397202
0.17988109588623047,0.19836902618408203,-0.10430216789245605,2023-10-21T14:59:57.220676Z,1697900397220
0.17601776123046875,0.19464492797851562,-0.10249996185302734,2023-10-21T14:59:57.241Z,1697900397240
0.17797517776489258,0.1971449851989746,-0.10384798049926758,2023-10-21T14:59:57.261224Z,1697900397261
0.18477487564086914,0.2049102783203125,-0.10786223411560059,2023-10-21T14:59:57.281423Z,1697900397281
0.1947789192199707,0.21622514724731445,-0.11364364624023438,2023-10-21T14:59:57.302744Z,1697900397302
0.20590448379516602,0.22883176803588867,-0.12001419067382812,2023-10-21T14:59:57.322053Z,1697900397322
0.21659278869628906,0.24093055725097656,-0.12606024742126465,2023-10-21T14:59:57.342271Z,1697900397342
0.2255244255065918,0.25092554092407227,-0.13100361824035645,2023-10-21T14:59:57.362445Z,1697900397362
0.2318282127380371,0.25771427154541016,-0.1343250274658203,2023-10-21T14:59:57.382728Z,1697900397382
0.2349867820739746,0.26067590713500977,-0.13573861122131348,2023-10-21T14:59:57.403028Z,1697900397402
0.23500347137451172,0.2597951889038086,-0.1352672576904297,2023-10-21T14:59:57.423373Z,1697900397423
0.23223495483398438,0.2554965019226074,-0.13314437866210938,2023-10-21T14:59:57.443565Z,1697900397443
0.22734832763671875,0.2485980987548828,-0.1297895908355713,2023-10-21T14:59:57.463853Z,1697900397463
0.2210683822631836,0.2400059700012207,-0.12564349174499512,2023-10-21T14:59:57.486018Z,1697900397485
0.21397733688354492,0.23047685623168945,-0.12106013298034668,2023-10-21T14:59:57.504389Z,1697900397504
0.20688343048095703,0.22098541259765625,-0.1165163516998291,2023-10-21T14:59:57.524644Z,1697900397524
0.2007613182067871,0.21263408660888672,-0.11257529258728027,2023-10-21T14:59:57.544851Z,1697900397544
0.19660377502441406,0.20648956298828125,-0.10979866981506348,2023-10-21T14:59:57.565095Z,1697900397565
0.19488906860351562,0.20303916931152344,-0.10844588279724121,2023-10-21T14:59:57.585802Z,1697900397585
0.19548273086547852,0.2021026611328125,-0.10843205451965332,2023-10-21T14:59:57.605689Z,1697900397605
0.19761180877685547,0.20283889770507812,-0.10930418968200684,2023-10-21T14:59:57.625961Z,1697900397625
0.20038795471191406,0.20431089401245117,-0.11055469512939453,2023-10-21T14:59:57.646207Z,1697900397646
0.2029428482055664,0.20559978485107422,-0.11169147491455078,2023-10-21T14:59:57.669278Z,1697900397669
0.2048511505126953,0.20623159408569336,-0.11246585845947266,2023-10-21T14:59:57.686711Z,1697900397686
0.20611572265625,0.20616912841796875,-0.11286807060241699,2023-10-21T14:59:57.707040Z,1697900397706
0.2068467140197754,0.20548343658447266,-0.11295819282531738,2023-10-21T14:59:57.727260Z,1697900397727
0.20715713500976562,0.2042708396911621,-0.11279416084289551,2023-10-21T14:59:57.747447Z,1697900397747
0.20694446563720703,0.20246124267578125,-0.11233901977539062,2023-10-21T14:59:57.769002Z,1697900397768
0.20642518997192383,0.2002873420715332,-0.11173629760742188,2023-10-21T14:59:57.788043Z,1697900397788
0.20594167709350586,0.19811058044433594,-0.11119222640991211,2023-10-21T14:59:57.808332Z,1697900397808
0.20587396621704102,0.1963186264038086,-0.11094403266906738,2023-10-21T14:59:57.828495Z,1697900397828
0.20631647109985352,0.19502830505371094,-0.11107540130615234,2023-10-21T14:59:57.848765Z,1697900397848
0.20714569091796875,0.1941356658935547,-0.11154413223266602,2023-10-21T14:59:57.869457Z,1697900397869
0.20812606811523438,0.1934375762939453,-0.11225628852844238,2023-10-21T14:59:57.889483Z,1697900397889
0.2090754508972168,0.19275236129760742,-0.11312317848205566,2023-10-21T14:59:57.909672Z,1697900397909
0.20998048782348633,0.19206714630126953,-0.11415219306945801,2023-10-21T14:59:57.929836Z,1697900397929
0.2109208106994629,0.19142866134643555,-0.11536931991577148,2023-10-21T14:59:57.952804Z,1697900397952
0.2122783660888672,0.19115257263183594,-0.11695313453674316,2023-10-21T14:59:57.970419Z,1697900397970
0.2144336700439453,0.19154644012451172,-0.11907124519348145,2023-10-21T14:59:57.990687Z,1697900397990
0.21780967712402344,0.19295549392700195,-0.12193036079406738,2023-10-21T14:59:58.010935Z,1697900398010
0.2228860855102539,0.1957712173461914,-0.12578773498535156,2023-10-21T14:59:58.031208Z,1697900398031
0.22986507415771484,0.20012855529785156,-0.13074374198913574,2023-10-21T14:59:58.052268Z,1697900398052
0.23850584030151367,0.20579910278320312,-0.13664579391479492,2023-10-21T14:59:58.071751Z,1697900398071
0.24794626235961914,0.21201372146606445,-0.14294743537902832,2023-10-21T14:59:58.092023Z,1697900398091
0.25734853744506836,0.21804141998291016,-0.1490771770477295,2023-10-21T14:59:58.112207Z,1697900398112
0.26603174209594727,0.22327709197998047,-0.15452837944030762,2023-10-21T14:59:58.135539Z,1697900398135
0.2737579345703125,0.22745656967163086,-0.1590280532836914,2023-10-21T14:59:58.152766Z,1697900398152
0.28047752380371094,0.2304701805114746,-0.16243648529052734,2023-10-21T14:59:58.173073Z,1697900398173
0.2859158515930176,0.23206043243408203,-0.16452956199645996,2023-10-21T14:59:58.193342Z,1697900398193
0.28968191146850586,0.2319173812866211,-0.165053129196167,2023-10-21T14:59:58.213561Z,1697900398213
0.2916097640991211,0.2299647331237793,-0.16393136978149414,2023-10-21T14:59:58.235458Z,1697900398235
0.2922062873840332,0.22661685943603516,-0.16145730018615723,2023-10-21T14:59:58.254101Z,1697900398254
0.2929520606994629,0.22295427322387695,-0.1584327220916748,2023-10-21T14:59:58.274402Z,1697900398274
0.2955441474914551,0.22014665603637695,-0.15570855140686035,2023-10-21T14:59:58.294628Z,1697900398294
0.30098628997802734,0.21878385543823242,-0.15371322631835938,2023-10-21T14:59:58.314760Z,1697900398314
0.3099374771118164,0.21916627883911133,-0.15267372131347656,2023-10-21T14:59:58.335616Z,1697900398335
0.3228340148925781,0.22146081924438477,-0.15270018577575684,2023-10-21T14:59:58.355487Z,1697900398355
0.34000349044799805,0.2257242202758789,-0.15378713607788086,2023-10-21T14:59:58.375755Z,1697900398375
0.36214733123779297,0.23219728469848633,-0.15602564811706543,2023-10-21T14:59:58.395933Z,1697900398395
0.38978004455566406,0.24086380004882812,-0.15928387641906738,2023-10-21T14:59:58.418889Z,1697900398418
0.42291831970214844,0.25132131576538086,-0.16313767433166504,2023-10-21T14:59:58.436472Z,1697900398436
0.4611778259277344,0.262972354888916,-0.1670377254486084,2023-10-21T14:59:58.456735Z,1697900398456
0.5030193328857422,0.2747225761413574,-0.17015886306762695,2023-10-21T14:59:58.477031Z,1697900398476
0.5462923049926758,0.2853684425354004,-0.17171597480773926,2023-10-21T14:59:58.497179Z,1697900398497
0.5887508392333984,0.29385900497436523,-0.171036958694458,2023-10-21T14:59:58.518623Z,1697900398518
0.6290416717529297,0.2997322082519531,-0.1677706241607666,2023-10-21T14:59:58.537780Z,1697900398537
0.6669759750366211,0.3030576705932617,-0.16186785697937012,2023-10-21T14:59:58.558062Z,1697900398558
0.7034025192260742,0.3043694496154785,-0.1535782814025879,2023-10-21T14:59:58.578249Z,1697900398578
0.7384214401245117,0.3038928508758545,-0.14302599430084229,2023-10-21T14:59:58.598441Z,1697900398598
0.7709112167358398,0.3014500141143799,-0.13023734092712402,2023-10-21T14:59:58.618816Z,1697900398618
0.7991514205932617,0.2967681884765625,-0.11536002159118652,2023-10-21T14:59:58.639225Z,1697900398639
0.8209400177001953,0.2894909381866455,-0.09862160682678223,2023-10-21T14:59:58.659453Z,1697900398659
0.834416389465332,0.27948808670043945,-0.08039987087249756,2023-10-21T14:59:58.679628Z,1697900398679
0.8382816314697266,0.26692652702331543,-0.06114459037780762,2023-10-21T14:59:58.701791Z,1697900398701
0.8319377899169922,0.2522165775299072,-0.04145514965057373,2023-10-21T14:59:58.721535Z,1697900398721
0.8149871826171875,0.23577070236206055,-0.022005438804626465,2023-10-21T14:59:58.740489Z,1697900398740
0.7855472564697266,0.21751046180725098,-0.003512248396873474,2023-10-21T14:59:58.760693Z,1697900398760
0.7400922775268555,0.19694781303405762,0.013096615672111511,2023-10-21T14:59:58.780924Z,1697900398780
0.6744308471679688,0.17339801788330078,0.026495695114135742,2023-10-21T14:59:58.801846Z,1697900398801
0.5866813659667969,0.1466214656829834,0.035207927227020264,2023-10-21T14:59:58.821506Z,1697900398821
0.47879695892333984,0.11694884300231934,0.03824305534362793,2023-10-21T14:59:58.841776Z,1697900398841
0.354827880859375,0.08494377136230469,0.035180628299713135,2023-10-21T14:59:58.862021Z,1697900398861
0.21817398071289062,0.051178932189941406,0.025795340538024902,2023-10-21T14:59:58.885094Z,1697900398885
0.0705718994140625,0.01618194580078125,0.009726524353027344,2023-10-21T14:59:58.902498Z,1697900398902
-0.08548641204833984,-0.019104957580566406,-0.013514280319213867,2023-10-21T14:59:58.922806Z,1697900398922
-0.24388408660888672,-0.052993178367614746,-0.04359316825866699,2023-10-21T14:59:58.943119Z,1697900398943
-0.39701175689697266,-0.08364760875701904,-0.07925736904144287,2023-10-21T14:59:58.963402Z,1697900398963
-0.5363368988037109,-0.10910892486572266,-0.1178293228149414,2023-10-21T14:59:58.984963Z,1697900398984
-0.6573352813720703,-0.12854456901550293,-0.1572885513305664,2023-10-21T14:59:59.003864Z,1697900399003
-0.760127067565918,-0.14254391193389893,-0.19632649421691895,2023-10-21T14:59:59.024217Z,1697900399024
-0.8511323928833008,-0.15336346626281738,-0.23532366752624512,2023-10-21T14:59:59.044404Z,1697900399044
-0.938385009765625,-0.16385185718536377,-0.27551722526550293,2023-10-21T14:59:59.064603Z,1697900399064
-1.0211963653564453,-0.17503619194030762,-0.3157021999359131,2023-10-21T14:59:59.084885Z,1697900399084
-1.0942468643188477,-0.18695509433746338,-0.35228848457336426,2023-10-21T14:59:59.105195Z,1697900399105
-1.1546812057495117,-0.19970989227294922,-0.38272976875305176,2023-10-21T14:59:59.125448Z,1697900399125
-1.206070899963379,-0.21419072151184082,-0.40766048431396484,2023-10-21T14:59:59.145699Z,1697900399145
-1.2548608779907227,-0.23217523097991943,-0.42900562286376953,2023-10-21T14:59:59.168295Z,1697900399168
-1.3037409782409668,-0.2549409866333008,-0.44868946075439453,2023-10-21T14:59:59.186214Z,1697900399186
-1.3512721061706543,-0.28220605850219727,-0.4648740291595459,2023-10-21T14:59:59.206494Z,1697900399206
-1.3931665420532227,-0.3120824098587036,-0.47547340393066406,2023-10-21T14:59:59.226772Z,1697900399226
-1.4234819412231445,-0.3415670394897461,-0.4780733585357666,2023-10-21T14:59:59.247050Z,1697900399246
-1.4355788230895996,-0.3672527074813843,-0.47034144401550293,2023-10-21T14:59:59.268184Z,1697900399268
-1.4290108680725098,-0.3877091407775879,-0.4528048038482666,2023-10-21T14:59:59.287605Z,1697900399287
-1.4061026573181152,-0.4024841785430908,-0.42756199836730957,2023-10-21T14:59:59.307886Z,1697900399307
-1.3692607879638672,-0.41145873069763184,-0.39685535430908203,2023-10-21T14:59:59.328092Z,1697900399328
-1.320894718170166,-0.4152059555053711,-0.3622925281524658,2023-10-21T14:59:59.351444Z,1697900399351
-1.2624292373657227,-0.41448378562927246,-0.32470059394836426,2023-10-21T14:59:59.368603Z,1697900399368
-1.195173740386963,-0.4099278450012207,-0.2850297689437866,2023-10-21T14:59:59.388887Z,1697900399388
-1.1190109252929688,-0.40120553970336914,-0.2437136173248291,2023-10-21T14:59:59.409153Z,1697900399409
-1.0330109596252441,-0.3872087001800537,-0.20184850692749023,2023-10-21T14:59:59.429378Z,1697900399429
-0.9395847320556641,-0.3681457042694092,-0.16142570972442627,2023-10-21T14:59:59.451336Z,1697900399451
-0.843719482421875,-0.34578871726989746,-0.12415778636932373,2023-10-21T14:59:59.469940Z,1697900399469
-0.7509765625,-0.3225696086883545,-0.09192276000976562,2023-10-21T14:59:59.490217Z,1697900399490
-0.6622095108032227,-0.29860520362854004,-0.06421655416488647,2023-10-21T14:59:59.510448Z,1697900399510
-0.5739841461181641,-0.27161550521850586,-0.04067438840866089,2023-10-21T14:59:59.530712Z,1697900399530
-0.4802112579345703,-0.23764944076538086,-0.021263211965560913,2023-10-21T14:59:59.551205Z,1697900399551
-0.37683677673339844,-0.1938004493713379,-0.006636321544647217,2023-10-21T14:59:59.571306Z,1697900399571
-0.2685251235961914,-0.14253997802734375,0.002344168722629547,2023-10-21T14:59:59.591564Z,1697900399591
-0.16384410858154297,-0.08925676345825195,0.0055799782276153564,2023-10-21T14:59:59.611786Z,1697900399611
-0.066680908203125,-0.03710746765136719,0.0038803517818450928,2023-10-21T14:59:59.634627Z,1697900399634
0.026518821716308594,0.015011787414550781,-0.0021518468856811523,2023-10-21T14:59:59.652293Z,1697900399652
0.12039375305175781,0.06898641586303711,-0.012384533882141113,2023-10-21T14:59:59.672579Z,1697900399672
0.21856307983398438,0.12610435485839844,-0.02708423137664795,2023-10-21T14:59:59.692896Z,1697900399692
0.31806182861328125,0.18397951126098633,-0.045723557472229004,2023-10-21T14:59:59.713090Z,1697900399713
0.41652393341064453,0.24092769622802734,-0.06770443916320801,2023-10-21T14:59:59.734400Z,1697900399734
0.5105381011962891,0.29510927200317383,-0.0921710729598999,2023-10-21T14:59:59.753626Z,1697900399753
0.5950088500976562,0.3440089225769043,-0.11776590347290039,2023-10-21T14:59:59.773926Z,1697900399773
0.669764518737793,0.387692928314209,-0.1436678171157837,2023-10-21T14:59:59.794158Z,1697900399794
0.7379188537597656,0.42786169052124023,-0.16965985298156738,2023-10-21T14:59:59.814344Z,1697900399814
0.8018569946289062,0.4657306671142578,-0.1955416202545166,2023-10-21T14:59:59.834648Z,1697900399834
0.8621740341186523,0.5015144348144531,-0.22090888023376465,2023-10-21T14:59:59.854971Z,1697900399854
0.917078971862793,0.534212589263916,-0.2448101043701172,2023-10-21T14:59:59.875300Z,1697900399875
0.9665384292602539,0.5638442039489746,-0.2668616771697998,2023-10-21T14:59:59.895484Z,1697900399895
1.0102424621582031,0.5904664993286133,-0.2869091033935547,2023-10-21T14:59:59.916599Z,1697900399916
1.0465145111083984,0.613438606262207,-0.3047215938568115,2023-10-21T14:59:59.935880Z,1697900399935
1.0732221603393555,0.6318130493164062,-0.3199427127838135,2023-10-21T14:59:59.956301Z,1697900399956
1.090458869934082,0.6455874443054199,-0.3326704502105713,2023-10-21T14:59:59.976477Z,1697900399976
1.098893165588379,0.6548981666564941,-0.34313178062438965,2023-10-21T14:59:59.996698Z,1697900399996
1.0976381301879883,0.6591253280639648,-0.35102391242980957,2023-10-21T15:00:00.016986Z,1697900400016
1.085000991821289,0.6574606895446777,-0.3557929992675781,2023-10-21T15:00:00.037275Z,1697900400037
1.0596084594726562,0.6493721008300781,-0.35683417320251465,2023-10-21T15:00:00.057610Z,1697900400057
1.0225257873535156,0.6354775428771973,-0.3542203903198242,2023-10-21T15:00:00.077857Z,1697900400077
0.9756050109863281,0.616574764251709,-0.34822702407836914,2023-10-21T15:00:00.100866Z,1697900400100
0.9211273193359375,0.5933799743652344,-0.3392601013183594,2023-10-21T15:00:00.118379Z,1697900400118
0.8613443374633789,0.5665950775146484,-0.32772326469421387,2023-10-21T15:00:00.138670Z,1697900400138
0.7983708381652832,0.5369687080383301,-0.3140087127685547,2023-10-21T15:00:00.158904Z,1697900400158
0.7337379455566406,0.505058765411377,-0.2983722686767578,2023-10-21T15:00:00.179211Z,1697900400179
0.6691513061523438,0.4716768264770508,-0.28127288818359375,2023-10-21T15:00:00.200695Z,1697900400200
0.6063599586486816,0.43781185150146484,-0.2633998394012451,2023-10-21T15:00:00.219702Z,1697900400219
0.5466423034667969,0.4042329788208008,-0.24535608291625977,2023-10-21T15:00:00.239989Z,1697900400239
0.49063730239868164,0.3714323043823242,-0.2275714874267578,2023-10-21T15:00:00.260241Z,1697900400260
0.4391188621520996,0.34007978439331055,-0.21056222915649414,2023-10-21T15:00:00.280451Z,1697900400280
0.3927950859069824,0.31090354919433594,-0.19486570358276367,2023-10-21T15:00:00.300706Z,1697900400300
0.3516712188720703,0.28422021865844727,-0.1806778907775879,2023-10-21T15:00:00.321033Z,1697900400320
0.31543970108032227,0.26013851165771484,-0.16800332069396973,2023-10-21T15:00:00.341288Z,1697900400341
0.28346967697143555,0.2384781837463379,-0.15662074089050293,2023-10-21T15:00:00.361543Z,1697900400361
0.25653600692749023,0.22013235092163086,-0.1470797061920166,2023-10-21T15:00:00.384037Z,1697900400384
0.2357034683227539,0.2062520980834961,-0.14018630981445312,2023-10-21T15:00:00.402058Z,1697900400402
0.2217402458190918,0.1977238655090332,-0.13664865493774414,2023-10-21T15:00:00.422360Z,1697900400422
0.21492815017700195,0.19501924514770508,-0.13691139221191406,2023-10-21T15:00:00.442618Z,1697900400442
0.21435546875,0.19748687744140625,-0.14059925079345703,2023-10-21T15:00:00.462849Z,1697900400462
0.2182912826538086,0.2036433219909668,-0.1466693878173828,2023-10-21T15:00:00.483896Z,1697900400483
0.22541093826293945,0.21225500106811523,-0.15417051315307617,2023-10-21T15:00:00.503448Z,1697900400503
0.23592901229858398,0.22335577011108398,-0.16307783126831055,2023-10-21T15:00:00.523674Z,1697900400523
0.25049400329589844,0.23724651336669922,-0.17361021041870117,2023-10-21T15:00:00.543934Z,1697900400543
0.2696108818054199,0.25396108627319336,-0.1858539581298828,2023-10-21T15:00:00.567196Z,1697900400567
0.2925548553466797,0.2723226547241211,-0.19903898239135742,2023-10-21T15:00:00.584402Z,1697900400584
0.3184680938720703,0.29102039337158203,-0.21230268478393555,2023-10-21T15:00:00.604690Z,1697900400604
0.34706974029541016,0.3093571662902832,-0.2252497673034668,2023-10-21T15:00:00.624968Z,1697900400624
0.3787527084350586,0.32729482650756836,-0.23799562454223633,2023-10-21T15:00:00.645194Z,1697900400645
0.4149208068847656,0.3456258773803711,-0.25128793716430664,2023-10-21T15:00:00.667079Z,1697900400667
0.4578700065612793,0.36562204360961914,-0.2662343978881836,2023-10-21T15:00:00.685806Z,1697900400685
0.5097298622131348,0.38797903060913086,-0.2834925651550293,2023-10-21T15:00:00.706052Z,1697900400706
0.5721473693847656,0.4126448631286621,-0.3030872344970703,2023-10-21T15:00:00.726288Z,1697900400726
0.6462101936340332,0.4390082359313965,-0.32451748847961426,2023-10-21T15:00:00.746465Z,1697900400746
0.7334089279174805,0.4666862487792969,-0.34738945960998535,2023-10-21T15:00:00.766942Z,1697900400766
0.8352413177490234,0.49543142318725586,-0.3712782859802246,2023-10-21T15:00:00.787211Z,1697900400787
0.952143669128418,0.524498462677002,-0.39528322219848633,2023-10-21T15:00:00.807414Z,1697900400807
1.0833349227905273,0.5527229309082031,-0.4179239273071289,2023-10-21T15:00:00.827617Z,1697900400827
1.2271404266357422,0.5787210464477539,-0.43734025955200195,2023-10-21T15:00:00.850478Z,1697900400850
1.3805360794067383,0.6008396148681641,-0.4514601230621338,2023-10-21T15:00:00.868096Z,1697900400868
1.5386285781860352,0.617196798324585,-0.45815253257751465,2023-10-21T15:00:00.888396Z,1697900400888
1.695023536682129,0.6262156963348389,-0.45572924613952637,2023-10-21T15:00:00.908699Z,1697900400908
1.842519760131836,0.6270437240600586,-0.44323015213012695,2023-10-21T15:00:00.928896Z,1697900400928
1.974360466003418,0.6198704242706299,-0.42090630531311035,2023-10-21T15:00:00.950197Z,1697900400950
2.0831613540649414,0.6052160263061523,-0.38956665992736816,2023-10-21T15:00:00.969454Z,1697900400969
2.1601333618164062,0.5830657482147217,-0.35020744800567627,2023-10-21T15:00:00.989739Z,1697900400989
2.195589065551758,0.5531339645385742,-0.3040025234222412,2023-10-21T15:00:01.009954Z,1697900401009
2.179205894470215,0.5151455402374268,-0.25259196758270264,2023-10-21T15:00:01.030166Z,1697900401030
2.1023855209350586,0.4693615436553955,-0.19858038425445557,2023-10-21T15:00:01.050452Z,1697900401050
1.961435317993164,0.41671037673950195,-0.14529889822006226,2023-10-21T15:00:01.070769Z,1697900401070
1.7584543228149414,0.3582773208618164,-0.09621495008468628,2023-10-21T15:00:01.091030Z,1697900401090
1.4967012405395508,0.29476797580718994,-0.05430871248245239,2023-10-21T15:00:01.111282Z,1697900401111
1.1766185760498047,0.2262411117553711,-0.021801859140396118,2023-10-21T15:00:01.133268Z,1697900401133
0.7983932495117188,0.1517874002456665,-5.771350115537643E-4,2023-10-21T15:00:01.151845Z,1697900401151
0.3665800094604492,0.06988215446472168,0.006695479154586792,2023-10-21T15:00:01.172111Z,1697900401172
-0.10389900207519531,-0.020110726356506348,-0.004101306200027466,2023-10-21T15:00:01.192359Z,1697900401192
-0.5892419815063477,-0.11686599254608154,-0.037348031997680664,2023-10-21T15:00:01.212527Z,1697900401212
-1.0606765747070312,-0.21687257289886475,-0.0941581130027771,2023-10-21T15:00:01.233301Z,1697900401233
-1.4972763061523438,-0.31703341007232666,-0.17200452089309692,2023-10-21T15:00:01.253150Z,1697900401253
-1.8937907218933105,-0.4175851345062256,-0.2697794437408447,2023-10-21T15:00:01.273410Z,1697900401273
-2.239150047302246,-0.5170416831970215,-0.3852529525756836,2023-10-21T15:00:01.293630Z,1697900401293
-2.5259923934936523,-0.6133013963699341,-0.5150349140167236,2023-10-21T15:00:01.316691Z,1697900401316
-2.747905731201172,-0.7003593444824219,-0.6453355550765991,2023-10-21T15:00:01.334169Z,1697900401334
-2.9144763946533203,-0.7750869989395142,-0.7636928558349609,2023-10-21T15:00:01.354486Z,1697900401354
-3.0408525466918945,-0.8394190073013306,-0.8626161813735962,2023-10-21T15:00:01.374736Z,1697900401374
-3.133708953857422,-0.8963125944137573,-0.936705470085144,2023-10-21T15:00:01.394970Z,1697900401394
-3.195195198059082,-0.9491455554962158,-0.9819521903991699,2023-10-21T15:00:01.416636Z,1697900401416
-3.229020118713379,-1.0004969835281372,-1.0038952827453613,2023-10-21T15:00:01.435569Z,1697900401435
-3.241373062133789,-1.0505692958831787,-1.0077131986618042,2023-10-21T15:00:01.455804Z,1697900401455
-3.234231472015381,-1.0954008102416992,-0.9908595085144043,2023-10-21T15:00:01.476024Z,1697900401475
-3.2118611335754395,-1.1356542110443115,-0.9548758268356323,2023-10-21T15:00:01.496242Z,1697900401496
-3.1696934700012207,-1.1688902378082275,-0.8985291719436646,2023-10-21T15:00:01.516494Z,1697900401516
-3.099040985107422,-1.1913113594055176,-0.8289834260940552,2023-10-21T15:00:01.536815Z,1697900401536
-2.9865055084228516,-1.1936497688293457,-0.7481894493103027,2023-10-21T15:00:01.557110Z,1697900401557
-2.822144031524658,-1.165924072265625,-0.656448483467102,2023-10-21T15:00:01.577371Z,1697900401577
-2.6075844764709473,-1.1076717376708984,-0.5584994554519653,2023-10-21T15:00:01.599833Z,1697900401599
-2.3505430221557617,-1.022641897201538,-0.4613763093948364,2023-10-21T15:00:01.617856Z,1697900401617
-2.0573835372924805,-0.9133200645446777,-0.3696070909500122,2023-10-21T15:00:01.638165Z,1697900401638
-1.7320408821105957,-0.7817034721374512,-0.2839343547821045,2023-10-21T15:00:01.658429Z,1697900401658
-1.376389980316162,-0.6295957565307617,-0.20409858226776123,2023-10-21T15:00:01.678721Z,1697900401678
-0.9977021217346191,-0.46215248107910156,-0.13211023807525635,2023-10-21T15:00:01.699960Z,1697900401699
-0.6119985580444336,-0.28779149055480957,-0.07141423225402832,2023-10-21T15:00:01.719305Z,1697900401719
-0.2437295913696289,-0.11702537536621094,-0.0250740647315979,2023-10-21T15:00:01.739513Z,1697900401739
0.08600425720214844,0.04247093200683594,0.007831394672393799,2023-10-21T15:00:01.759753Z,1697900401759
0.37044620513916016,0.18929481506347656,0.029599308967590332,2023-10-21T15:00:01.783015Z,1697900401782
0.6009254455566406,0.3194103240966797,0.04115778207778931,2023-10-21T15:00:01.800385Z,1697900401800
0.7759237289428711,0.43095922470092773,0.04364567995071411,2023-10-21T15:00:01.820687Z,1697900401820
0.8931865692138672,0.5211687088012695,0.039793580770492554,2023-10-21T15:00:01.840902Z,1697900401840
0.9624261856079102,0.5928564071655273,0.03297227621078491,2023-10-21T15:00:01.861234Z,1697900401861
0.9967479705810547,0.6500711441040039,0.02556195855140686,2023-10-21T15:00:01.882737Z,1697900401882
1.0018491744995117,0.6925854682922363,0.01842460036277771,2023-10-21T15:00:01.901609Z,1697900401901
0.9798626899719238,0.7180275917053223,0.01183713972568512,2023-10-21T15:00:01.921892Z,1697900401921
0.9406776428222656,0.7296490669250488,0.005097206681966782,2023-10-21T15:00:01.942132Z,1697900401942
0.896092414855957,0.7336721420288086,-0.0016537625342607498,2023-10-21T15:00:01.962478Z,1697900401962
0.8513278961181641,0.7332592010498047,-0.007468022406101227,2023-10-21T15:00:01.983341Z,1697900401983
0.8139195442199707,0.733708381652832,-0.01211574673652649,2023-10-21T15:00:02.004358Z,1697900402004
0.7835965156555176,0.735137939453125,-0.015656203031539917,2023-10-21T15:00:02.023347Z,1697900402023
0.762324333190918,0.739567756652832,-0.01951625943183899,2023-10-21T15:00:02.043516Z,1697900402043
0.7458124160766602,0.744168758392334,-0.024170324206352234,2023-10-21T15:00:02.066738Z,1697900402066
0.727717399597168,0.7444624900817871,-0.02927529811859131,2023-10-21T15:00:02.084023Z,1697900402083
0.7069268226623535,0.7400856018066406,-0.034379780292510986,2023-10-21T15:00:02.104340Z,1697900402104
0.6865949630737305,0.7343316078186035,-0.039537280797958374,2023-10-21T15:00:02.124578Z,1697900402124
0.6694307327270508,0.729973316192627,-0.04514262080192566,2023-10-21T15:00:02.144728Z,1697900402144
0.655820369720459,0.7273931503295898,-0.05139726400375366,2023-10-21T15:00:02.166225Z,1697900402166
0.6427288055419922,0.7237710952758789,-0.058262765407562256,2023-10-21T15:00:02.185323Z,1697900402185
0.6265435218811035,0.7158756256103516,-0.06545227766036987,2023-10-21T15:00:02.205569Z,1697900402205
0.6055965423583984,0.7022628784179688,-0.07272493839263916,2023-10-21T15:00:02.225762Z,1697900402225
0.5799398422241211,0.6829462051391602,-0.07986330986022949,2023-10-21T15:00:02.246134Z,1697900402246
0.5505056381225586,0.6585702896118164,-0.08657383918762207,2023-10-21T15:00:02.266293Z,1697900402266
0.5186672210693359,0.6301970481872559,-0.09259772300720215,2023-10-21T15:00:02.286650Z,1697900402286
0.4863157272338867,0.5995078086853027,-0.0978250503540039,2023-10-21T15:00:02.306840Z,1697900402306
0.45456838607788086,0.5675473213195801,-0.10211038589477539,2023-10-21T15:00:02.327050Z,1697900402327
0.4239020347595215,0.5350198745727539,-0.10533392429351807,2023-10-21T15:00:02.349539Z,1697900402349
0.39494848251342773,0.5031108856201172,-0.10761368274688721,2023-10-21T15:00:02.367656Z,1697900402367
0.36870908737182617,0.47345495223999023,-0.10924327373504639,2023-10-21T15:00:02.387943Z,1697900402387
0.3460860252380371,0.4473147392272949,-0.11050093173980713,2023-10-21T15:00:02.408115Z,1697900402408
0.3273448944091797,0.42496585845947266,-0.11152386665344238,2023-10-21T15:00:02.428336Z,1697900402428
0.31214284896850586,0.40607357025146484,-0.11241984367370605,2023-10-21T15:00:02.449024Z,1697900402448
0.299619197845459,0.389925479888916,-0.11329054832458496,2023-10-21T15:00:02.468996Z,1697900402468
0.28837013244628906,0.3752460479736328,-0.11401128768920898,2023-10-21T15:00:02.489240Z,1697900402489
0.27728986740112305,0.3609795570373535,-0.1143803596496582,2023-10-21T15:00:02.509466Z,1697900402509
0.2661008834838867,0.3468961715698242,-0.11438155174255371,2023-10-21T15:00:02.532407Z,1697900402532
0.25360584259033203,0.3314704895019531,-0.11358070373535156,2023-10-21T15:00:02.549997Z,1697900402549
0.23755931854248047,0.3118124008178711,-0.11097383499145508,2023-10-21T15:00:02.570336Z,1697900402570
0.21674585342407227,0.2861800193786621,-0.10576987266540527,2023-10-21T15:00:02.590615Z,1697900402590
0.1924290657043457,0.25584840774536133,-0.09820175170898438,2023-10-21T15:00:02.610711Z,1697900402610
0.16747045516967773,0.22430086135864258,-0.08939719200134277,2023-10-21T15:00:02.632358Z,1697900402632
0.14426755905151367,0.19460391998291016,-0.08049297332763672,2023-10-21T15:00:02.651406Z,1697900402651
0.12397336959838867,0.1683673858642578,-0.07219290733337402,2023-10-21T15:00:02.671658Z,1697900402671
0.10749483108520508,0.14693260192871094,-0.06518316268920898,2023-10-21T15:00:02.691850Z,1697900402691
0.09546279907226562,0.13124799728393555,-0.06008481979370117,2023-10-21T15:00:02.712037Z,1697900402712
0.08820247650146484,0.1218562126159668,-0.057390689849853516,2023-10-21T15:00:02.732370Z,1697900402732
0.0859684944152832,0.1191720962524414,-0.05754375457763672,2023-10-21T15:00:02.752668Z,1697900402752
0.08878612518310547,0.12325811386108398,-0.06081366539001465,2023-10-21T15:00:02.772894Z,1697900402772
0.09610700607299805,0.1333446502685547,-0.0670156478881836,2023-10-21T15:00:02.793155Z,1697900402793
0.10654067993164062,0.14751100540161133,-0.07531571388244629,2023-10-21T15:00:02.815672Z,1697900402815
0.1184530258178711,0.16351890563964844,-0.08465409278869629,2023-10-21T15:00:02.833667Z,1697900402833
0.13036680221557617,0.17937612533569336,-0.09405851364135742,2023-10-21T15:00:02.853999Z,1697900402853
0.14089679718017578,0.19320058822631836,-0.10259413719177246,2023-10-21T15:00:02.874208Z,1697900402874
0.14943361282348633,0.20413684844970703,-0.10984396934509277,2023-10-21T15:00:02.894489Z,1697900402894
0.15622711181640625,0.21251487731933594,-0.11600565910339355,2023-10-21T15:00:02.915516Z,1697900402915
0.16214466094970703,0.21950006484985352,-0.1217191219329834,2023-10-21T15:00:02.935017Z,1697900402934
0.1681361198425293,0.2263960838317871,-0.12771368026733398,2023-10-21T15:00:02.955312Z,1697900402955
0.17498302459716797,0.23430442810058594,-0.13458776473999023,2023-10-21T15:00:02.975510Z,1697900402975
0.18391990661621094,0.24490928649902344,-0.14330196380615234,2023-10-21T15:00:02.998825Z,1697900402998
0.19597768783569336,0.2595858573913574,-0.15468978881835938,2023-10-21T15:00:03.016008Z,1697900403015
0.21153736114501953,0.27881336212158203,-0.16910505294799805,2023-10-21T15:00:03.036347Z,1697900403036
0.23047208786010742,0.30236005783081055,-0.18645524978637695,2023-10-21T15:00:03.056593Z,1697900403056
0.25261831283569336,0.3298811912536621,-0.20653629302978516,2023-10-21T15:00:03.076822Z,1697900403076
0.27725839614868164,0.36028242111206055,-0.22863054275512695,2023-10-21T15:00:03.098689Z,1697900403098
0.3025369644165039,0.39104509353637695,-0.2510523796081543,2023-10-21T15:00:03.117376Z,1697900403117
0.32608985900878906,0.4190559387207031,-0.27167367935180664,2023-10-21T15:00:03.137661Z,1697900403137
0.34583234786987305,0.44161510467529297,-0.28856849670410156,2023-10-21T15:00:03.157880Z,1697900403157
0.3606901168823242,0.45723772048950195,-0.30064868927001953,2023-10-21T15:00:03.178056Z,1697900403178
0.3701457977294922,0.4651603698730469,-0.30736541748046875,2023-10-21T15:00:03.198625Z,1697900403198
0.374420166015625,0.4656562805175781,-0.30892324447631836,2023-10-21T15:00:03.218721Z,1697900403218
0.3741264343261719,0.45972251892089844,-0.30600881576538086,2023-10-21T15:00:03.238945Z,1697900403238
0.3701629638671875,0.44895505905151367,-0.2996835708618164,2023-10-21T15:00:03.259258Z,1697900403259
0.36368656158447266,0.4353761672973633,-0.29126453399658203,2023-10-21T15:00:03.282010Z,1697900403281
0.3562932014465332,0.42144155502319336,-0.2823657989501953,2023-10-21T15:00:03.299708Z,1697900403299
0.34995269775390625,0.40980052947998047,-0.27475690841674805,2023-10-21T15:00:03.320068Z,1697900403320
0.3462090492248535,0.40239715576171875,-0.2697110176086426,2023-10-21T15:00:03.340276Z,1697900403340
0.34567785263061523,0.3999805450439453,-0.26767730712890625,2023-10-21T15:00:03.360522Z,1697900403360
0.34802961349487305,0.40221548080444336,-0.2683281898498535,2023-10-21T15:00:03.381814Z,1697900403381
0.35231781005859375,0.4080986976623535,-0.27086830139160156,2023-10-21T15:00:03.401092Z,1697900403401
0.3575267791748047,0.4164719581604004,-0.2744121551513672,2023-10-21T15:00:03.421388Z,1697900403421
0.3627943992614746,0.4262251853942871,-0.2781195640563965,2023-10-21T15:00:03.441594Z,1697900403441
0.367093563079834,0.4358391761779785,-0.28093814849853516,2023-10-21T15:00:03.461881Z,1697900403461
0.3693356513977051,0.4435420036315918,-0.2817411422729492,2023-10-21T15:00:03.482361Z,1697900403482
0.368072509765625,0.44708728790283203,-0.2791733741760254,2023-10-21T15:00:03.502449Z,1697900403502
0.36228036880493164,0.44475603103637695,-0.2723426818847656,2023-10-21T15:00:03.522708Z,1697900403522
0.3515787124633789,0.43570995330810547,-0.2610020637512207,2023-10-21T15:00:03.542876Z,1697900403542
0.3367457389831543,0.42070674896240234,-0.2459568977355957,2023-10-21T15:00:03.565164Z,1697900403565
0.3193330764770508,0.40162229537963867,-0.22867631912231445,2023-10-21T15:00:03.583461Z,1697900403583
0.300905704498291,0.3805661201477051,-0.21064305305480957,2023-10-21T15:00:03.603754Z,1697900403603
0.28229331970214844,0.3588566780090332,-0.19275307655334473,2023-10-21T15:00:03.623991Z,1697900403623
0.263336181640625,0.336578369140625,-0.17515206336975098,2023-10-21T15:00:03.644184Z,1697900403644
0.24403667449951172,0.313906192779541,-0.15802383422851562,2023-10-21T15:00:03.664853Z,1697900403664
0.22512197494506836,0.29178953170776367,-0.14192962646484375,2023-10-21T15:00:03.684798Z,1697900403684
0.20751667022705078,0.27135562896728516,-0.12743449211120605,2023-10-21T15:00:03.705110Z,1697900403705
0.19173479080200195,0.2532310485839844,-0.11475396156311035,2023-10-21T15:00:03.725257Z,1697900403725
0.17737531661987305,0.23688220977783203,-0.10352063179016113,2023-10-21T15:00:03.748178Z,1697900403748
0.1634836196899414,0.22101354598999023,-0.09308171272277832,2023-10-21T15:00:03.765791Z,1697900403765
0.1492142677307129,0.20438194274902344,-0.08287906646728516,2023-10-21T15:00:03.786122Z,1697900403786
0.1338338851928711,0.18577194213867188,-0.07245326042175293,2023-10-21T15:00:03.806351Z,1697900403806
0.1167292594909668,0.1641077995300293,-0.06147956848144531,2023-10-21T15:00:03.826534Z,1697900403826
0.09809207916259766,0.13952064514160156,-0.050141096115112305,2023-10-21T15:00:03.848163Z,1697900403848
0.07857608795166016,0.11294174194335938,-0.038887739181518555,2023-10-21T15:00:03.867121Z,1697900403867
0.05878305435180664,0.0853118896484375,-0.02811145782470703,2023-10-21T15:00:03.887431Z,1697900403887
0.03929901123046875,0.05755949020385742,-0.018126964569091797,2023-10-21T15:00:03.907641Z,1697900403907
0.020800113677978516,0.030734539031982422,-0.009245157241821289,2023-10-21T15:00:03.927849Z,1697900403927
0.004074573516845703,0.006072044372558594,-0.0017452239990234375,2023-10-21T15:00:03.948261Z,1697900403948
-0.01013946533203125,-0.01523733139038086,0.0041811466217041016,2023-10-21T15:00:03.968470Z,1697900403968
-0.021776676177978516,-0.0330042839050293,0.008662700653076172,2023-10-21T15:00:03.988716Z,1697900403988
-0.030838489532470703,-0.047153472900390625,0.011863946914672852,2023-10-21T15:00:04.008972Z,1697900404008
-0.03699016571044922,-0.057089805603027344,0.013817906379699707,2023-10-21T15:00:04.031041Z,1697900404031
-0.040106773376464844,-0.06250286102294922,0.014621496200561523,2023-10-21T15:00:04.049529Z,1697900404049
-0.04054069519042969,-0.06380081176757812,0.01449882984161377,2023-10-21T15:00:04.069817Z,1697900404069
-0.0391688346862793,-0.06224250793457031,0.013813018798828125,2023-10-21T15:00:04.090024Z,1697900404089
-0.03714799880981445,-0.05957794189453125,0.012978553771972656,2023-10-21T15:00:04.110252Z,1697900404110
-0.03531599044799805,-0.057135581970214844,0.012276053428649902,2023-10-21T15:00:04.131059Z,1697900404131
-0.03378152847290039,-0.05507469177246094,0.011729836463928223,2023-10-21T15:00:04.150910Z,1697900404150
-0.032169342041015625,-0.052788734436035156,0.011214494705200195,2023-10-21T15:00:04.171150Z,1697900404171
-0.03013467788696289,-0.04972076416015625,0.0105973482131958,2023-10-21T15:00:04.191383Z,1697900404191
-0.02775859832763672,-0.04602527618408203,0.009893655776977539,2023-10-21T15:00:04.214602Z,1697900404214
-0.025475502014160156,-0.04244232177734375,0.009236335754394531,2023-10-21T15:00:04.231934Z,1697900404231
-0.02328348159790039,-0.038962364196777344,0.008613824844360352,2023-10-21T15:00:04.252164Z,1697900404252
-0.020738601684570312,-0.034834861755371094,0.007842421531677246,2023-10-21T15:00:04.272393Z,1697900404272
-0.017577171325683594,-0.029615402221679688,0.006803989410400391,2023-10-21T15:00:04.292635Z,1697900404292
-0.013335227966308594,-0.022527694702148438,0.0052939653396606445,2023-10-21T15:00:04.314485Z,1697900404314
-0.0073909759521484375,-0.012510299682617188,0.0030128955841064453,2023-10-21T15:00:04.333215Z,1697900404333
6.833076477050781E-4,0.0011577606201171875,-2.8586387634277344E-4,2023-10-21T15:00:04.353571Z,1697900404353
0.010676860809326172,0.0180816650390625,-0.004582405090332031,2023-10-21T15:00:04.373707Z,1697900404373
0.02206897735595703,0.037268638610839844,-0.009694576263427734,2023-10-21T15:00:04.393917Z,1697900404393
0.03433656692504883,0.05768394470214844,-0.015418529510498047,2023-10-21T15:00:04.414420Z,1697900404414
0.047188758850097656,0.07868480682373047,-0.02162957191467285,2023-10-21T15:00:04.434552Z,1697900404434
0.06032705307006836,0.0996561050415039,-0.02821803092956543,2023-10-21T15:00:04.454818Z,1697900404454
0.07345390319824219,0.12001514434814453,-0.035063982009887695,2023-10-21T15:00:04.475017Z,1697900404474
0.08659124374389648,0.1397247314453125,-0.04219818115234375,2023-10-21T15:00:04.497749Z,1697900404497
0.09960746765136719,0.15852642059326172,-0.04955410957336426,2023-10-21T15:00:04.515577Z,1697900404515
0.11165523529052734,0.1751384735107422,-0.056696414947509766,2023-10-21T15:00:04.535883Z,1697900404535
0.12183952331542969,0.18834972381591797,-0.0631418228149414,2023-10-21T15:00:04.556099Z,1697900404556
0.12990093231201172,0.19798755645751953,-0.06873512268066406,2023-10-21T15:00:04.576307Z,1697900404576
0.13629627227783203,0.20492219924926758,-0.07369089126586914,2023-10-21T15:00:04.597499Z,1697900404597
0.14205026626586914,0.21075820922851562,-0.07850861549377441,2023-10-21T15:00:04.616888Z,1697900404616
0.14799165725708008,0.2166886329650879,-0.08359241485595703,2023-10-21T15:00:04.637182Z,1697900404637
0.15431880950927734,0.2229933738708496,-0.0890038013458252,2023-10-21T15:00:04.657422Z,1697900404657
0.1605696678161621,0.2289743423461914,-0.0944061279296875,2023-10-21T15:00:04.680954Z,1697900404680
0.1664137840270996,0.23414087295532227,-0.09953022003173828,2023-10-21T15:00:04.697953Z,1697900404697
0.1719837188720703,0.23860788345336914,-0.10440254211425781,2023-10-21T15:00:04.718248Z,1697900404718
0.17801284790039062,0.24332094192504883,-0.10945963859558105,2023-10-21T15:00:04.738484Z,1697900404738
0.18491697311401367,0.2488260269165039,-0.11498260498046875,2023-10-21T15:00:04.758728Z,1697900404758
0.19269037246704102,0.25510549545288086,-0.12098193168640137,2023-10-21T15:00:04.780508Z,1697900404780
0.20141220092773438,0.262239933013916,-0.12751412391662598,2023-10-21T15:00:04.799305Z,1697900404799
0.21112537384033203,0.27026844024658203,-0.1345963478088379,2023-10-21T15:00:04.819578Z,1697900404819
0.22146320343017578,0.2788071632385254,-0.14201617240905762,2023-10-21T15:00:04.839790Z,1697900404839
0.23141956329345703,0.28679990768432617,-0.14917564392089844,2023-10-21T15:00:04.859991Z,1697900404859
0.2404322624206543,0.2937788963317871,-0.15577316284179688,2023-10-21T15:00:04.880814Z,1697900404880
0.24848127365112305,0.29992103576660156,-0.16185665130615234,2023-10-21T15:00:04.900696Z,1697900404900
0.255856990814209,0.30569028854370117,-0.16762542724609375,2023-10-21T15:00:04.920870Z,1697900404920
0.26234865188598633,0.310915470123291,-0.17291760444641113,2023-10-21T15:00:04.941101Z,1697900404941
0.26714515686035156,0.31471824645996094,-0.17716336250305176,2023-10-21T15:00:04.964076Z,1697900404964
0.2695803642272949,0.3163752555847168,-0.1798856258392334,2023-10-21T15:00:04.981622Z,1697900404981
0.2695469856262207,0.3157682418823242,-0.18098163604736328,2023-10-21T15:00:05.001929Z,1697900405001
0.26751041412353516,0.31337451934814453,-0.1807539463043213,2023-10-21T15:00:05.022181Z,1697900405022
0.2643923759460449,0.3100728988647461,-0.17976069450378418,2023-10-21T15:00:05.042427Z,1697900405042
0.2610936164855957,0.3066887855529785,-0.17854738235473633,2023-10-21T15:00:05.063919Z,1697900405063
0.25775957107543945,0.3032851219177246,-0.17716240882873535,2023-10-21T15:00:05.082979Z,1697900405082
0.2541079521179199,0.2995109558105469,-0.17541003227233887,2023-10-21T15:00:05.103320Z,1697900405103
0.2498459815979004,0.29505205154418945,-0.1731276512145996,2023-10-21T15:00:05.123478Z,1697900405123
0.24527549743652344,0.2902412414550781,-0.17054319381713867,2023-10-21T15:00:05.143670Z,1697900405143
0.24146127700805664,0.2862734794616699,-0.16839075088500977,2023-10-21T15:00:05.164009Z,1697900405163
0.23915433883666992,0.2840142250061035,-0.16718626022338867,2023-10-21T15:00:05.184294Z,1697900405184
0.23821306228637695,0.28337574005126953,-0.16687679290771484,2023-10-21T15:00:05.204560Z,1697900405204
0.23814058303833008,0.28391504287719727,-0.16720151901245117,2023-10-21T15:00:05.224756Z,1697900405224
0.23856401443481445,0.2853541374206543,-0.16800689697265625,2023-10-21T15:00:05.247243Z,1697900405247
0.23964452743530273,0.287930965423584,-0.16945648193359375,2023-10-21T15:00:05.265319Z,1697900405265
0.24155139923095703,0.291778564453125,-0.17166376113891602,2023-10-21T15:00:05.285624Z,1697900405285
0.24417591094970703,0.2966303825378418,-0.17446279525756836,2023-10-21T15:00:05.305881Z,1697900405305
0.2469620704650879,0.30170392990112305,-0.17738771438598633,2023-10-21T15:00:05.326067Z,1697900405326
0.24913263320922852,0.3060474395751953,-0.1798877716064453,2023-10-21T15:00:05.346988Z,1697900405346
0.24994468688964844,0.30881834030151367,-0.18148565292358398,2023-10-21T15:00:05.366815Z,1697900405366
0.2491621971130371,0.30982542037963867,-0.18210220336914062,2023-10-21T15:00:05.386963Z,1697900405386
0.24724864959716797,0.30959367752075195,-0.18207168579101562,2023-10-21T15:00:05.407147Z,1697900405407
0.2447810173034668,0.30877685546875,-0.1817765235900879,2023-10-21T15:00:05.430358Z,1697900405430
0.2421259880065918,0.3076639175415039,-0.18135738372802734,2023-10-21T15:00:05.447688Z,1697900405447
0.2393498420715332,0.30620813369750977,-0.18073797225952148,2023-10-21T15:00:05.467998Z,1697900405467
0.23670005798339844,0.3046712875366211,-0.18003082275390625,2023-10-21T15:00:05.488226Z,1697900405488
0.23439645767211914,0.3033428192138672,-0.17944574356079102,2023-10-21T15:00:05.508466Z,1697900405508
0.23270463943481445,0.30263519287109375,-0.1792597770690918,2023-10-21T15:00:05.530184Z,1697900405530
0.23193836212158203,0.30297088623046875,-0.1797652244567871,2023-10-21T15:00:05.549051Z,1697900405549
0.23221588134765625,0.30444765090942383,-0.1810293197631836,2023-10-21T15:00:05.569343Z,1697900405569
0.2335948944091797,0.30706787109375,-0.1830582618713379,2023-10-21T15:00:05.589566Z,1697900405589
0.23551654815673828,0.31006669998168945,-0.18536806106567383,2023-10-21T15:00:05.609772Z,1697900405609
0.23735523223876953,0.31257200241088867,-0.1874070167541504,2023-10-21T15:00:05.630249Z,1697900405630
0.2384500503540039,0.31378650665283203,-0.18868684768676758,2023-10-21T15:00:05.650357Z,1697900405650
