ACC_X,ACC_Y,ACC_Z,DATE,UNIX_TIMESTAMP,norm
-0.2562675476074219,-0.0733921527862548,-0.0008602477610111237,2023-10-21T14:55:58.822415Z,1697900158822,0.2665711988822752
-0.3005847930908203,-0.0863139629364013,-0.0024972036480903,2023-10-21T14:55:58.842637Z,1697900158842,0.31274199280125103
-0.3432455062866211,-0.0993142127990722,-0.0043665096163749,2023-10-21T14:55:58.862857Z,1697900158862,0.35735116741951206
-0.3837594985961914,-0.1124589443206787,-0.0064132660627365,2023-10-21T14:55:58.883067Z,1697900158883,0.39994936792313246
-0.4204473495483398,-0.1253895759582519,-0.008607879281044,2023-10-21T14:55:58.903407Z,1697900158903,0.43883096413873424
-0.4518613815307617,-0.137765884399414,-0.010944589972496,2023-10-21T14:55:58.923695Z,1697900158923,0.4725229423773066
-0.4775524139404297,-0.1494770050048828,-0.0134592056274414,2023-10-21T14:55:58.943944Z,1697900158943,0.5005804963256989
-0.4977588653564453,-0.1605923175811767,-0.0161988139152526,2023-10-21T14:55:58.964292Z,1697900158964,0.5232744806306633
-0.5134096145629883,-0.1714215278625488,-0.0191902816295623,2023-10-21T14:55:58.986401Z,1697900158986,0.5416115207872416
-0.5258464813232422,-0.1824233531951904,-0.0224653184413909,2023-10-21T14:55:59.004726Z,1697900159004,0.5570435281409212
-0.5366697311401367,-0.1941568851470947,-0.0260721445083618,2023-10-21T14:55:59.025030Z,1697900159024,0.5713064441184903
-0.5465850830078125,-0.2068192958831787,-0.0300752520561218,2023-10-21T14:55:59.045302Z,1697900159045,0.585178600858328
-0.5552425384521484,-0.2201647758483886,-0.0345008373260498,2023-10-21T14:55:59.065423Z,1697900159065,0.5982951719739641
-0.5615873336791992,-0.2336652278900146,-0.0392543673515319,2023-10-21T14:55:59.086268Z,1697900159086,0.6095249604650934
-0.5650815963745117,-0.2470285892486572,-0.0441381335258483,2023-10-21T14:55:59.106069Z,1697900159106,0.6182948401034041
-0.5659933090209961,-0.2603118419647217,-0.0489748120307922,2023-10-21T14:55:59.126338Z,1697900159126,0.6249073636444481
-0.565093994140625,-0.273817777633667,-0.0536192655563354,2023-10-21T14:55:59.146492Z,1697900159146,0.6302241055377411
-0.5637130737304688,-0.288149356842041,-0.0580668449401855,2023-10-21T14:55:59.169618Z,1697900159169,0.6357469935630387
-0.5618686676025391,-0.3032641410827636,-0.0622365474700927,2023-10-21T14:55:59.187080Z,1697900159187,0.6415129981076891
-0.5580086708068848,-0.3181147575378418,-0.065860629081726,2023-10-21T14:55:59.207621Z,1697900159207,0.6456843641610558
-0.5495576858520508,-0.3307332992553711,-0.0685043334960937,2023-10-21T14:55:59.227823Z,1697900159227,0.6450511677558209
-0.5349626541137695,-0.3394894599914551,-0.0697255134582519,2023-10-21T14:55:59.247842Z,1697900159247,0.6374164901920527
-0.5144343376159668,-0.3438196182250976,-0.069337248802185,2023-10-21T14:55:59.269546Z,1697900159269,0.6226253059957381
-0.4895353317260742,-0.3441205024719238,-0.0674219131469726,2023-10-21T14:55:59.288460Z,1697900159288,0.6021706366156396
-0.4622817039489746,-0.3412661552429199,-0.0641869306564331,2023-10-21T14:55:59.309942Z,1697900159309,0.5781755136525119
-0.4345684051513672,-0.3362593650817871,-0.0597965717315673,2023-10-21T14:55:59.328967Z,1697900159328,0.552716644721197
-0.4082088470458984,-0.3303189277648926,-0.0544167757034301,2023-10-21T14:55:59.349163Z,1697900159349,0.5279263607021791
-0.3840756416320801,-0.3242359161376953,-0.0481903553009033,2023-10-21T14:55:59.369468Z,1697900159369,0.5049409254088758
-0.3630456924438476,-0.3190350532531738,-0.0413616299629211,2023-10-21T14:55:59.389799Z,1697900159389,0.4850735247768918
-0.3450155258178711,-0.3150577545166015,-0.0339958071708679,2023-10-21T14:55:59.410050Z,1697900159410,0.4684579134155213
-0.3296694755554199,-0.3124876022338867,-0.025977075099945,2023-10-21T14:55:59.430252Z,1697900159430,0.4549783215644649
-0.3162183761596679,-0.3109774589538574,-0.0170101225376129,2023-10-21T14:55:59.452764Z,1697900159452,0.4438359896033668
-0.3033123016357422,-0.3094511032104492,-0.0068751573562622,2023-10-21T14:55:59.470786Z,1697900159470,0.43336544092764123
-0.2895488739013672,-0.3065977096557617,0.0044126734137535,2023-10-21T14:55:59.491093Z,1697900159491,0.42173472424068315
-0.2728495597839355,-0.3001985549926758,0.0164657831192016,2023-10-21T14:55:59.511319Z,1697900159511,0.40600144914483566
-0.2502789497375488,-0.2866349220275879,0.0282883048057556,2023-10-21T14:55:59.531569Z,1697900159531,0.3815748411468911
-0.218297004699707,-0.2606954574584961,0.037834882736206,2023-10-21T14:55:59.552594Z,1697900159552,0.34212158971924134
-0.1741628646850586,-0.2170553207397461,0.0420252084732055,2023-10-21T14:55:59.572124Z,1697900159572,0.2814459696708348
-0.1159706115722656,-0.1507716178894043,0.0368256568908691,2023-10-21T14:55:59.592419Z,1697900159592,0.19374569031304376
-0.0427861213684082,-0.0579743385314941,0.0172278881072998,2023-10-21T14:55:59.612637Z,1697900159612,0.07408425094818791
0.0451545715332031,0.0636711120605468,-0.0224168300628662,2023-10-21T14:55:59.635961Z,1697900159635,0.08121243815722617
0.14579439163208,0.2132387161254882,-0.0871837139129638,2023-10-21T14:55:59.653155Z,1697900159653,0.2726311696374286
0.2584266662597656,0.3896536827087402,-0.1827232837677002,2023-10-21T14:55:59.673464Z,1697900159673,0.5019981401494146
0.3873300552368164,0.5992298126220703,-0.3203964233398437,2023-10-21T14:55:59.693694Z,1697900159693,0.7821475615980664
0.5301618576049805,0.8415288925170898,-0.5086979866027832,2023-10-21T14:55:59.713911Z,1697900159713,1.1171464155489774
0.6767230033874512,1.1055350303649902,-0.7461700439453125,2023-10-21T14:55:59.735854Z,1697900159735,1.4956374765160179
0.8142580986022949,1.3707780838012695,-1.0163521766662598,2023-10-21T14:55:59.754481Z,1697900159754,1.890772475255431
0.9399614334106444,1.6195354461669922,-1.302321434020996,2023-10-21T14:55:59.777090Z,1697900159777,2.2808909827524015
1.0577058792114258,1.845785140991211,-1.595355987548828,2023-10-21T14:55:59.794991Z,1697900159794,2.6591023373744487
1.1682536602020264,2.0428147315979004,-1.8859353065490725,2023-10-21T14:55:59.815236Z,1697900159815,3.0157355027749326
1.2667531967163086,2.20369815826416,-2.163249015808105,2023-10-21T14:55:59.835757Z,1697900159835,3.337753067337752
1.347764015197754,2.324779987335205,-2.4161481857299805,2023-10-21T14:55:59.855810Z,1697900159855,3.613701964133529
1.4061894416809082,2.403139591217041,-2.630113124847412,2023-10-21T14:55:59.876107Z,1697900159876,3.8301362495692355
1.439972162246704,2.428023338317871,-2.782062530517578,2023-10-21T14:55:59.896282Z,1697900159896,3.9634188629479445
1.4555997848510742,2.39554214477539,-2.866284847259521,2023-10-21T14:55:59.919037Z,1697900159919,4.009112336500825
1.461155652999878,2.310739517211914,-2.8906617164611816,2023-10-21T14:55:59.936847Z,1697900159936,3.9787457970713027
1.460665225982666,2.1890745162963867,-2.8774476051330566,2023-10-21T14:55:59.957152Z,1697900159957,3.899396730339094
1.4468419551849363,2.044729232788086,-2.835855484008789,2023-10-21T14:55:59.977370Z,1697900159977,3.783694702917275
1.4124863147735596,1.880910396575928,-2.7608656883239746,2023-10-21T14:55:59.997601Z,1697900159997,3.6270264485297896
1.3564372062683103,1.7004718780517578,-2.6486072540283203,2023-10-21T14:56:00.018786Z,1697900160018,3.4273381637482596
1.2843058109283447,1.5074677467346191,-2.499148368835449,2023-10-21T14:56:00.038389Z,1697900160038,3.1886741747758345
1.199840068817139,1.306755542755127,-2.314822196960449,2023-10-21T14:56:00.058446Z,1697900160058,2.916440989082612
1.1032166481018066,1.1035513877868652,-2.0980300903320312,2023-10-21T14:56:00.078663Z,1697900160078,2.6146974773525775
0.9908657073974608,0.9014739990234376,-1.847618579864502,2023-10-21T14:56:00.098896Z,1697900160098,2.282140363271308
0.8591556549072266,0.7035279273986816,-1.5625429153442385,2023-10-21T14:56:00.119236Z,1697900160119,1.9169351439945541
0.7062153816223145,0.5145678520202637,-1.2465362548828125,2023-10-21T14:56:00.139495Z,1697900160139,1.5222919806364241
0.5305628776550293,0.3399574756622314,-0.9044961929321288,2023-10-21T14:56:00.159764Z,1697900160159,1.102352672892363
0.3279399871826172,0.1826510429382324,-0.5365180969238281,2023-10-21T14:56:00.179995Z,1697900160179,0.6547959277565227
0.0881624221801757,0.0418362617492675,-0.1366124153137207,2023-10-21T14:56:00.202230Z,1697900160202,0.16788638271068107
-0.1897025108337402,-0.0739669799804687,0.2731924057006836,2023-10-21T14:56:00.220550Z,1697900160220,0.34072312407082567
-0.4982819557189941,-0.1514695882797241,0.653409481048584,2023-10-21T14:56:00.240838Z,1697900160240,0.8355668097123979
-0.8163166046142578,-0.1809924840927124,0.9609870910644532,2023-10-21T14:56:00.261017Z,1697900160260,1.2738238761538117
-1.1295623779296875,-0.1695526838302612,1.1861648559570312,2023-10-21T14:56:00.281238Z,1697900160281,1.6467077286925507
-1.4284415245056152,-0.1292445063591003,1.3319315910339355,2023-10-21T14:56:00.302036Z,1697900160302,1.9573428658643648
-1.6997346878051758,-0.0729710161685943,1.3995280265808103,2023-10-21T14:56:00.322093Z,1697900160322,2.202975595714581
-1.9242300987243648,-0.0135828293859958,1.3861260414123535,2023-10-21T14:56:00.342147Z,1697900160342,2.3715377645680427
-2.078298091888428,0.037539318203926,1.2958829402923584,2023-10-21T14:56:00.362373Z,1697900160362,2.44949887815836
-2.1374258995056152,0.0721917003393173,1.1462087631225586,2023-10-21T14:56:00.385257Z,1697900160385,2.4264368209648928
-2.0944199562072754,0.0829468667507171,0.9737777709960938,2023-10-21T14:56:00.402895Z,1697900160402,2.3112157586320596
-1.9825363159179688,0.0691462308168411,0.8142023086547852,2023-10-21T14:56:00.423247Z,1697900160423,2.144331328080749
-1.8386030197143557,0.0375033020973205,0.6803362369537354,2023-10-21T14:56:00.443460Z,1697900160443,1.9607970208778163
-1.677682399749756,-0.002306044101715,0.5630354881286621,2023-10-21T14:56:00.463685Z,1697900160463,1.7696419166491792
-1.478426456451416,-0.0385675132274627,0.4481370449066162,2023-10-21T14:56:00.485331Z,1697900160485,1.5453346081770367
-1.227189064025879,-0.0633301436901092,0.3346631526947021,2023-10-21T14:56:00.504255Z,1697900160504,1.273578867497447
-0.932781219482422,-0.0715962648391723,0.2290120124816894,2023-10-21T14:56:00.524532Z,1697900160524,0.9631476161102973
-0.6217975616455078,-0.0630796551704406,0.1385360956192016,2023-10-21T14:56:00.544733Z,1697900160544,0.6401589649096022
-0.31512451171875,-0.0396500825881958,0.0646036863327026,2023-10-21T14:56:00.565045Z,1697900160565,0.3241129791029751
-0.0246400833129882,-0.0036933422088623,0.0047316551208496,2023-10-21T14:56:00.585243Z,1697900160585,0.02536065934721386
0.2459611892700195,0.0427181720733642,-0.0450915098190307,2023-10-21T14:56:00.605571Z,1697900160605,0.25368285931487694
0.4989852905273437,0.0982954502105712,-0.089080810546875,2023-10-21T14:56:00.625814Z,1697900160625,0.5163174474123886
0.7329807281494141,0.1610333919525146,-0.1298527717590332,2023-10-21T14:56:00.646027Z,1697900160645,0.7616129223533966
0.9424772262573242,0.2278790473937988,-0.1686502695083618,2023-10-21T14:56:00.668527Z,1697900160668,0.984192611057433
1.1192827224731443,0.2948637008666992,-0.2056453227996826,2023-10-21T14:56:00.686599Z,1697900160686,1.1755970456347216
1.2559385299682615,0.358100414276123,-0.2404444217681884,2023-10-21T14:56:00.706907Z,1697900160706,1.3279424000019757
1.353219985961914,0.4157235622406006,-0.2732992172241211,2023-10-21T14:56:00.727131Z,1697900160727,1.4417776779878702
1.4163408279418943,0.4667115211486816,-0.3044757843017578,2023-10-21T14:56:00.747334Z,1697900160747,1.5220205281448138
1.4497671127319336,0.509925365447998,-0.3333916664123535,2023-10-21T14:56:00.768488Z,1697900160768,1.572577045082233
1.4551105499267578,0.5436022281646729,-0.3582940101623535,2023-10-21T14:56:00.787924Z,1697900160787,1.594121919017479
1.4307222366333008,0.5654726028442383,-0.3766534328460693,2023-10-21T14:56:00.808239Z,1697900160808,1.583853904701807
1.375810623168945,0.5737824440002441,-0.3863711357116699,2023-10-21T14:56:00.828446Z,1697900160828,1.539923315746125
1.2932329177856443,0.5682933330535889,-0.386641263961792,2023-10-21T14:56:00.851839Z,1697900160851,1.4645477660477655
1.1871356964111328,0.549370288848877,-0.3770439624786377,2023-10-21T14:56:00.868967Z,1697900160868,1.361345299916607
1.0627288818359375,0.5178995132446289,-0.3575129508972168,2023-10-21T14:56:00.889278Z,1697900160889,1.2350822208122507
0.926706314086914,0.4755315780639648,-0.3287339210510254,2023-10-21T14:56:00.909513Z,1697900160909,1.0922366342300283
0.7870321273803711,0.4249558448791504,-0.2926924228668213,2023-10-21T14:56:00.929720Z,1697900160929,0.941103551172492
0.6479978561401367,0.3678817749023437,-0.2511639595031738,2023-10-21T14:56:00.951745Z,1697900160951,0.7863342523512656
0.5109572410583496,0.3049383163452148,-0.2053399085998535,2023-10-21T14:56:00.970299Z,1697900160970,0.629467359780641
0.3789076805114746,0.2377066612243652,-0.1571531295776367,2023-10-21T14:56:00.990610Z,1697900160990,0.47410188069345005
0.2567005157470703,0.1691207885742187,-0.109269380569458,2023-10-21T14:56:01.010842Z,1697900161010,0.32624652249918396
0.1514687538146972,0.104501724243164,-0.0656895637512207,2023-10-21T14:56:01.031019Z,1697900161030,0.19539322541428433
0.0662837028503418,0.0476665496826171,-0.0290305614471435,2023-10-21T14:56:01.051684Z,1697900161051,0.08665103992528991
0.0004253387451171875,0.0003170967102050781,-0.00018644332885742188,2023-10-21T14:56:01.071865Z,1697900161071,0.0005623384093196764
-0.0481009483337402,-0.036959171295166,0.0209205150604248,2023-10-21T14:56:01.092073Z,1697900161092,0.06416657637605444
-0.0814123153686523,-0.0641040802001953,0.0348708629608154,2023-10-21T14:56:01.112246Z,1697900161112,0.1093310352810671
-0.1029267311096191,-0.0826334953308105,0.0431323051452636,2023-10-21T14:56:01.134826Z,1697900161134,0.13886180999339973
-0.1136064529418945,-0.0925612449645996,0.0462784767150878,2023-10-21T14:56:01.152666Z,1697900161152,0.15367403042317992
-0.1124095916748046,-0.0925192832946777,0.0442132949829101,2023-10-21T14:56:01.173017Z,1697900161172,0.15215304642071073
-0.098456859588623,-0.0815134048461914,0.0371463298797607,2023-10-21T14:56:01.193405Z,1697900161193,0.13310912137494157
-0.0720477104187011,-0.0597896575927734,0.025942325592041,2023-10-21T14:56:01.213456Z,1697900161213,0.09715286917410913
-0.03782320022583,-0.0313944816589355,0.0129621028900146,2023-10-21T14:56:01.234756Z,1697900161234,0.050835263993489685
-0.0003094673156738281,-0.0002570152282714844,9.942054748535156e-05,2023-10-21T14:56:01.254128Z,1697900161254,0.00041438061283811896
0.0375266075134277,0.0311369895935058,-0.0116548538208007,2023-10-21T14:56:01.274296Z,1697900161274,0.050135755803589616
0.0738329887390136,0.0613126754760742,-0.0219082832336425,2023-10-21T14:56:01.294505Z,1697900161294,0.0984404757933199
0.1067085266113281,0.0887846946716308,-0.030386209487915,2023-10-21T14:56:01.314735Z,1697900161314,0.14210120825150882
0.1344056129455566,0.1121864318847656,-0.0369293689727783,2023-10-21T14:56:01.335034Z,1697900161334,0.17892580189294535
0.1549220085144043,0.1298980712890625,-0.0413217544555664,2023-10-21T14:56:01.355380Z,1697900161355,0.2063536407191345
0.1671152114868164,0.1409482955932617,-0.043580412864685,2023-10-21T14:56:01.375538Z,1697900161375,0.2229196454473792
0.1706404685974121,0.1449499130249023,-0.043859839439392,2023-10-21T14:56:01.395804Z,1697900161395,0.2281498023771232
0.1661338806152343,0.142284870147705,-0.0424710512161254,2023-10-21T14:56:01.418025Z,1697900161417,0.22282109584289575
0.1548690795898437,0.1338663101196289,-0.039737582206726,2023-10-21T14:56:01.436381Z,1697900161436,0.20852744720464572
0.1381349563598632,0.1206264495849609,-0.0358723402023315,2023-10-21T14:56:01.456679Z,1697900161456,0.18686581094359192
0.1170935630798339,0.1033964157104492,-0.0309909582138061,2023-10-21T14:56:01.476888Z,1697900161476,0.15925501809208067
0.0930376052856445,0.0831389427185058,-0.0252333879470825,2023-10-21T14:56:01.497104Z,1697900161497,0.12729808977720894
0.0683169364929199,0.0618166923522949,-0.019075870513916,2023-10-21T14:56:01.518475Z,1697900161518,0.09408717288249029
0.0455408096313476,0.0417413711547851,-0.0131435394287109,2023-10-21T14:56:01.537721Z,1697900161537,0.06315900598073283
0.0273585319519042,0.0254034996032714,-0.0081887245178222,2023-10-21T14:56:01.558064Z,1697900161558,0.03822148966073347
0.015270709991455,0.0143647193908691,-0.004751443862915,2023-10-21T14:56:01.578218Z,1697900161578,0.021496882695032016
0.0095300674438476,0.0090804100036621,-0.0030875205993652,2023-10-21T14:56:01.601084Z,1697900161601,0.013520681002464155
0.0090599060058593,0.0087447166442871,-0.0030567646026611,2023-10-21T14:56:01.618736Z,1697900161618,0.012957460239566978
0.0121793746948242,0.0119056701660156,-0.0042836666107177,2023-10-21T14:56:01.639083Z,1697900161639,0.0175622307720476
0.018099308013916,0.0179166793823242,-0.0066378116607666,2023-10-21T14:56:01.659322Z,1697900161659,0.026318299609120153
0.0265083312988281,0.0265512466430664,-0.0101521015167236,2023-10-21T14:56:01.679520Z,1697900161679,0.03886805232778246
0.0373563766479492,0.0378298759460449,-0.0149717330932617,2023-10-21T14:56:01.701325Z,1697900161701,0.05523360555108148
0.0501937866210937,0.0513348579406738,-0.0210828781127929,2023-10-21T14:56:01.720099Z,1697900161720,0.07482761258166618
0.0640764236450195,0.0661244392395019,-0.0282378196716308,2023-10-21T14:56:01.740369Z,1697900161740,0.09630993713881311
0.0782351493835449,0.0813922882080078,-0.0361855030059814,2023-10-21T14:56:01.760634Z,1697900161760,0.11855308434029407
0.0925288200378418,0.0969600677490234,-0.0449090003967285,2023-10-21T14:56:01.780803Z,1697900161780,0.14134940959241352
0.1074209213256836,0.1132597923278808,-0.0546555519104003,2023-10-21T14:56:01.801297Z,1697900161801,0.16539124599338337
0.1236543655395507,0.131011962890625,-0.0658357143402099,2023-10-21T14:56:01.821579Z,1697900161821,0.19180426955656918
0.1413965225219726,0.1503529548645019,-0.0785722732543945,2023-10-21T14:56:01.841804Z,1697900161841,0.2208451714259492
0.159862995147705,0.1704440116882324,-0.0924170017242431,2023-10-21T14:56:01.862044Z,1697900161861,0.25129313668636516
0.1785192489624023,0.1907005310058593,-0.106966495513916,2023-10-21T14:56:01.884750Z,1697900161884,0.2822722904192785
0.1972360610961914,0.2109618186950683,-0.1220035552978515,2023-10-21T14:56:01.902643Z,1697900161902,0.31351526318376804
0.2157073020935058,0.2308745384216308,-0.1372051239013672,2023-10-21T14:56:01.922754Z,1697900161922,0.3444676163192261
