ACC_X,ACC_Y,ACC_Z,DATE,UNIX_TIMESTAMP,norm
0.2259063720703125,0.1051492691040039,-0.0253025293350219,2023-10-21T14:56:05.715097Z,1697900165715,0.25046012801607037
0.1788969039916992,0.0842580795288086,-0.0198739171028137,2023-10-21T14:56:05.732293Z,1697900165732,0.1987422924410096
0.1321277618408203,0.0630607604980468,-0.0145736336708068,2023-10-21T14:56:05.752541Z,1697900165752,0.14712850084884108
0.086151123046875,0.0417218208312988,-0.0094372034072875,2023-10-21T14:56:05.772873Z,1697900165772,0.09618621077819478
0.0420351028442382,0.0206851959228515,-0.0045729875564575,2023-10-21T14:56:05.793118Z,1697900165793,0.047071641321330085
0.000843048095703125,0.0004224777221679688,-9.125471115112303e-05,2023-10-21T14:56:05.815026Z,1697900165814,0.0009473884840466321
-0.0368890762329101,-0.0188312530517578,0.0039452910423278,2023-10-21T14:56:05.833612Z,1697900165833,0.041605112164558124
-0.070657730102539,-0.0368080139160156,0.0074544548988342,2023-10-21T14:56:05.853869Z,1697900165853,0.08001820798745493
-0.1000776290893554,-0.0532383918762207,0.0103572607040405,2023-10-21T14:56:05.874125Z,1697900165874,0.11382939454729651
-0.1247158050537109,-0.0677766799926757,0.0125850439071655,2023-10-21T14:56:05.894347Z,1697900165894,0.14249945161708544
-0.1450538635253906,-0.0805602073669433,0.0141897201538085,2023-10-21T14:56:05.914989Z,1697900165914,0.1665290319814865
-0.1622161865234375,-0.0921258926391601,0.0152902007102966,2023-10-21T14:56:05.934966Z,1697900165934,0.18717655168992153
-0.1769495010375976,-0.1028499603271484,0.0159592032432556,2023-10-21T14:56:05.955236Z,1697900165955,0.20528988388352284
-0.1894216537475586,-0.1127910614013671,0.0162189602851867,2023-10-21T14:56:05.975501Z,1697900165975,0.22105528972010466
-0.1999025344848632,-0.1220459938049316,0.0161281824111938,2023-10-21T14:56:05.998210Z,1697900165998,0.23476875040173908
-0.2093057632446289,-0.1311516761779785,0.0158175230026245,2023-10-21T14:56:06.015959Z,1697900166015,0.24750729024747642
-0.2184038162231445,-0.1406097412109375,0.0154072642326354,2023-10-21T14:56:06.036279Z,1697900166036,0.2602089738179184
-0.2272205352783203,-0.1504812240600586,0.014931321144104,2023-10-21T14:56:06.056539Z,1697900166056,0.27294086318814254
-0.2343730926513672,-0.1598391532897949,0.0143220722675323,2023-10-21T14:56:06.076821Z,1697900166076,0.2840500365030804
-0.2381234169006347,-0.1673779487609863,0.0134972035884857,2023-10-21T14:56:06.098108Z,1697900166098,0.29137658435876046
-0.2370190620422363,-0.1718111038208007,0.0124298930168151,2023-10-21T14:56:06.117353Z,1697900166117,0.29300442557735007
-0.2310724258422851,-0.1727943420410156,0.0112296342849731,2023-10-21T14:56:06.137585Z,1697900166137,0.2887532775782815
-0.2218227386474609,-0.1711535453796386,0.0100913643836975,2023-10-21T14:56:06.157850Z,1697900166157,0.2803581622000763
-0.2108941078186035,-0.1678886413574218,0.0091851949691772,2023-10-21T14:56:06.178094Z,1697900166178,0.26971705251256833
-0.1992793083190918,-0.1636037826538086,0.0085991621017456,2023-10-21T14:56:06.198324Z,1697900166198,0.2579774912887215
-0.1872997283935547,-0.1583900451660156,0.0083495080471038,2023-10-21T14:56:06.218617Z,1697900166218,0.24543493832097432
-0.1745710372924804,-0.1517562866210937,0.0084096193313598,2023-10-21T14:56:06.238896Z,1697900166238,0.23146433696726262
-0.1612882614135742,-0.1437983512878418,0.0088020861148834,2023-10-21T14:56:06.259234Z,1697900166259,0.21626221543045568
-0.1485838890075683,-0.1356129646301269,0.0096096396446228,2023-10-21T14:56:06.281371Z,1697900166281,0.2013961107431942
-0.1380243301391601,-0.1288180351257324,0.010962963104248,2023-10-21T14:56:06.299692Z,1697900166299,0.18911633574084336
-0.1310968399047851,-0.1250195503234863,0.0130682587623596,2023-10-21T14:56:06.319994Z,1697900166319,0.1816233706965807
-0.1272931098937988,-0.1239790916442871,0.016078233718872,2023-10-21T14:56:06.340209Z,1697900166340,0.17841765773290474
-0.1235270500183105,-0.1228227615356445,0.0197898149490356,2023-10-21T14:56:06.360475Z,1697900166360,0.17531685490330087
-0.1153125762939453,-0.1170344352722168,0.0232950448989868,2023-10-21T14:56:06.381217Z,1697900166381,0.16594188262123422
-0.0978579521179199,-0.1014089584350586,0.0246272087097167,2023-10-21T14:56:06.401118Z,1697900166401,0.14306101863340862
-0.065314769744873,-0.06913423538208,0.0201358795166015,2023-10-21T14:56:06.421421Z,1697900166421,0.09721633243749588
-0.0129346847534179,-0.0139880180358886,0.0047943592071533,2023-10-21T14:56:06.441672Z,1697900166441,0.019645778132969482
0.0622358322143554,0.0687699317932128,-0.0272302627563476,2023-10-21T14:56:06.464708Z,1697900166464,0.09666483093678005
0.1591706275939941,0.1795401573181152,-0.0808308124542236,2023-10-21T14:56:06.482147Z,1697900166482,0.2531868421156388
0.2750673294067383,0.3159093856811523,-0.1596834659576416,2023-10-21T14:56:06.502485Z,1697900166502,0.4482851603261515
0.4080262184143066,0.4746904373168945,-0.2668228149414062,2023-10-21T14:56:06.522697Z,1697900166522,0.680448984690873
0.5577602386474609,0.6522226333618164,-0.405034065246582,2023-10-21T14:56:06.542999Z,1697900166542,0.9489696735384474
0.7222609519958496,0.8440136909484863,-0.5759487152099609,2023-10-21T14:56:06.564615Z,1697900166564,1.2512940964611168
0.888770580291748,1.0362648963928225,-0.770683765411377,2023-10-21T14:56:06.583783Z,1697900166583,1.5677090119524146
1.0463571548461914,1.2171344757080078,-0.9778947830200196,2023-10-21T14:56:06.603807Z,1697900166603,1.87950999840719
1.1900148391723633,1.375077724456787,-1.184134006500244,2023-10-21T14:56:06.624052Z,1697900166624,2.170057006416652
1.3245081901550293,1.5045089721679688,-1.3839411735534668,2023-10-21T14:56:06.644193Z,1697900166644,2.4358083596576754
1.4547505378723145,1.6041197776794434,-1.5763874053955078,2023-10-21T14:56:06.664398Z,1697900166664,2.67852508677289
1.5775165557861328,1.671208381652832,-1.756330490112305,2023-10-21T14:56:06.684864Z,1697900166684,2.8924371608012764
1.6870841979980469,1.7048554420471191,-1.9179277420043943,2023-10-21T14:56:06.704969Z,1697900166704,3.071031096059183
1.7792863845825195,1.7070698738098145,-2.05623722076416,2023-10-21T14:56:06.725221Z,1697900166725,3.2106166230937174
1.8469352722167969,1.6785078048706057,-2.162425994873047,2023-10-21T14:56:06.747685Z,1697900166747,3.302218123333581
1.8873968124389648,1.6173853874206543,-2.2261171340942383,2023-10-21T14:56:06.765708Z,1697900166765,3.336734888143583
1.9106841087341309,1.5290045738220217,-2.251960277557373,2023-10-21T14:56:06.785993Z,1697900166785,3.3256418691485834
1.9237256050109863,1.4200410842895508,-2.246947288513184,2023-10-21T14:56:06.806267Z,1697900166806,3.281159703794053
1.9243783950805664,1.2988009452819824,-2.219003677368164,2023-10-21T14:56:06.826573Z,1697900166826,3.2115562307223677
1.8989615440368648,1.1681246757507324,-2.1619367599487305,2023-10-21T14:56:06.847599Z,1697900166847,3.1055660929766478
1.835348129272461,1.027266025543213,-2.064302921295166,2023-10-21T14:56:06.867040Z,1697900166867,2.947053578360432
1.7340078353881836,0.8786928653717041,-1.923558235168457,2023-10-21T14:56:06.887340Z,1697900166887,2.7347688401265544
1.599614143371582,0.7271451950073242,-1.743083953857422,2023-10-21T14:56:06.907635Z,1697900166907,2.475044891005386
1.4324536323547363,0.5770139694213867,-1.5265469551086426,2023-10-21T14:56:06.930943Z,1697900166930,2.1714543826443076
1.2335424423217771,0.4334523677825928,-1.2803020477294922,2023-10-21T14:56:06.948070Z,1697900166948,1.8299402300528402
1.0032029151916504,0.3014607429504394,-1.0105624198913574,2023-10-21T14:56:06.968356Z,1697900166968,1.4555174588736244
0.7422976493835449,0.1861307621002197,-0.7233357429504395,2023-10-21T14:56:06.988635Z,1697900166988,1.053026617854463
0.4523930549621582,0.0918416976928711,-0.4247298240661621,2023-10-21T14:56:07.008905Z,1697900167008,0.627287650973918
0.1336936950683593,0.0211939811706542,-0.1203408241271972,2023-10-21T14:56:07.030727Z,1697900167030,0.18112179021450314
-0.2168202400207519,-0.0257394909858703,0.1859040260314941,2023-10-21T14:56:07.049470Z,1697900167049,0.28676444126423106
-0.5956363677978516,-0.0495187044143676,0.4813184738159179,2023-10-21T14:56:07.069688Z,1697900167069,0.7673996728998388
-0.9813666343688964,-0.0505010783672332,0.7374420166015625,2023-10-21T14:56:07.089992Z,1697900167089,1.228597394518712
-1.3557419776916504,-0.0334263741970062,0.9339809417724608,2023-10-21T14:56:07.110157Z,1697900167110,1.646655407837778
-1.708890438079834,-0.0094120204448699,1.069204807281494,2023-10-21T14:56:07.130679Z,1697900167130,2.015835815587023
-2.0472941398620605,0.0060485359281301,1.1557893753051758,2023-10-21T14:56:07.150766Z,1697900167150,2.351020833588834
-2.36885929107666,-0.0001902123331092298,1.1967103481292725,2023-10-21T14:56:07.171048Z,1697900167170,2.653980036552768
-2.6497745513916016,-0.0366252735257148,1.1843044757843018,2023-10-21T14:56:07.191279Z,1697900167191,2.9026235848325435
-2.860327243804932,-0.1043542772531509,1.116382122039795,2023-10-21T14:56:07.214047Z,1697900167214,3.0722419825338987
-2.978264331817627,-0.1948814988136291,1.004451036453247,2023-10-21T14:56:07.231759Z,1697900167231,3.1491203713718128
-2.9882559776306152,-0.2923932075500488,0.8686896562576294,2023-10-21T14:56:07.252053Z,1697900167252,3.1256662161138555
-2.89687728881836,-0.3859295845031738,0.7357842922210693,2023-10-21T14:56:07.272337Z,1697900167272,3.0136718791775694
-2.734654426574707,-0.4699939489364624,0.6203080415725708,2023-10-21T14:56:07.292569Z,1697900167292,2.843239562763069
-2.521234035491944,-0.5370662212371826,0.5222821235656738,2023-10-21T14:56:07.314030Z,1697900167313,2.6301786639529356
-2.257960796356201,-0.5724889039993286,0.4307708740234375,2023-10-21T14:56:07.333083Z,1697900167333,2.3689014434946
-1.9371929168701167,-0.5610113143920898,0.3412524461746216,2023-10-21T14:56:07.353407Z,1697900167353,2.045459196383016
-1.5637454986572266,-0.500586986541748,0.2560374736785888,2023-10-21T14:56:07.373683Z,1697900167373,1.6617588584368674
-1.1610746383666992,-0.4020178318023681,0.1788752079010009,2023-10-21T14:56:07.393883Z,1697900167393,1.2416557465525881
-0.7527942657470703,-0.2779924869537353,0.1110721826553344,2023-10-21T14:56:07.414111Z,1697900167414,0.8101333588392798
-0.3523426055908203,-0.1373078823089599,0.0507720708847045,2023-10-21T14:56:07.434448Z,1697900167434,0.3815449769563492
0.0312366485595703,0.012732982635498,-0.0044765472412109,2023-10-21T14:56:07.454698Z,1697900167454,0.03402787879420038
0.393406867980957,0.1663603782653808,-0.0569040775299072,2023-10-21T14:56:07.474938Z,1697900167474,0.4309092865914082
0.7324647903442383,0.3188395500183105,-0.1082221269607544,2023-10-21T14:56:07.497297Z,1697900167497,0.806148470515089
1.044661521911621,0.4649267196655273,-0.1590893268585205,2023-10-21T14:56:07.515556Z,1697900167515,1.1544626299460496
1.326335906982422,0.5999665260314941,-0.209675908088684,2023-10-21T14:56:07.535817Z,1697900167535,1.4707449666553336
1.5749101638793943,0.7202692031860352,-0.2599622011184692,2023-10-21T14:56:07.556028Z,1697900167555,1.7512024712634533
1.7885866165161133,0.823094367980957,-0.3097436428070068,2023-10-21T14:56:07.576234Z,1697900167576,1.9931050016599436
1.9668207168579104,0.9067602157592772,-0.3586456775665283,2023-10-21T14:56:07.597038Z,1697900167597,2.1952732274553957
2.1089086532592773,0.9702591896057128,-0.405759334564209,2023-10-21T14:56:07.616793Z,1697900167616,2.3565948401013235
2.2146902084350586,1.013939380645752,-0.4498605728149414,2023-10-21T14:56:07.637084Z,1697900167637,2.476953839282396
2.2845916748046875,1.0390162467956543,-0.4896175861358642,2023-10-21T14:56:07.657351Z,1697900167657,2.5570763114044377
2.316404342651367,1.046456813812256,-0.5227560997009277,2023-10-21T14:56:07.680379Z,1697900167680,2.5950096110809953
2.3060665130615234,1.036590814590454,-0.5463392734527588,2023-10-21T14:56:07.697895Z,1697900167697,2.5866870474168158
2.250864028930664,1.0101056098937988,-0.5577189922332764,2023-10-21T14:56:07.718135Z,1697900167718,2.5293779263231118
2.1510705947875977,0.9683027267456056,-0.5551984310150146,2023-10-21T14:56:07.738389Z,1697900167738,2.4234191078276943
2.012759208679199,0.9139723777770996,-0.5390012264251709,2023-10-21T14:56:07.758604Z,1697900167758,2.275317002430712
1.843646049499512,0.849611759185791,-0.510528564453125,2023-10-21T14:56:07.780368Z,1697900167780,2.0932057501126113
1.6512022018432615,0.7770605087280273,-0.4714982509613037,2023-10-21T14:56:07.799255Z,1697900167799,1.8848348326196287
1.4415264129638672,0.6972646713256836,-0.4235410690307617,2023-10-21T14:56:07.819474Z,1697900167819,1.6563705679307115
1.2219228744506836,0.6112580299377441,-0.3687694072723388,2023-10-21T14:56:07.839701Z,1697900167839,1.4151758781187536
1.0024127960205078,0.521425724029541,-0.3103048801422119,2023-10-21T14:56:07.860008Z,1697900167859,1.1717530959828764
0.7944583892822266,0.4313836097717285,-0.25197434425354,2023-10-21T14:56:07.880278Z,1697900167880,0.9384812311616031
0.6084966659545898,0.3455896377563476,-0.19755220413208,2023-10-21T14:56:07.900567Z,1697900167900,0.7271363445460955
0.4505443572998047,0.2676396369934082,-0.1495938301086425,2023-10-21T14:56:07.920818Z,1697900167920,0.544976611600196
0.324289321899414,0.2011346817016601,-0.1099991798400878,2023-10-21T14:56:07.941039Z,1697900167941,0.3971379408300117
0.2286028861999511,0.1475629806518554,-0.0791206359863281,2023-10-21T14:56:07.963515Z,1697900167963,0.2833622908516387
0.1600842475891113,0.1071119308471679,-0.0564396381378173,2023-10-21T14:56:07.981542Z,1697900167981,0.20071214414954597
0.1141238212585449,0.0787982940673828,-0.0409164428710937,2023-10-21T14:56:08.001841Z,1697900168001,0.14459451242632104
0.0867185592651367,0.0614972114562988,-0.0315737724304199,2023-10-21T14:56:08.022101Z,1697900168022,0.11090048982493134
0.0747613906860351,0.0541949272155761,-0.0276172161102294,2023-10-21T14:56:08.042372Z,1697900168042,0.09637980233892722
0.0741915702819824,0.0547370910644531,-0.0277981758117675,2023-10-21T14:56:08.063404Z,1697900168063,0.09629785468828732
0.0812392234802246,0.0607666969299316,-0.0308880805969238,2023-10-21T14:56:08.082881Z,1697900168082,0.1060494055165143
0.0933194160461425,0.07053804397583,-0.036029577255249,2023-10-21T14:56:08.103200Z,1697900168103,0.12240204040914154
0.1098661422729492,0.0836772918701171,-0.0431244373321533,2023-10-21T14:56:08.123449Z,1697900168123,0.14467956140336996
0.1296620368957519,0.099247932434082,-0.051809549331665,2023-10-21T14:56:08.146688Z,1697900168146,0.1713085675217257
0.1506061553955078,0.1156420707702636,-0.0613617897033691,2023-10-21T14:56:08.163901Z,1697900168163,0.19955092535653898
0.1708478927612304,0.1314363479614257,-0.0711021423339843,2023-10-21T14:56:08.184206Z,1697900168184,0.22698024290865498
0.189857006072998,0.1462516784667968,-0.0808038711547851,2023-10-21T14:56:08.204475Z,1697900168204,0.25291204360994124
0.2083396911621093,0.1606254577636718,-0.090721845626831,2023-10-21T14:56:08.224767Z,1697900168224,0.27827399783172474
0.226780891418457,0.1749134063720703,-0.1010041236877441,2023-10-21T14:56:08.246715Z,1697900168246,0.3036875128205967
0.2438459396362304,0.188084602355957,-0.1109867095947265,2023-10-21T14:56:08.265259Z,1697900168265,0.32734493982210683
0.257840633392334,0.1988229751586914,-0.119776964187622,2023-10-21T14:56:08.285538Z,1697900168285,0.3469277861877259
0.2677183151245117,0.2062649726867675,-0.126732587814331,2023-10-21T14:56:08.305785Z,1697900168305,0.36094249406892703
0.2732324600219726,0.2101478576660156,-0.1315701007843017,2023-10-21T14:56:08.326006Z,1697900168325,0.3689563533965313
0.2751245498657226,0.2109832763671875,-0.1344954967498779,2023-10-21T14:56:08.346635Z,1697900168346,0.3718823731927152
0.2735881805419922,0.2089066505432129,-0.135505199432373,2023-10-21T14:56:08.366631Z,1697900168366,0.3699380221694831
0.2684826850891113,0.2038674354553222,-0.1344852447509765,2023-10-21T14:56:08.386881Z,1697900168386,0.3629478812274827
0.2597308158874511,0.1958708763122558,-0.1313652992248535,2023-10-21T14:56:08.407107Z,1697900168407,0.3508309261586375
0.2480015754699707,0.1855320930480957,-0.1264753341674804,2023-10-21T14:56:08.428670Z,1697900168428,0.3345488740665116
0.2332038879394531,0.1729025840759277,-0.1197917461395263,2023-10-21T14:56:08.447753Z,1697900168447,0.3140532110540616
0.2164011001586914,0.1588802337646484,-0.1118953227996826,2023-10-21T14:56:08.467880Z,1697900168467,0.2908486343365677
0.1988897323608398,0.1444711685180664,-0.1034839153289794,2023-10-21T14:56:08.488106Z,1697900168488,0.26671701277450865
0.1819276809692382,0.1306571960449218,-0.0952143669128418,2023-10-21T14:56:08.508511Z,1697900168508,0.24338192136594555
0.1667776107788086,0.1183762550354003,-0.0877578258514404,2023-10-21T14:56:08.529755Z,1697900168529,0.22255144396625615
0.1529746055603027,0.1073331832885742,-0.0808858871459961,2023-10-21T14:56:08.548958Z,1697900168548,0.20362752495815412
0.1405134201049804,0.0975193977355957,-0.0746016502380371,2023-10-21T14:56:08.569231Z,1697900168569,0.18659973307202357
0.1298174858093261,0.0891871452331543,-0.0691254138946533,2023-10-21T14:56:08.589475Z,1697900168589,0.17200363177212705
0.1214194297790527,0.0826363563537597,-0.0647585391998291,2023-10-21T14:56:08.609702Z,1697900168609,0.16051515105619057
0.1151695251464843,0.0776920318603515,-0.0614373683929443,2023-10-21T14:56:08.629953Z,1697900168629,0.15190332969394352
0.1114263534545898,0.0745353698730468,-0.0593547821044921,2023-10-21T14:56:08.650321Z,1697900168650,0.14660949411607288
0.1105446815490722,0.0733389854431152,-0.0586891174316406,2023-10-21T14:56:08.670558Z,1697900168670,0.14506255860667888
0.1125807762145996,0.0740957260131836,-0.0594496726989746,2023-10-21T14:56:08.690793Z,1697900168690,0.14730536775867242
0.1169695854187011,0.0763831138610839,-0.0613267421722412,2023-10-21T14:56:08.712856Z,1697900168712,0.15256878219871414
0.1223583221435546,0.079287052154541,-0.0636196136474609,2023-10-21T14:56:08.731346Z,1697900168731,0.15907687097059392
0.1283812522888183,0.0825433731079101,-0.0661489963531494,2023-10-21T14:56:08.751607Z,1697900168751,0.1663455563031542
0.1351776123046875,0.0862226486206054,-0.0690112113952636,2023-10-21T14:56:08.771841Z,1697900168771,0.17455623535637604
