GYR_X,GYR_Y,GYR_Z,DATE,UNIX_TIMESTAMP
0.0026605629827827215,0.0047890134155750275,-0.0026605629827827215,2023-10-20T12:09:57.960092Z,1697803797960
0.0031926757656037807,-0.0013302814913913608,-0.002128450432792306,2023-10-20T12:09:57.980850Z,1697803797980
-0.0022614786867052317,-0.004123872611671686,-5.321126081980765E-4,2023-10-20T12:09:57.990406Z,1697803797990
0.0015963378828018904,-0.0031926757656037807,0.004922041669487953,2023-10-20T12:09:58.004939Z,1697803798004
-0.0026605629827827215,7.981689414009452E-4,6.651407456956804E-4,2023-10-20T12:09:58.010967Z,1697803798010
0.0038578163366764784,0.0037247883155941963,-0.0019954221788793802,2023-10-20T12:09:58.021872Z,1697803798021
-0.0027935912366956472,0.0047890134155750275,-0.002128450432792306,2023-10-20T12:09:58.030515Z,1697803798030
3.990844707004726E-4,-0.0025275349617004395,-0.0017293660202994943,2023-10-20T12:09:58.041859Z,1697803798041
-0.0014633096288889647,0.0027935912366956472,-0.0019954221788793802,2023-10-20T12:09:58.054978Z,1697803798054
0.0037247883155941963,0.004123872611671686,-0.0013302814913913608,2023-10-20T12:09:58.061866Z,1697803798061
-0.0037247883155941963,-0.0034587320405989885,-5.321126081980765E-4,2023-10-20T12:09:58.071390Z,1697803798071
0.0035917600616812706,0.0011972533538937569,-0.0018623941577970982,2023-10-20T12:09:58.084339Z,1697803798084
-0.004256900865584612,0.0022614786867052317,9.311970788985491E-4,2023-10-20T12:09:58.092079Z,1697803798092
-0.0031926757656037807,-0.002128450432792306,-0.0034587320405989885,2023-10-20T12:09:58.104746Z,1697803798104
-0.0034587320405989885,0.002128450432792306,0.0018623941577970982,2023-10-20T12:09:58.111969Z,1697803798111
0.003059647511690855,0.004922041669487953,-0.003059647511690855,2023-10-20T12:09:58.122742Z,1697803798122
-0.001064225216396153,0.004522957373410463,0.0013302814913913608,2023-10-20T12:09:58.138020Z,1697803798137
7.981689414009452E-4,-3.990844707004726E-4,-0.003059647511690855,2023-10-20T12:09:58.142760Z,1697803798142
-0.0011972533538937569,0.003325703786686063,-0.0027935912366956472,2023-10-20T12:09:58.152493Z,1697803798152
0.0035917600616812706,0.0015963378828018904,0.004123872611671686,2023-10-20T12:09:58.162661Z,1697803798162
-0.0027935912366956472,-0.004922041669487953,0.0017293660202994943,2023-10-20T12:09:58.173305Z,1697803798173
-0.003325703786686063,0.0047890134155750275,0.0039908443577587605,2023-10-20T12:09:58.184742Z,1697803798184
-0.0018623941577970982,-0.0017293660202994943,-0.0026605629827827215,2023-10-20T12:09:58.192769Z,1697803798192
-0.0015963378828018904,-0.0013302814913913608,-0.004389929119497538,2023-10-20T12:09:58.203763Z,1697803798203
-3.990844707004726E-4,0.0011972533538937569,7.981689414009452E-4,2023-10-20T12:09:58.212971Z,1697803798212
0.0011972533538937569,0.001064225216396153,2.6605630409903824E-4,2023-10-20T12:09:58.224003Z,1697803798223
-0.0018623941577970982,0.004922041669487953,-3.990844707004726E-4,2023-10-20T12:09:58.234178Z,1697803798234
0.0015963378828018904,9.311970788985491E-4,0.0014633096288889647,2023-10-20T12:09:58.244795Z,1697803798244
0.002128450432792306,-0.001064225216396153,0.0035917600616812706,2023-10-20T12:09:58.253506Z,1697803798253
-0.0035917600616812706,0.004389929119497538,0.0022614786867052317,2023-10-20T12:09:58.264550Z,1697803798264
3.990844707004726E-4,-0.004522957373410463,-0.0,2023-10-20T12:09:58.274079Z,1697803798274
6.651407456956804E-4,-0.0035917600616812706,-0.004922041669487953,2023-10-20T12:09:58.285242Z,1697803798285
-3.990844707004726E-4,-0.0047890134155750275,-0.0039908443577587605,2023-10-20T12:09:58.294299Z,1697803798294
0.0026605629827827215,0.0013302814913913608,0.0025275349617004395,2023-10-20T12:09:58.304959Z,1697803798304
-0.0027935912366956472,-0.0017293660202994943,0.0019954221788793802,2023-10-20T12:09:58.317664Z,1697803798317
-6.651407456956804E-4,0.0039908443577587605,0.0029266192577779293,2023-10-20T12:09:58.325193Z,1697803798325
0.004922041669487953,-0.0022614786867052317,0.0035917600616812706,2023-10-20T12:09:58.334214Z,1697803798334
-0.0014633096288889647,-6.651407456956804E-4,0.0027935912366956472,2023-10-20T12:09:58.345871Z,1697803798345
0.003059647511690855,0.0013302814913913608,0.001064225216396153,2023-10-20T12:09:58.354961Z,1697803798354
0.0019954221788793802,-0.004389929119497538,0.001064225216396153,2023-10-20T12:09:58.366414Z,1697803798366
0.001064225216396153,-0.0019954221788793802,-0.004389929119497538,2023-10-20T12:09:58.375097Z,1697803798375
6.651407456956804E-4,-0.003325703786686063,0.0018623941577970982,2023-10-20T12:09:58.386537Z,1697803798386
-5.321126081980765E-4,0.003325703786686063,0.004522957373410463,2023-10-20T12:09:58.395616Z,1697803798395
-0.0031926757656037807,-0.0039908443577587605,-0.0019954221788793802,2023-10-20T12:09:58.406469Z,1697803798406
0.004256900865584612,0.004256900865584612,0.0017293660202994943,2023-10-20T12:09:58.416755Z,1697803798416
0.0025275349617004395,-0.0019954221788793802,0.003325703786686063,2023-10-20T12:09:58.426677Z,1697803798426
0.0013302814913913608,0.0029266192577779293,-0.004922041669487953,2023-10-20T12:09:58.435725Z,1697803798435
-0.0025275349617004395,1.3302815204951912E-4,0.0022614786867052317,2023-10-20T12:09:58.446487Z,1697803798446
0.001064225216396153,0.0018623941577970982,-0.0013302814913913608,2023-10-20T12:09:58.456910Z,1697803798456
-0.003059647511690855,-0.0035917600616812706,9.311970788985491E-4,2023-10-20T12:09:58.466940Z,1697803798466
0.11866111308336258,0.021284503862261772,-0.2858774960041046,2023-10-20T12:09:58.476838Z,1697803798476
0.13622082769870758,0.021816616877913475,-0.318868488073349,2023-10-20T12:09:58.487065Z,1697803798487
0.15178512036800385,0.014899153262376785,-0.34174931049346924,2023-10-20T12:09:58.496421Z,1697803798496
0.1602989286184311,-0.0027935912366956472,-0.34999707341194153,2023-10-20T12:09:58.507890Z,1697803798507
0.15657413005828857,-0.033390067517757416,-0.3468043804168701,2023-10-20T12:09:58.517012Z,1697803798516
0.1366199105978012,-0.07649118453264236,-0.34041905403137207,2023-10-20T12:09:58.527809Z,1697803798527
0.09963808953762054,-0.13036759197711945,-0.33509790897369385,2023-10-20T12:09:58.537588Z,1697803798537
0.04735802114009857,-0.1926247626543045,-0.329776793718338,2023-10-20T12:09:58.550322Z,1697803798550
-0.01556429360061884,-0.2607351839542389,-0.32192811369895935,2023-10-20T12:09:58.557895Z,1697803798557
-0.08261048048734665,-0.3324373662471771,-0.3088913559913635,2023-10-20T12:09:58.568696Z,1697803798568
-0.1465970277786255,-0.4065340459346771,-0.28840503096580505,2023-10-20T12:09:58.578152Z,1697803798578
-0.20220279693603516,-0.4835573434829712,-0.2596709430217743,2023-10-20T12:09:58.588510Z,1697803798588
-0.2463681399822235,-0.5643054246902466,-0.2233542650938034,2023-10-20T12:09:58.600221Z,1697803798600
-0.2782948911190033,-0.6474480032920837,-0.17958800494670868,2023-10-20T12:09:58.609119Z,1697803798609
-0.29771700501441956,-0.7271319031715393,-0.1301015317440033,2023-10-20T12:09:58.618535Z,1697803798618
-0.3047674894332886,-0.7957744002342224,-0.07968386262655258,2023-10-20T12:09:58.629011Z,1697803798628
-0.3001115024089813,-0.8468571901321411,-0.03392218053340912,2023-10-20T12:09:58.639164Z,1697803798639
-0.2853453755378723,-0.8778527975082397,0.0014633096288889647,2023-10-20T12:09:58.650718Z,1697803798650
-0.2635287642478943,-0.8890271186828613,0.0219496451318264,2023-10-20T12:09:58.659915Z,1697803798659
-0.2377213090658188,-0.8822426795959473,0.02474323660135269,2023-10-20T12:09:58.669867Z,1697803798669
-0.20991842448711395,-0.8610912561416626,0.013701899908483028,2023-10-20T12:09:58.678999Z,1697803798678
-0.18131737411022186,-0.8303617238998413,-0.0035917600616812706,2023-10-20T12:09:58.689835Z,1697803798689
-0.15205118060112,-0.7929807901382446,-0.020885419100522995,2023-10-20T12:09:58.702536Z,1697803798702
-0.1223858967423439,-0.7501457333564758,-0.03618365898728371,2023-10-20T12:09:58.710831Z,1697803798710
-0.09258759021759033,-0.7018565535545349,-0.05015161260962486,2023-10-20T12:09:58.719559Z,1697803798719
-0.06358745694160461,-0.648246169090271,-0.06518379598855972,2023-10-20T12:09:58.733811Z,1697803798733
-0.036582741886377335,-0.5903789401054382,-0.08367470651865005,2023-10-20T12:09:58.739852Z,1697803798739
-0.012504646554589272,-0.529585063457489,-0.10682160407304764,2023-10-20T12:09:58.752777Z,1697803798752
0.007715632673352957,-0.46786001324653625,-0.13209696114063263,2023-10-20T12:09:58.760913Z,1697803798760
0.023945067077875137,-0.4083964228630066,-0.15457871556282043,2023-10-20T12:09:58.771304Z,1697803798771
0.03578457236289978,-0.3546530604362488,-0.16987694799900055,2023-10-20T12:09:58.785243Z,1697803798785
0.03764696791768074,-0.30556565523147583,-0.16256040334701538,2023-10-20T12:09:58.790904Z,1697803798790
0.043500207364559174,-0.26765263080596924,-0.16402371227741241,2023-10-20T12:09:58.801679Z,1697803798801
0.04842224717140198,-0.23532679677009583,-0.16535399854183197,2023-10-20T12:09:58.811663Z,1697803798811
0.04137175530195236,-0.20100553333759308,-0.14114287495613098,2023-10-20T12:09:58.821710Z,1697803798821
0.05081675574183464,-0.18331278860569,-0.13422539830207825,2023-10-20T12:09:58.835083Z,1697803798835
0.05879844352602959,-0.16828061640262604,-0.12823913991451263,2023-10-20T12:09:58.841376Z,1697803798841
0.05028464272618294,-0.14367040991783142,-0.10948216915130615,2023-10-20T12:09:58.852469Z,1697803798852
0.04296809434890747,-0.12265195697546005,-0.09351879358291626,2023-10-20T12:09:58.862005Z,1697803798861
0.055339712649583817,-0.10948216915130615,-0.08128020167350769,2023-10-20T12:09:58.872877Z,1697803798872
0.0658489316701889,-0.09830780327320099,-0.0707709789276123,2023-10-20T12:09:58.884394Z,1697803798884
0.05627090856432915,-0.0839407667517662,-0.060394782572984695,2023-10-20T12:09:58.893193Z,1697803798893
0.04802316427230835,-0.07170217484235764,-0.051614921540021896,2023-10-20T12:09:58.902286Z,1697803798902
0.04110569879412651,-0.06119294837117195,-0.04403231665492058,2023-10-20T12:09:58.913453Z,1697803798913
0.0351194329559803,-0.052280064672231674,-0.03764696791768074,2023-10-20T12:09:58.922988Z,1697803798922
0.03924330323934555,-0.02288084290921688,-0.0307295024394989,2023-10-20T12:09:58.934844Z,1697803798934
0.04296809434890747,0.0022614786867052317,-0.024876264855265617,2023-10-20T12:09:58.942629Z,1697803798942
0.030330419540405273,0.016229433938860893,-0.02354598231613636,2023-10-20T12:09:58.954208Z,1697803798954
0.019555138424038887,0.028201967477798462,-0.022481758147478104,2023-10-20T12:09:58.962577Z,1697803798962
0.0031926757656037807,0.03698182478547096,-0.02288084290921688,2023-10-20T12:09:58.974553Z,1697803798974
-0.010908308438956738,0.044431403279304504,-0.02327992580831051,2023-10-20T12:09:58.984367Z,1697803798984
-0.027669856324791908,0.04669288173317909,-0.02447718009352684,2023-10-20T12:09:58.994443Z,1697803798994
-0.041903868317604065,0.04855527728796005,-0.025541406124830246,2023-10-20T12:09:59.003621Z,1697803799003
-0.03578457236289978,0.04150478169322014,-0.021816616877913475,2023-10-20T12:09:59.018431Z,1697803799018
-0.05094978213310242,0.04177083820104599,-0.0172936599701643,2023-10-20T12:09:59.023964Z,1697803799023
-0.06398653984069824,0.041903868317604065,-0.013435843400657177,2023-10-20T12:09:59.035756Z,1697803799035
-0.05467456951737404,0.03578457236289978,-0.01144042145460844,2023-10-20T12:09:59.043999Z,1697803799043
-0.04669288173317909,0.030596474185585976,-0.009844083338975906,2023-10-20T12:09:59.055288Z,1697803799055
-0.03990844637155533,0.0260735172778368,-0.008380773477256298,2023-10-20T12:09:59.067217Z,1697803799067
-0.034055206924676895,0.022348729893565178,-0.007183520123362541,2023-10-20T12:09:59.075248Z,1697803799075
-0.029133165255188942,0.019023025408387184,-0.00611929502338171,2023-10-20T12:09:59.084450Z,1697803799084
-0.024876264855265617,0.016229433938860893,-0.005188097711652517,2023-10-20T12:09:59.095244Z,1697803799095
-0.0055871824733912945,0.022747814655303955,-0.02075239084661007,2023-10-20T12:09:59.104337Z,1697803799104
0.010775280185043812,0.028201967477798462,-0.03392218053340912,2023-10-20T12:09:59.116079Z,1697803799116
0.01942211017012596,0.025275349617004395,-0.04589471220970154,2023-10-20T12:09:59.125330Z,1697803799125
0.026738658547401428,0.02288084290921688,-0.056004852056503296,2023-10-20T12:09:59.135608Z,1697803799135
0.03179372847080231,0.02035330794751644,-0.06544984877109528,2023-10-20T12:09:59.145573Z,1697803799145
0.03618365898728371,0.018091829493641853,-0.07343153655529022,2023-10-20T12:09:59.156240Z,1697803799156
0.035651545971632004,0.017958801239728928,-0.08473893254995346,2023-10-20T12:09:59.167366Z,1697803799167
0.035651545971632004,0.019555138424038887,-0.10908308625221252,2023-10-20T12:09:59.176392Z,1697803799176
0.029399221763014793,0.020885419100522995,-0.12611068785190582,2023-10-20T12:09:59.186057Z,1697803799186
0.021417532116174698,0.022747814655303955,-0.14779427647590637,2023-10-20T12:09:59.201453Z,1697803799201
0.013302815146744251,0.02447718009352684,-0.17187237739562988,2023-10-20T12:09:59.205839Z,1697803799205
0.006651407573372126,0.02540837787091732,-0.19528532028198242,2023-10-20T12:09:59.217877Z,1697803799217
0.002128450432792306,0.023412954062223434,-0.21497349441051483,2023-10-20T12:09:59.226775Z,1697803799226
-7.981689414009452E-4,0.01662851870059967,-0.22907447814941406,2023-10-20T12:09:59.237695Z,1697803799237
-0.003059647511690855,0.0034587320405989885,-0.23612496256828308,2023-10-20T12:09:59.251721Z,1697803799251
-0.005321125965565443,-0.016229433938860893,-0.23625800013542175,2023-10-20T12:09:59.257454Z,1697803799257
-0.007981688715517521,-0.04070661589503288,-0.23226715624332428,2023-10-20T12:09:59.268171Z,1697803799268
-0.011972533538937569,-0.06757830083370209,-0.2272120863199234,2023-10-20T12:09:59.277783Z,1697803799277
-0.017825772985816002,-0.09458301961421967,-0.22308820486068726,2023-10-20T12:09:59.287117Z,1697803799287
-0.0260735172778368,-0.11999139189720154,-0.22056066989898682,2023-10-20T12:09:59.301869Z,1697803799301
-0.03791302442550659,-0.14393645524978638,-0.21989554166793823,2023-10-20T12:09:59.307855Z,1697803799307
-0.054807599633932114,-0.1673494130373001,-0.22082673013210297,2023-10-20T12:09:59.319026Z,1697803799318
-0.07742238789796829,-0.19182659685611725,-0.22202397882938385,2023-10-20T12:09:59.328080Z,1697803799328
-0.10495921224355698,-0.2184322327375412,-0.2212258130311966,2023-10-20T12:09:59.338921Z,1697803799338
-0.13528962433338165,-0.24716630578041077,-0.21590469777584076,2023-10-20T12:09:59.351524Z,1697803799351
-0.16655124723911285,-0.27736368775367737,-0.20486335456371307,2023-10-20T12:09:59.359755Z,1697803799359
-0.19688166677951813,-0.30756109952926636,-0.18983116745948792,2023-10-20T12:09:59.368155Z,1697803799368
-0.2238863855600357,-0.3357630670070648,-0.17413385212421417,2023-10-20T12:09:59.379025Z,1697803799379
-0.24623510241508484,-0.3605062961578369,-0.16096405684947968,2023-10-20T12:09:59.388945Z,1697803799388
-0.26273059844970703,-0.3808596134185791,-0.15218420326709747,2023-10-20T12:09:59.402056Z,1697803799402
-0.2728407382965088,-0.3969559967517853,-0.1476612538099289,2023-10-20T12:09:59.408905Z,1697803799408
-0.27590039372444153,-0.4101257920265198,-0.14566582441329956,2023-10-20T12:09:59.419980Z,1697803799419
-0.27151045203208923,-0.4210340976715088,-0.1448676586151123,2023-10-20T12:09:59.428946Z,1697803799428
-0.2602030634880066,-0.43008002638816833,-0.14460159838199615,2023-10-20T12:09:59.440069Z,1697803799440
-0.24290940165519714,-0.4364653527736664,-0.14473463594913483,2023-10-20T12:09:59.450875Z,1697803799450
-0.22082673013210297,-0.43979108333587646,-0.14473463594913483,2023-10-20T12:09:59.460294Z,1697803799460
-0.1954183578491211,-0.43939200043678284,-0.14393645524978638,2023-10-20T12:09:59.469258Z,1697803799469
-0.16867969930171967,-0.4346029758453369,-0.14207406342029572,2023-10-20T12:09:59.480518Z,1697803799480
-0.14260618388652802,-0.4254240393638611,-0.14074379205703735,2023-10-20T12:09:59.489792Z,1697803799489
-0.11932624876499176,-0.4117221236228943,-0.14247314631938934,2023-10-20T12:09:59.501049Z,1697803799501
-0.1004362553358078,-0.39442846179008484,-0.14845941960811615,2023-10-20T12:09:59.509976Z,1697803799509
-0.08580315858125687,-0.3755384683609009,-0.15604202449321747,2023-10-20T12:09:59.521777Z,1697803799521
-0.0751609057188034,-0.35651543736457825,-0.16176223754882812,2023-10-20T12:09:59.533966Z,1697803799533
-0.06771133095026016,-0.3390887677669525,-0.16535399854183197,2023-10-20T12:09:59.541206Z,1697803799541
-0.06318837404251099,-0.3233914375305176,-0.16748245060443878,2023-10-20T12:09:59.550776Z,1697803799550
-0.060394782572984695,-0.30968955159187317,-0.16867969930171967,2023-10-20T12:09:59.561523Z,1697803799561
-0.05813330411911011,-0.2979830503463745,-0.1678815335035324,2023-10-20T12:09:59.570602Z,1697803799570
-0.05560576915740967,-0.2882719933986664,-0.16562004387378693,2023-10-20T12:09:59.585042Z,1697803799585
-0.0526791475713253,-0.28015729784965515,-0.16375765204429626,2023-10-20T12:09:59.591115Z,1697803799591
-0.04948647320270538,-0.2732398211956024,-0.1630925089120865,2023-10-20T12:09:59.603326Z,1697803799603
-0.04602774232625961,-0.266854465007782,-0.1630925089120865,2023-10-20T12:09:59.611644Z,1697803799611
-0.04230295121669769,-0.2614003121852875,-0.16349159181118011,2023-10-20T12:09:59.622956Z,1697803799622
-0.0389772467315197,-0.2578085660934448,-0.16482187807559967,2023-10-20T12:09:59.633917Z,1697803799633
-0.03671576827764511,-0.25647827982902527,-0.16641822457313538,2023-10-20T12:09:59.643175Z,1697803799643
-0.03485337644815445,-0.2574094831943512,-0.16455581784248352,2023-10-20T12:09:59.651913Z,1697803799651
-0.03179372847080231,-0.26033610105514526,-0.1552438586950302,2023-10-20T12:09:59.667210Z,1697803799667
-0.026206545531749725,-0.2651250958442688,-0.13768413662910461,2023-10-20T12:09:59.672614Z,1697803799672
-0.018756968900561333,-0.2705792486667633,-0.11480329185724258,2023-10-20T12:09:59.684108Z,1697803799684
-0.010775280185043812,-0.27417102456092834,-0.09125731140375137,2023-10-20T12:09:59.693047Z,1697803799693
-0.0038578163366764784,-0.2737719416618347,-0.07183520495891571,2023-10-20T12:09:59.703671Z,1697803799703
0.0013302814913913608,-0.26818475127220154,-0.05813330411911011,2023-10-20T12:09:59.712948Z,1697803799712
0.0031926757656037807,-0.24490483105182648,-0.04895436018705368,2023-10-20T12:09:59.723754Z,1697803799723
0.007316548377275467,-0.23359742760658264,-0.04083964228630066,2023-10-20T12:09:59.733503Z,1697803799733
0.010908308438956738,-0.22401940822601318,-0.033789150416851044,2023-10-20T12:09:59.744412Z,1697803799744
0.018357884138822556,-0.21084962785243988,-0.02474323660135269,2023-10-20T12:09:59.753707Z,1697803799753
0.02474323660135269,-0.19954222440719604,-0.016894575208425522,2023-10-20T12:09:59.767057Z,1697803799767
0.03738091140985489,-0.19076237082481384,-0.007715632673352957,2023-10-20T12:09:59.773892Z,1697803799773
0.048156190663576126,-0.18331278860569,1.3302815204951912E-4,2023-10-20T12:09:59.784629Z,1697803799784
0.06744527071714401,-0.17692744731903076,0.008912886492908001,2023-10-20T12:09:59.793971Z,1697803799793
0.0839407667517662,-0.17160631716251373,0.01636246219277382,2023-10-20T12:09:59.805197Z,1697803799805
0.10788583010435104,-0.16149617731571198,0.019954223185777664,2023-10-20T12:09:59.816900Z,1697803799816
0.14965666830539703,-0.15790441632270813,0.025009293109178543,2023-10-20T12:09:59.825082Z,1697803799825
0.17267054319381714,-0.1438034325838089,0.025541406124830246,2023-10-20T12:09:59.833983Z,1697803799833
0.19634954631328583,-0.13023455440998077,0.02633957378566265,2023-10-20T12:09:59.845229Z,1697803799845
0.21962948143482208,-0.11786293983459473,0.027669856324791908,2023-10-20T12:09:59.854512Z,1697803799854
0.24104700982570648,-0.10722068697214127,0.0307295024394989,2023-10-20T12:09:59.867236Z,1697803799867
0.2591388523578644,-0.09817477315664291,0.035917602479457855,2023-10-20T12:09:59.875236Z,1697803799875
0.27297377586364746,-0.09032611548900604,0.042835064232349396,2023-10-20T12:09:59.886182Z,1697803799886
0.28122150897979736,-0.0828765407204628,0.04948647320270538,2023-10-20T12:09:59.894932Z,1697803799894
0.2820196747779846,-0.07542695850133896,0.054142456501722336,2023-10-20T12:09:59.906746Z,1697803799906
0.2600700259208679,-0.0663810446858406,0.05174795165657997,2023-10-20T12:09:59.916945Z,1697803799916
0.2480975091457367,-0.058266330510377884,0.05494062602519989,2023-10-20T12:09:59.926867Z,1697803799926
0.23785433173179626,-0.051348865032196045,0.057601191103458405,2023-10-20T12:09:59.935625Z,1697803799935
0.2031339854001999,-0.043766263872385025,0.04922041669487953,2023-10-20T12:09:59.946673Z,1697803799946
0.1734687089920044,-0.03738091140985489,0.04203689470887184,2023-10-20T12:09:59.956369Z,1697803799956
0.15324842929840088,-0.01942211017012596,0.05055069923400879,2023-10-20T12:09:59.967154Z,1697803799967
0.13595476746559143,-0.0039908443577587605,0.05773421749472618,2023-10-20T12:09:59.976525Z,1697803799976
0.11613357812166214,-0.0034587320405989885,0.04935344308614731,2023-10-20T12:09:59.986906Z,1697803799986
0.0795508325099945,0.013169786892831326,0.05773421749472618,2023-10-20T12:09:59.999556Z,1697803799999
0.0482892207801342,0.027403799816966057,0.06491773575544357,2023-10-20T12:10:00.007209Z,1697803800007
0.022215701639652252,0.029931334778666496,0.06611499190330505,2023-10-20T12:10:00.016506Z,1697803800016
0.0,0.032192811369895935,0.06717921793460846,2023-10-20T12:10:00.027065Z,1697803800027
-0.02327992580831051,0.027669856324791908,0.07037189602851868,2023-10-20T12:10:00.036663Z,1697803800036
-0.05746816098690033,0.02288084290921688,0.07968386262655258,2023-10-20T12:10:00.050419Z,1697803800050
-0.08008294552564621,0.017825772985816002,0.08114717155694962,2023-10-20T12:10:00.057171Z,1697803800057
-0.10469315201044083,0.014367040246725082,0.08207836747169495,2023-10-20T12:10:00.069569Z,1697803800069
-0.1316978633403778,0.01223859004676342,0.08114717155694962,2023-10-20T12:10:00.077850Z,1697803800077
-0.16043195128440857,0.011174364946782589,0.0779544934630394,2023-10-20T12:10:00.088851Z,1697803800088
-0.18956512212753296,0.010908308438956738,0.07263337075710297,2023-10-20T12:10:00.100265Z,1697803800100
-0.21696890890598297,0.011573448777198792,0.06678013503551483,2023-10-20T12:10:00.109154Z,1697803800109
-0.24078094959259033,0.012903730385005474,0.06265626102685928,2023-10-20T12:10:00.117922Z,1697803800117
-0.2596709430217743,0.014367040246725082,0.06252323091030121,2023-10-20T12:10:00.129226Z,1697803800129
-0.2732398211956024,0.015165209770202637,0.06624802201986313,2023-10-20T12:10:00.138211Z,1697803800138
-0.281620591878891,0.015830349177122116,0.07170217484235764,2023-10-20T12:10:00.149289Z,1697803800149
-0.28561145067214966,0.017426688224077225,0.07649118453264236,2023-10-20T12:10:00.158559Z,1697803800158
-0.28614354133605957,0.021284503862261772,0.07928477972745895,2023-10-20T12:10:00.169444Z,1697803800169
-0.28468024730682373,0.027137743309140205,0.08074808865785599,2023-10-20T12:10:00.178382Z,1697803800178
-0.28241875767707825,0.03365612402558327,0.08114717155694962,2023-10-20T12:10:00.190073Z,1697803800190
-0.28029030561447144,0.0395093597471714,0.08034900575876236,2023-10-20T12:10:00.198976Z,1697803800198
-0.27896004915237427,0.044697459787130356,0.07662421464920044,2023-10-20T12:10:00.209320Z,1697803800209
-0.277762770652771,0.05028464272618294,0.0697067528963089,2023-10-20T12:10:00.218734Z,1697803800218
-0.274570107460022,0.05720210447907448,0.0609268918633461,2023-10-20T12:10:00.233094Z,1697803800233
-0.25222137570381165,0.056669991463422775,0.0521470345556736,2023-10-20T12:10:00.239469Z,1697803800239
-0.24051490426063538,0.06997280567884445,0.04403231665492058,2023-10-20T12:10:00.249907Z,1697803800249
-0.23692314326763153,0.09524815529584885,0.0351194329559803,2023-10-20T12:10:00.259354Z,1697803800259
-0.2119138389825821,0.11147759109735489,0.024344151839613914,2023-10-20T12:10:00.270072Z,1697803800270
-0.18451005220413208,0.12877124547958374,0.010642251931130886,2023-10-20T12:10:00.283157Z,1697803800283
-0.15670716762542725,0.14500068128108978,-0.005188097711652517,2023-10-20T12:10:00.290356Z,1697803800290
-0.12917032837867737,0.15896864235401154,-0.019954223185777664,2023-10-20T12:10:00.300113Z,1697803800300
-0.10163351148366928,0.17040906846523285,-0.031926754862070084,2023-10-20T12:10:00.310809Z,1697803800310
-0.07422970980405807,0.1805192083120346,-0.042169924825429916,2023-10-20T12:10:00.320377Z,1697803800320
-0.046958938241004944,0.19142751395702362,-0.05201400816440582,2023-10-20T12:10:00.333239Z,1697803800333
-0.02035330794751644,0.20379912853240967,-0.06119294837117195,2023-10-20T12:10:00.340617Z,1697803800340
0.0047890134155750275,0.21696890890598297,-0.0686425268650055,2023-10-20T12:10:00.351569Z,1697803800351
0.028068939223885536,0.2293405383825302,-0.0730324536561966,2023-10-20T12:10:00.360723Z,1697803800360
0.04855527728796005,0.23945067822933197,-0.0746287927031517,2023-10-20T12:10:00.371896Z,1697803800371
0.06544984877109528,0.24663420021533966,-0.07396364957094193,2023-10-20T12:10:00.382434Z,1697803800382
0.07822055369615555,0.2503589689731598,-0.07210125774145126,2023-10-20T12:10:00.392066Z,1697803800392
0.08753252774477005,0.25049200654029846,-0.06930766999721527,2023-10-20T12:10:00.401412Z,1697803800401
0.08460590243339539,0.23146899044513702,-0.06278929114341736,2023-10-20T12:10:00.412259Z,1697803800412
0.09085822850465775,0.22801025211811066,-0.061325978487730026,2023-10-20T12:10:00.421489Z,1697803800421
0.09631238132715225,0.22521665692329407,-0.05999569594860077,2023-10-20T12:10:00.432738Z,1697803800432
0.09857386350631714,0.2168358862400055,-0.06185809150338173,2023-10-20T12:10:00.441893Z,1697803800441
0.1004362553358078,0.2096523642539978,-0.06332139670848846,2023-10-20T12:10:00.452603Z,1697803800452
0.09910597652196884,0.19462019205093384,-0.05999569594860077,2023-10-20T12:10:00.465253Z,1697803800465
0.09790872037410736,0.1817164570093155,-0.0570690780878067,2023-10-20T12:10:00.473137Z,1697803800473
0.08367470651865005,0.1552438586950302,-0.048821330070495605,2023-10-20T12:10:00.482344Z,1697803800482
0.07143611460924149,0.13262906670570374,-0.041637811809778214,2023-10-20T12:10:00.493384Z,1697803800493
0.061059921979904175,0.11320696026086807,-0.03551851585507393,2023-10-20T12:10:00.502801Z,1697803800502
0.0521470345556736,0.09671146422624588,-0.030330419540405273,2023-10-20T12:10:00.515874Z,1697803800515
0.04456442967057228,0.08261048048734665,-0.025940489023923874,2023-10-20T12:10:00.523084Z,1697803800523
0.03352309390902519,0.08660132437944412,-0.002128450432792306,2023-10-20T12:10:00.535240Z,1697803800535
0.02421112358570099,0.08992703258991241,0.01822485774755478,2023-10-20T12:10:00.543577Z,1697803800543
0.02075239084661007,0.07675724476575851,0.01556429360061884,2023-10-20T12:10:00.554042Z,1697803800554
-0.003059647511690855,0.07010583579540253,0.02421112358570099,2023-10-20T12:10:00.565027Z,1697803800564
-0.023412954062223434,0.06425260007381439,0.031527671962976456,2023-10-20T12:10:00.574578Z,1697803800574
-0.03671576827764511,0.055738795548677444,0.031261615455150604,2023-10-20T12:10:00.583639Z,1697803800583
-0.04802316427230835,0.04842224717140198,0.03112858720123768,2023-10-20T12:10:00.594769Z,1697803800594
-0.057867247611284256,0.04150478169322014,0.03418823331594467,2023-10-20T12:10:00.604342Z,1697803800604
-0.06611499190330505,0.03551851585507393,0.03671576827764511,2023-10-20T12:10:00.616273Z,1697803800616
-0.07090400159358978,0.02953225001692772,0.0433671772480011,2023-10-20T12:10:00.624288Z,1697803800624
-0.07502787560224533,0.024344151839613914,0.04908738657832146,2023-10-20T12:10:00.635159Z,1697803800635
-0.06411956995725632,0.020885419100522995,0.041903868317604065,2023-10-20T12:10:00.645105Z,1697803800645
-0.0686425268650055,0.014899153262376785,0.053211260586977005,2023-10-20T12:10:00.655177Z,1697803800655
-0.07250034064054489,0.00971105508506298,0.06278929114341736,2023-10-20T12:10:00.664780Z,1697803800664
-0.06185809150338173,0.008380773477256298,0.05361034348607063,2023-10-20T12:10:00.675594Z,1697803800675
-0.05281217768788338,0.007183520123362541,0.04576168581843376,2023-10-20T12:10:00.685484Z,1697803800685
-0.045096542686223984,0.00611929502338171,0.039110276848077774,2023-10-20T12:10:00.698317Z,1697803800698
-0.03857816383242607,0.005188097711652517,0.033390067517757416,2023-10-20T12:10:00.705504Z,1697803800705
-0.03299098089337349,0.004389929119497538,0.02860105223953724,2023-10-20T12:10:00.716786Z,1697803800716
-0.021417532116174698,0.007582604885101318,0.04070661589503288,2023-10-20T12:10:00.725450Z,1697803800725
-0.01144042145460844,0.010110139846801758,0.05094978213310242,2023-10-20T12:10:00.736721Z,1697803800736
-0.009844083338975906,0.00864682998508215,0.043500207364559174,2023-10-20T12:10:00.747888Z,1697803800747
0.015963377431035042,0.015032181516289711,0.047890134155750275,2023-10-20T12:10:00.757189Z,1697803800757
0.03791302442550659,0.02035330794751644,0.051614921540021896,2023-10-20T12:10:00.766037Z,1697803800765
0.05800027400255203,0.021550560370087624,0.04961949959397316,2023-10-20T12:10:00.777033Z,1697803800777
0.09072519838809967,0.024876264855265617,0.04922041669487953,2023-10-20T12:10:00.786720Z,1697803800786
0.10988125205039978,0.026871686801314354,0.0438992902636528,2023-10-20T12:10:00.798163Z,1697803800798
0.12823913991451263,0.030862530693411827,0.03791302442550659,2023-10-20T12:10:00.806940Z,1697803800806
0.14420251548290253,0.03738091140985489,0.029931334778666496,2023-10-20T12:10:00.817280Z,1697803800817
0.15564294159412384,0.045362599194049835,0.01888999715447426,2023-10-20T12:10:00.826771Z,1697803800826
0.148193359375,0.04602774232625961,0.011706477031111717,2023-10-20T12:10:00.837777Z,1697803800837
0.14779427647590637,0.05188097804784775,-0.002128450432792306,2023-10-20T12:10:00.850234Z,1697803800850
0.14752821624279022,0.05693604797124863,-0.013834928162395954,2023-10-20T12:10:00.858522Z,1697803800858
0.12597766518592834,0.04868830367922783,-0.011839505285024643,2023-10-20T12:10:00.867793Z,1697803800867
0.10761977732181549,0.04150478169322014,-0.010110139846801758,2023-10-20T12:10:00.878708Z,1697803800878
0.09192245453596115,0.03551851585507393,-0.00864682998508215,2023-10-20T12:10:00.888154Z,1697803800888
0.0784866064786911,0.030330419540405273,-0.007449576631188393,2023-10-20T12:10:00.900136Z,1697803800900
0.06704618781805038,0.025940489023923874,-0.006252323277294636,2023-10-20T12:10:00.908477Z,1697803800908
0.05720210447907448,0.022082673385739326,-0.005454154219478369,2023-10-20T12:10:00.920200Z,1697803800920
0.0482892207801342,0.004123872611671686,-0.0065183793194592,2023-10-20T12:10:00.929367Z,1697803800929
0.04057358577847481,-0.011307393200695515,-0.007449576631188393,2023-10-20T12:10:00.939613Z,1697803800939
0.0345873199403286,-0.009578026831150055,-0.0063853515312075615,2023-10-20T12:10:00.949654Z,1697803800949
0.021550560370087624,-0.029665278270840645,0.009578026831150055,2023-10-20T12:10:00.960079Z,1697803800960
0.010376195423305035,-0.04669288173317909,0.023146897554397583,2023-10-20T12:10:00.969384Z,1697803800969
0.011174364946782589,-0.05587182566523552,0.03232584148645401,2023-10-20T12:10:00.980237Z,1697803800980
0.011839505285024643,-0.06385350972414017,0.040041472762823105,2023-10-20T12:10:00.989706Z,1697803800989
0.010110139846801758,-0.05454154312610626,0.03418823331594467,2023-10-20T12:10:01.000733Z,1697803801000
0.020220279693603516,-0.06252323091030121,0.03525245934724808,2023-10-20T12:10:01.010095Z,1697803801010
0.029000137001276016,-0.06930766999721527,0.03618365898728371,2023-10-20T12:10:01.021479Z,1697803801021
0.02474323660135269,-0.059197526425123215,0.030995558947324753,2023-10-20T12:10:01.029552Z,1697803801029
0.021151475608348846,-0.05055069923400879,0.026472602039575577,2023-10-20T12:10:01.040967Z,1697803801040
0.03924330323934555,-0.05893146991729736,0.027403799816966057,2023-10-20T12:10:01.050282Z,1697803801050
0.05467456951737404,-0.06611499190330505,0.028201967477798462,2023-10-20T12:10:01.061220Z,1697803801061
0.058266330510377884,-0.0691746398806572,0.02633957378566265,2023-10-20T12:10:01.070113Z,1697803801070
0.06119294837117195,-0.07183520495891571,0.024876264855265617,2023-10-20T12:10:01.082926Z,1697803801082
0.052280064672231674,-0.061325978487730026,0.021151475608348846,2023-10-20T12:10:01.090579Z,1697803801090
0.06425260007381439,-0.06890857964754105,0.023146897554397583,2023-10-20T12:10:01.102549Z,1697803801102
0.07449576258659363,-0.07542695850133896,0.02474323660135269,2023-10-20T12:10:01.111162Z,1697803801111
0.06358745694160461,-0.06438562273979187,0.021151475608348846,2023-10-20T12:10:01.122312Z,1697803801122
0.06771133095026016,-0.07050491869449615,0.024610208347439766,2023-10-20T12:10:01.133005Z,1697803801132
0.07130309194326401,-0.07582604885101318,0.027536828070878983,2023-10-20T12:10:01.142165Z,1697803801142
0.06345442682504654,-0.08074808865785599,0.03046344593167305,2023-10-20T12:10:01.151869Z,1697803801151
0.05693604797124863,-0.08487196266651154,0.03285795450210571,2023-10-20T12:10:01.162588Z,1697803801162
0.05015161260962486,-0.09484907239675522,0.038445137441158295,2023-10-20T12:10:01.171894Z,1697803801171
0.04429837316274643,-0.10322984308004379,0.04310112074017525,2023-10-20T12:10:01.183221Z,1697803801183
0.04416534677147865,-0.11067942529916763,0.04922041669487953,2023-10-20T12:10:01.191899Z,1697803801191
0.04403231665492058,-0.11706477403640747,0.05427548661828041,2023-10-20T12:10:01.203121Z,1697803801203
0.05148189514875412,-0.11759688705205917,0.05467456951737404,2023-10-20T12:10:01.216095Z,1697803801216
0.05773421749472618,-0.1179959699511528,0.05494062602519989,2023-10-20T12:10:01.223243Z,1697803801223
0.07050491869449615,-0.11161062121391296,0.04802316427230835,2023-10-20T12:10:01.232421Z,1697803801232
0.08141323179006577,-0.10628949105739594,0.04203689470887184,2023-10-20T12:10:01.243575Z,1697803801243
0.09617935121059418,-0.0971105545759201,0.03804605081677437,2023-10-20T12:10:01.253149Z,1697803801253
0.10895005613565445,-0.08939491957426071,0.034720346331596375,2023-10-20T12:10:01.266151Z,1697803801266
0.11826203018426895,-0.08314259350299835,0.0345873199403286,2023-10-20T12:10:01.273452Z,1697803801273
0.1262437105178833,-0.07782147079706192,0.0345873199403286,2023-10-20T12:10:01.283767Z,1697803801283
0.10788583010435104,-0.0663810446858406,0.02953225001692772,2023-10-20T12:10:01.293260Z,1697803801293
0.11440420895814896,-0.07396364957094193,0.03205978497862816,2023-10-20T12:10:01.304248Z,1697803801304
0.11985836178064346,-0.08034900575876236,0.03418823331594467,2023-10-20T12:10:01.316Z,1697803801315
0.10243167728185654,-0.0686425268650055,0.029266193509101868,2023-10-20T12:10:01.324759Z,1697803801324
0.09325273334980011,-0.07436273992061615,0.0389772467315197,2023-10-20T12:10:01.333776Z,1697803801333
0.08540407568216324,-0.07915174961090088,0.04749105125665665,2023-10-20T12:10:01.344505Z,1697803801344
0.0730324536561966,-0.06757830083370209,0.04044055938720703,2023-10-20T12:10:01.354273Z,1697803801354
0.06239020451903343,-0.05773421749472618,0.0345873199403286,2023-10-20T12:10:01.365634Z,1697803801365
0.03671576827764511,-0.04749105125665665,0.03538548946380615,2023-10-20T12:10:01.374756Z,1697803801374
0.01476612500846386,-0.038711193948984146,0.035917602479457855,2023-10-20T12:10:01.385520Z,1697803801385
-0.005454154219478369,-0.030596474185585976,0.03139464557170868,2023-10-20T12:10:01.394211Z,1697803801394
-0.022747814655303955,-0.02354598231613636,0.027403799816966057,2023-10-20T12:10:01.406318Z,1697803801406
-0.04243598133325577,-0.025541406124830246,0.030995558947324753,2023-10-20T12:10:01.415523Z,1697803801415
-0.059197526425123215,-0.027137743309140205,0.03392218053340912,2023-10-20T12:10:01.426364Z,1697803801426
-0.07489485293626785,-0.034986402839422226,0.04363323375582695,2023-10-20T12:10:01.435061Z,1697803801435
-0.08819766342639923,-0.041637811809778214,0.05188097804784775,2023-10-20T12:10:01.449710Z,1697803801449
-0.09524815529584885,-0.04602774232625961,0.05959661304950714,2023-10-20T12:10:01.455566Z,1697803801455
-0.10110139846801758,-0.04988555610179901,0.06624802201986313,2023-10-20T12:10:01.466308Z,1697803801466
-0.10003717243671417,-0.04310112074017525,0.06318837404251099,2023-10-20T12:10:01.476323Z,1697803801476
-0.09910597652196884,-0.03738091140985489,0.06052780896425247,2023-10-20T12:10:01.486735Z,1697803801486
-0.08460590243339539,-0.031926754862070084,0.05174795165657997,2023-10-20T12:10:01.498918Z,1697803801498
-0.09099125862121582,-0.02101844735443592,0.033789150416851044,2023-10-20T12:10:01.507369Z,1697803801507
-0.09644541144371033,-0.011573448777198792,0.01849091239273548,2023-10-20T12:10:01.515992Z,1697803801515
-0.0823444277048111,-0.009844083338975906,0.015830349177122116,2023-10-20T12:10:01.527413Z,1697803801527
-0.0921885073184967,-0.008513801731169224,0.0031926757656037807,2023-10-20T12:10:01.536905Z,1697803801536
-0.10056928545236588,-0.007316548377275467,-0.007582604885101318,2023-10-20T12:10:01.549673Z,1697803801549
-0.08593618869781494,-0.006252323277294636,-0.0065183793194592,2023-10-20T12:10:01.557336Z,1697803801557
-0.08966097235679626,-0.010376195423305035,-0.014633096754550934,2023-10-20T12:10:01.567659Z,1697803801567
-0.09272062033414841,-0.01396795641630888,-0.021550560370087624,2023-10-20T12:10:01.577094Z,1697803801577
-0.07915174961090088,-0.011972533538937569,-0.018357884138822556,2023-10-20T12:10:01.588054Z,1697803801587
-0.06997280567884445,-0.005986266769468784,-0.036582741886377335,2023-10-20T12:10:01.599357Z,1697803801599
-0.06212414801120758,-9.311970788985491E-4,-0.0521470345556736,2023-10-20T12:10:01.608363Z,1697803801608
-0.05015161260962486,0.007981688715517521,-0.06571590900421143,2023-10-20T12:10:01.617608Z,1697803801617
-0.03990844637155533,0.01569732278585434,-0.07728935778141022,2023-10-20T12:10:01.632802Z,1697803801632
-0.03365612402558327,0.02447718009352684,-0.08819766342639923,2023-10-20T12:10:01.638089Z,1697803801638
-0.028468023985624313,0.03205978497862816,-0.09750963747501373,2023-10-20T12:10:01.649723Z,1697803801649
-0.02860105223953724,0.036848798394203186,-0.10083533823490143,2023-10-20T12:10:01.658338Z,1697803801658
-0.02886710874736309,0.04110569879412651,-0.10362893342971802,2023-10-20T12:10:01.669271Z,1697803801669
-0.03232584148645401,0.042169924825429916,-0.10203259438276291,2023-10-20T12:10:01.682492Z,1697803801682
-0.03525245934724808,0.04323415085673332,-0.10070230811834335,2023-10-20T12:10:01.689328Z,1697803801689
-0.030064363032579422,0.03698182478547096,-0.08606921136379242,2023-10-20T12:10:01.699449Z,1697803801699
-0.04177083820104599,0.04110569879412651,-0.09285365045070648,2023-10-20T12:10:01.709779Z,1697803801709
-0.05174795165657997,0.04456442967057228,-0.09857386350631714,2023-10-20T12:10:01.718810Z,1697803801718
-0.05680302157998085,0.04522957280278206,-0.10229864716529846,2023-10-20T12:10:01.733086Z,1697803801733
-0.061059921979904175,0.04576168581843376,-0.10549132525920868,2023-10-20T12:10:01.739246Z,1697803801739
-0.06305534392595291,0.043500207364559174,-0.11067942529916763,2023-10-20T12:10:01.750510Z,1697803801750
-0.06465168297290802,0.041637811809778214,-0.11506935209035873,2023-10-20T12:10:01.759416Z,1697803801759
-0.061991117894649506,0.0351194329559803,-0.11480329185724258,2023-10-20T12:10:01.770585Z,1697803801770
-0.05959661304950714,0.02953225001692772,-0.11453723907470703,2023-10-20T12:10:01.782305Z,1697803801782
-0.05094978213310242,0.0219496451318264,-0.11453723907470703,2023-10-20T12:10:01.790686Z,1697803801790
-0.043500207364559174,0.015431265346705914,-0.11453723907470703,2023-10-20T12:10:01.799799Z,1697803801799
-0.029665278270840645,0.01050922367721796,-0.12251892685890198,2023-10-20T12:10:01.810872Z,1697803801810
-0.017958801239728928,0.006252323277294636,-0.12930336594581604,2023-10-20T12:10:01.820736Z,1697803801820
0.0031926757656037807,0.0027935912366956472,-0.14021167159080505,2023-10-20T12:10:01.833152Z,1697803801833
0.03525245934724808,-0.002128450432792306,-0.16335856914520264,2023-10-20T12:10:01.840571Z,1697803801840
0.06026175245642662,-0.005986266769468784,-0.16548702120780945,2023-10-20T12:10:01.851579Z,1697803801851
0.08500499278306961,-0.00944499857723713,-0.16508793830871582,2023-10-20T12:10:01.860521Z,1697803801860
0.10668858140707016,-0.011307393200695515,-0.1662851870059967,2023-10-20T12:10:01.871505Z,1697803801871
0.12371618300676346,-0.008779858238995075,-0.17200540006160736,2023-10-20T12:10:01.882244Z,1697803801882
0.13515660166740417,5.321126081980765E-4,-0.18411096930503845,2023-10-20T12:10:01.892094Z,1697803801892
0.1404777318239212,0.018623940646648407,-0.20393215119838715,2023-10-20T12:10:01.901332Z,1697803801901
0.13914744555950165,0.04589471220970154,-0.23120293021202087,2023-10-20T12:10:01.911683Z,1697803801911
0.1311657577753067,0.08088111877441406,-0.26432693004608154,2023-10-20T12:10:01.921604Z,1697803801921
0.11653266102075577,0.12158773094415665,-0.30104270577430725,2023-10-20T12:10:01.932987Z,1697803801932
0.09591329842805862,0.16535399854183197,-0.3390887677669525,2023-10-20T12:10:01.941442Z,1697803801941
0.06944069266319275,0.20951934158802032,-0.3770017921924591,2023-10-20T12:10:01.952454Z,1697803801952
0.037247881293296814,0.25049200654029846,-0.4131854474544525,2023-10-20T12:10:01.965773Z,1697803801965
0.0015963378828018904,0.285478413105011,-0.4455112814903259,2023-10-20T12:10:01.973019Z,1697803801972
-0.034986402839422226,0.31301525235176086,-0.47238296270370483,2023-10-20T12:10:01.982465Z,1697803801982
-0.0702388659119606,0.33350157737731934,-0.49473169445991516,2023-10-20T12:10:01.993523Z,1697803801993
-0.10362893342971802,0.34720346331596375,-0.5137547254562378,2023-10-20T12:10:02.002864Z,1697803802002
-0.1344914585351944,0.35318973660469055,-0.5279887318611145,2023-10-20T12:10:02.015837Z,1697803802015
-0.1613631546497345,0.35052919387817383,-0.5353052616119385,2023-10-20T12:10:02.023149Z,1697803802023
-0.18238160014152527,0.33948785066604614,-0.5355713367462158,2023-10-20T12:10:02.033461Z,1697803802033
-0.19528532028198242,0.32192811369895935,-0.5302501916885376,2023-10-20T12:10:02.043139Z,1697803802043
-0.19834497570991516,0.2997124195098877,-0.5197409987449646,2023-10-20T12:10:02.054314Z,1697803802054
-0.19129447638988495,0.2739049792289734,-0.5035115480422974,2023-10-20T12:10:02.066107Z,1697803802066
-0.1766613870859146,0.24437271058559418,-0.4819609820842743,2023-10-20T12:10:02.074543Z,1697803802074
-0.15737231075763702,0.21084962785243988,-0.45681867003440857,2023-10-20T12:10:02.084976Z,1697803802084
-0.13622082769870758,0.17426687479019165,-0.4292818605899811,2023-10-20T12:10:02.094256Z,1697803802094
-0.11626660823822021,0.14393645524978638,-0.3847174048423767,2023-10-20T12:10:02.103600Z,1697803802103
-0.09564723819494247,0.10229864716529846,-0.3522585332393646,2023-10-20T12:10:02.114203Z,1697803802114
-0.07582604885101318,0.05028464272618294,-0.329776793718338,2023-10-20T12:10:02.124022Z,1697803802123
-0.060394782572984695,0.005454154219478369,-0.2874738276004791,2023-10-20T12:10:02.135218Z,1697803802135
-0.0482892207801342,-0.042169924825429916,-0.24251031875610352,2023-10-20T12:10:02.144211Z,1697803802144
-0.0395093597471714,-0.0921885073184967,-0.19581744074821472,2023-10-20T12:10:02.155632Z,1697803802155
-0.0345873199403286,-0.14340434968471527,-0.14885850250720978,2023-10-20T12:10:02.165634Z,1697803802165
-0.0351194329559803,-0.19448715448379517,-0.10336287319660187,2023-10-20T12:10:02.175928Z,1697803802175
-0.04110569879412651,-0.24450574815273285,-0.05959661304950714,2023-10-20T12:10:02.184610Z,1697803802184
-0.051348865032196045,-0.2921298146247864,-0.01755971647799015,2023-10-20T12:10:02.195469Z,1697803802195
-0.06278929114341736,-0.33669424057006836,0.021417532116174698,2023-10-20T12:10:02.205286Z,1697803802205
-0.07343153655529022,-0.37726783752441406,0.05494062602519989,2023-10-20T12:10:02.215795Z,1697803802215
-0.08141323179006577,-0.4142496585845947,0.08261048048734665,2023-10-20T12:10:02.225769Z,1697803802225
-0.08580315858125687,-0.4493691027164459,0.10735371708869934,2023-10-20T12:10:02.236491Z,1697803802236
-0.08580315858125687,-0.4840894341468811,0.13236300647258759,2023-10-20T12:10:02.248717Z,1697803802248
-0.08221139758825302,-0.5185437202453613,0.15790441632270813,2023-10-20T12:10:02.257141Z,1697803802257
-0.07582604885101318,-0.5508695840835571,0.18264764547348022,2023-10-20T12:10:02.265849Z,1697803802265
-0.06850949674844742,-0.5790715217590332,0.20446427166461945,2023-10-20T12:10:02.277082Z,1697803802277
-0.06239020451903343,-0.6016863584518433,0.22149187326431274,2023-10-20T12:10:02.286348Z,1697803802286
-0.05959661304950714,-0.618713915348053,0.2326662391424179,2023-10-20T12:10:02.299048Z,1697803802299
-0.061059921979904175,-0.6320167779922485,0.23945067822933197,2023-10-20T12:10:02.306631Z,1697803802306
-0.0663810446858406,-0.6439892649650574,0.24503785371780396,2023-10-20T12:10:02.317629Z,1697803802317
-0.07489485293626785,-0.6576911807060242,0.2519553303718567,2023-10-20T12:10:02.326764Z,1697803802326
-0.08646830171346664,-0.6755169630050659,0.259537935256958,2023-10-20T12:10:02.338214Z,1697803802338
-0.10017019510269165,-0.6974666118621826,0.2660562992095947,2023-10-20T12:10:02.349177Z,1697803802349
-0.11307393014431,-0.7208795547485352,0.2716434895992279,2023-10-20T12:10:02.357736Z,1697803802357
-0.12198681384325027,-0.7418980002403259,0.2765655219554901,2023-10-20T12:10:02.367387Z,1697803802367
-0.12504646182060242,-0.7581274509429932,0.2792260944843292,2023-10-20T12:10:02.378439Z,1697803802378
-0.12198681384325027,-0.7685036063194275,0.27696460485458374,2023-10-20T12:10:02.387035Z,1697803802386
-0.11333998292684555,-0.773691713809967,0.2688499093055725,2023-10-20T12:10:02.398775Z,1697803802398
-0.09963808953762054,-0.7758201956748962,0.2567443251609802,2023-10-20T12:10:02.408410Z,1697803802408
-0.08247745782136917,-0.7784807682037354,0.24330848455429077,2023-10-20T12:10:02.418865Z,1697803802418
-0.06345442682504654,-0.785531222820282,0.23027172684669495,2023-10-20T12:10:02.427668Z,1697803802427
-0.04363323375582695,-0.7987010478973389,0.21936342120170593,2023-10-20T12:10:02.439039Z,1697803802439
-0.023945067077875137,-0.8161277174949646,0.21058356761932373,2023-10-20T12:10:02.448416Z,1697803802448
-0.005321125965565443,-0.8339534997940063,0.20153765380382538,2023-10-20T12:10:02.459075Z,1697803802459
0.011174364946782589,-0.8479214310646057,0.1877027153968811,2023-10-20T12:10:02.468953Z,1697803802468
0.025541406124830246,-0.8544397950172424,0.16588610410690308,2023-10-20T12:10:02.482103Z,1697803802482
0.03791302442550659,-0.8521783351898193,0.13568872213363647,2023-10-20T12:10:02.489221Z,1697803802489
0.0477571077644825,-0.8418021202087402,0.09750963747501373,2023-10-20T12:10:02.499746Z,1697803802499
0.053477317094802856,-0.8266369104385376,0.053211260586977005,2023-10-20T12:10:02.509444Z,1697803802509
0.05494062602519989,-0.8120038509368896,0.007981688715517521,2023-10-20T12:10:02.520188Z,1697803802520
0.05241309106349945,-0.8025588393211365,-0.03232584148645401,2023-10-20T12:10:02.531469Z,1697803802531
0.04576168581843376,-0.8008294701576233,-0.06385350972414017,2023-10-20T12:10:02.540342Z,1697803802540
0.0351194329559803,-0.8054854869842529,-0.08713343739509583,2023-10-20T12:10:02.549962Z,1697803802549
0.021284503862261772,-0.8132010698318481,-0.10575737804174423,2023-10-20T12:10:02.560571Z,1697803802560
0.005986266769468784,-0.8205176591873169,-0.12384921312332153,2023-10-20T12:10:02.570303Z,1697803802570
-0.008513801731169224,-0.8249075412750244,-0.14393645524978638,2023-10-20T12:10:02.582098Z,1697803802582
-0.02035330794751644,-0.8267699480056763,-0.16562004387378693,2023-10-20T12:10:02.590276Z,1697803802590
-0.02953225001692772,-0.8282333016395569,-0.18889997899532318,2023-10-20T12:10:02.601070Z,1697803802601
-0.03764696791768074,-0.833687424659729,-0.21204687654972076,2023-10-20T12:10:02.610277Z,1697803802610
-0.045096542686223984,-0.8464581370353699,-0.23027172684669495,2023-10-20T12:10:02.621630Z,1697803802621
-0.05015161260962486,-0.8685408234596252,-0.23838645219802856,2023-10-20T12:10:02.631643Z,1697803802631
-0.051614921540021896,-0.900467574596405,-0.23479469120502472,2023-10-20T12:10:02.642089Z,1697803802642
-0.04855527728796005,-0.9402430057525635,-0.2228221595287323,2023-10-20T12:10:02.650881Z,1697803802650
-0.040041472762823105,-0.9836101531982422,-0.20818905532360077,2023-10-20T12:10:02.665516Z,1697803802665
-0.02514232136309147,-1.0253809690475464,-0.19462019205093384,2023-10-20T12:10:02.671377Z,1697803802671
-0.0031926757656037807,-1.063560128211975,-0.18357884883880615,2023-10-20T12:10:02.682609Z,1697803802682
0.025807460770010948,-1.1001428365707397,-0.17213842272758484,2023-10-20T12:10:02.691816Z,1697803802691
0.06159203499555588,-1.138720989227295,-0.1559089869260788,2023-10-20T12:10:02.702820Z,1697803802702
0.10176653414964676,-1.1810239553451538,-0.1332942098379135,2023-10-20T12:10:02.715Z,1697803802714
0.14207406342029572,-1.2257213592529297,-0.10761977732181549,2023-10-20T12:10:02.722942Z,1697803802722
0.18025314807891846,-1.26789128780365,-0.08433984965085983,2023-10-20T12:10:02.731976Z,1697803802731
0.21803313493728638,-1.3016804456710815,-0.06811041384935379,2023-10-20T12:10:02.742908Z,1697803802742
0.2578085660934448,-1.3217676877975464,-0.06372048705816269,2023-10-20T12:10:02.752672Z,1697803802752
0.29931333661079407,-1.3242952823638916,-0.07502787560224533,2023-10-20T12:10:02.765303Z,1697803802765
0.3386896848678589,-1.3099281787872314,-0.10229864716529846,2023-10-20T12:10:02.773157Z,1697803802773
0.3719467222690582,-1.2843867540359497,-0.14021167159080505,2023-10-20T12:10:02.783199Z,1697803802783
0.396157830953598,-1.2576481103897095,-0.17745955288410187,2023-10-20T12:10:02.793141Z,1697803802793
0.40866249799728394,-1.2396893501281738,-0.2031339854001999,2023-10-20T12:10:02.803644Z,1697803802803
0.4094606637954712,-1.2364966869354248,-0.20885419845581055,2023-10-20T12:10:02.814907Z,1697803802814
0.40201106667518616,-1.2483361959457397,-0.19182659685611725,2023-10-20T12:10:02.824526Z,1697803802824
0.3908367156982422,-1.2694876194000244,-0.15896864235401154,2023-10-20T12:10:02.833079Z,1697803802833
0.3776669204235077,-1.2917033433914185,-0.12305103987455368,2023-10-20T12:10:02.844430Z,1697803802844
0.36183658242225647,-1.3063364028930664,-0.09844083338975906,2023-10-20T12:10:02.854039Z,1697803802853
0.34321263432502747,-1.306469440460205,-0.09471604228019714,2023-10-20T12:10:02.865166Z,1697803802865
0.3243226408958435,-1.2890428304672241,-0.11493632197380066,2023-10-20T12:10:02.874438Z,1697803802874
0.30649685859680176,-1.2559187412261963,-0.15817047655582428,2023-10-20T12:10:02.884844Z,1697803802884
0.289070188999176,-1.212418556213379,-0.21829919517040253,2023-10-20T12:10:02.898046Z,1697803802898
0.2695150375366211,-1.1638633012771606,-0.2848132848739624,2023-10-20T12:10:02.905341Z,1697803802905
0.24556997418403625,-1.1143767833709717,-0.3474695384502411,2023-10-20T12:10:02.914639Z,1697803802914
0.21470743417739868,-1.0667527914047241,-0.39988261461257935,2023-10-20T12:10:02.925547Z,1697803802925
0.17373476922512054,-1.0229865312576294,-0.44072225689888,2023-10-20T12:10:02.934339Z,1697803802934
0.12198681384325027,-0.9833440780639648,-0.47012150287628174,2023-10-20T12:10:02.948420Z,1697803802948
0.06212414801120758,-0.9467613697052002,-0.488878458738327,2023-10-20T12:10:02.955336Z,1697803802955
-2.6605630409903824E-4,-0.9120410084724426,-0.49858951568603516,2023-10-20T12:10:02.966324Z,1697803802966
-0.057601191103458405,-0.8797151446342468,-0.5027133822441101,2023-10-20T12:10:02.975760Z,1697803802975
-0.10309682041406631,-0.8517792820930481,-0.5059060454368591,2023-10-20T12:10:02.986580Z,1697803802986
-0.13036759197711945,-0.8306277990341187,-0.51096111536026,2023-10-20T12:10:02.998277Z,1697803802998
-0.13462449610233307,-0.8179901242256165,-0.5188097953796387,2023-10-20T12:10:03.006721Z,1697803803006
-0.11546843498945236,-0.8145313858985901,-0.5285208225250244,2023-10-20T12:10:03.015636Z,1697803803015
-0.07555998861789703,-0.8198524713516235,-0.5391631126403809,2023-10-20T12:10:03.026658Z,1697803803026
-0.021417532116174698,-0.8324901461601257,-0.5490071773529053,2023-10-20T12:10:03.035811Z,1697803803035
0.0389772467315197,-0.8505820035934448,-0.5564567446708679,2023-10-20T12:10:03.048541Z,1697803803048
0.09724357724189758,-0.8717334866523743,-0.560447633266449,2023-10-20T12:10:03.056893Z,1697803803056
0.14699611067771912,-0.8928849697113037,-0.5605806112289429,2023-10-20T12:10:03.067406Z,1697803803067
0.18477609753608704,-0.9108437299728394,-0.5573879480361938,2023-10-20T12:10:03.076593Z,1697803803076
0.2091202586889267,-0.9226832389831543,-0.5515347123146057,2023-10-20T12:10:03.087733Z,1697803803087
0.21976250410079956,-0.9272062182426453,-0.5438190698623657,2023-10-20T12:10:03.098309Z,1697803803098
0.21710194647312164,-0.9242796301841736,-0.5349062085151672,2023-10-20T12:10:03.107842Z,1697803803107
0.20113857090473175,-0.9141694903373718,-0.5251951217651367,2023-10-20T12:10:03.116965Z,1697803803116
0.17147329449653625,-0.8975409269332886,-0.515084981918335,2023-10-20T12:10:03.127703Z,1697803803127
0.12996850907802582,-0.8749261498451233,-0.5044427514076233,2023-10-20T12:10:03.137258Z,1697803803137
0.08008294552564621,-0.8476553559303284,-0.49313536286354065,2023-10-20T12:10:03.148654Z,1697803803148
0.026472602039575577,-0.8174579739570618,-0.481827974319458,2023-10-20T12:10:03.157758Z,1697803803157
-0.026472602039575577,-0.7851321697235107,-0.47171783447265625,2023-10-20T12:10:03.169040Z,1697803803169
-0.07555998861789703,-0.7516090869903564,-0.46413522958755493,2023-10-20T12:10:03.181701Z,1697803803181
-0.11919322609901428,-0.7175538539886475,-0.45921316742897034,2023-10-20T12:10:03.189248Z,1697803803189
-0.15923470258712769,-0.6833656430244446,-0.45615354180336,2023-10-20T12:10:03.198324Z,1697803803198
-0.20060645043849945,-0.6491773724555969,-0.45375901460647583,2023-10-20T12:10:03.209326Z,1697803803209
-0.24769842624664307,-0.6156542897224426,-0.4491030275821686,2023-10-20T12:10:03.218382Z,1697803803218
-0.3014417886734009,-0.5846587419509888,-0.43779563903808594,2023-10-20T12:10:03.232043Z,1697803803232
-0.3579787611961365,-0.5587182641029358,-0.41691023111343384,2023-10-20T12:10:03.238783Z,1697803803238
-0.41145607829093933,-0.5398282408714294,-0.38777706027030945,2023-10-20T12:10:03.249374Z,1697803803249
-0.4549562931060791,-0.5289199352264404,-0.35425397753715515,2023-10-20T12:10:03.259084Z,1697803803259
-0.4803646504878998,-0.5261263251304626,-0.3195336163043976,2023-10-20T12:10:03.270137Z,1697803803270
-0.4808967709541321,-0.5306493043899536,-0.28614354133605957,2023-10-20T12:10:03.281686Z,1697803803281
-0.4532269239425659,-0.5410255193710327,-0.2563452422618866,2023-10-20T12:10:03.290133Z,1697803803290
-0.39881840348243713,-0.5552595257759094,-0.23293229937553406,2023-10-20T12:10:03.299291Z,1697803803299
-0.32418960332870483,-0.5720210671424866,-0.21643680334091187,2023-10-20T12:10:03.310172Z,1697803803310
-0.2371891885995865,-0.5902459025382996,-0.2052624374628067,2023-10-20T12:10:03.319622Z,1697803803319
-0.14526674151420593,-0.6094019412994385,-0.19741377234458923,2023-10-20T12:10:03.331823Z,1697803803331
-0.0526791475713253,-0.6274937987327576,-0.19235870242118835,2023-10-20T12:10:03.340276Z,1697803803340
0.03831210732460022,-0.6413286924362183,-0.19195961952209473,2023-10-20T12:10:03.351285Z,1697803803351
0.12531252205371857,-0.6475810408592224,-0.19728074967861176,2023-10-20T12:10:03.359984Z,1697803803359
0.20552849769592285,-0.6437232494354248,-0.2085881382226944,2023-10-20T12:10:03.371646Z,1697803803371
0.27536827325820923,-0.629622220993042,-0.2244184911251068,2023-10-20T12:10:03.381111Z,1697803803381
0.33230432868003845,-0.607273519039154,-0.24304243922233582,2023-10-20T12:10:03.391870Z,1697803803391
0.37633663415908813,-0.5805348753929138,-0.262996643781662,2023-10-20T12:10:03.400869Z,1697803803400
0.4122542440891266,-0.5533971190452576,-0.2826848328113556,2023-10-20T12:10:03.415070Z,1697803803415
0.44591036438941956,-0.5290529727935791,-0.30037757754325867,2023-10-20T12:10:03.421382Z,1697803803421
0.4807637333869934,-0.5085666179656982,-0.31434550881385803,2023-10-20T12:10:03.432054Z,1697803803432
0.5157501697540283,-0.49153903126716614,-0.3233914375305176,2023-10-20T12:10:03.441420Z,1697803803441
0.5480759739875793,-0.4769059121608734,-0.3267171382904053,2023-10-20T12:10:03.452649Z,1697803803452
0.5749476552009583,-0.46347007155418396,-0.3253868520259857,2023-10-20T12:10:03.464361Z,1697803803464
0.5949019193649292,-0.4501672685146332,-0.3211299479007721,2023-10-20T12:10:03.472502Z,1697803803472
0.6071404814720154,-0.43606626987457275,-0.3144785463809967,2023-10-20T12:10:03.482095Z,1697803803482
0.6116634607315063,-0.4219653010368347,-0.3045014441013336,2023-10-20T12:10:03.492739Z,1697803803492
0.6105992197990417,-0.4093276262283325,-0.29013440012931824,2023-10-20T12:10:03.502474Z,1697803803502
0.60820472240448,-0.40094685554504395,-0.2723086178302765,2023-10-20T12:10:03.514932Z,1697803803514
0.6086037755012512,-0.3985523581504822,-0.2530195415019989,2023-10-20T12:10:03.522484Z,1697803803522
0.6157873272895813,-0.40320831537246704,-0.23253321647644043,2023-10-20T12:10:03.533225Z,1697803803533
0.6333470344543457,-0.4137175381183624,-0.20978540182113647,2023-10-20T12:10:03.542610Z,1697803803542
0.6644756197929382,-0.4286167025566101,-0.18477609753608704,2023-10-20T12:10:03.553956Z,1697803803553
0.7113015055656433,-0.44763973355293274,-0.15950074791908264,2023-10-20T12:10:03.564073Z,1697803803564
0.7747559547424316,-0.4707866311073303,-0.1366199105978012,2023-10-20T12:10:03.573788Z,1697803803573
0.8557701110839844,-0.49712619185447693,-0.11866111308336258,2023-10-20T12:10:03.583494Z,1697803803583
0.952348530292511,-0.5255942344665527,-0.10748674720525742,2023-10-20T12:10:03.598173Z,1697803803598
1.0607664585113525,-0.5547273755073547,-0.1048261821269989,2023-10-20T12:10:03.603601Z,1697803803603
1.1771661043167114,-0.5823972225189209,-0.11227575689554214,2023-10-20T12:10:03.614800Z,1697803803614
1.2974236011505127,-0.606874406337738,-0.13129878044128418,2023-10-20T12:10:03.623559Z,1697803803623
1.4158185720443726,-0.626828670501709,-0.16256040334701538,2023-10-20T12:10:03.634402Z,1697803803634
1.526365041732788,-0.6417278051376343,-0.20512941479682922,2023-10-20T12:10:03.647625Z,1697803803647
1.6249388456344604,-0.6503746509552002,-0.2558131217956543,2023-10-20T12:10:03.654974Z,1697803803654
1.7070173025131226,-0.6517049074172974,-0.31088680028915405,2023-10-20T12:10:03.664519Z,1697803803664
1.767678141593933,-0.6459847092628479,-0.3655613660812378,2023-10-20T12:10:03.675160Z,1697803803675
1.803329586982727,-0.6344112753868103,-0.4154469072818756,2023-10-20T12:10:03.684620Z,1697803803684
1.8130407333374023,-0.6180487871170044,-0.45628654956817627,2023-10-20T12:10:03.698043Z,1697803803698
1.7988066673278809,-0.5975624322891235,-0.4847545921802521,2023-10-20T12:10:03.704721Z,1697803803704
1.7626230716705322,-0.5729522705078125,-0.49912163615226746,2023-10-20T12:10:03.715674Z,1697803803715
1.7075493335723877,-0.5451493859291077,-0.49925464391708374,2023-10-20T12:10:03.724641Z,1697803803724
1.63731050491333,-0.5152180194854736,-0.4852867126464844,2023-10-20T12:10:03.736116Z,1697803803736
1.5557641983032227,-0.48448851704597473,-0.45748382806777954,2023-10-20T12:10:03.747160Z,1697803803747
1.4667683839797974,-0.45415809750556946,-0.41691023111343384,2023-10-20T12:10:03.756370Z,1697803803756
1.3752450942993164,-0.4247588813304901,-0.3671576976776123,2023-10-20T12:10:03.765339Z,1697803803765
1.2862491607666016,-0.396157830953598,-0.31261616945266724,2023-10-20T12:10:03.776307Z,1697803803776
1.2035056352615356,-0.36862102150917053,-0.25887277722358704,2023-10-20T12:10:03.785647Z,1697803803785
1.1279456615447998,-0.3420153856277466,-0.21045053005218506,2023-10-20T12:10:03.798003Z,1697803803797
1.055977463722229,-0.3166069984436035,-0.1717393398284912,2023-10-20T12:10:03.806373Z,1697803803806
0.9808165431022644,-0.293194055557251,-0.14500068128108978,2023-10-20T12:10:03.817359Z,1697803803817
0.8974078893661499,-0.2717765271663666,-0.13023455440998077,2023-10-20T12:10:03.825707Z,1697803803825
0.7908523678779602,-0.24237729609012604,-0.11653266102075577,2023-10-20T12:10:03.837439Z,1697803803837
0.6914803385734558,-0.22428546845912933,-0.11972533911466599,2023-10-20T12:10:03.847050Z,1697803803847
0.5975624322891235,-0.21484047174453735,-0.13568872213363647,2023-10-20T12:10:03.857786Z,1697803803857
0.48209401965141296,-0.19342292845249176,-0.14260618388652802,2023-10-20T12:10:03.866895Z,1697803803866
0.3648962080478668,-0.17200540006160736,-0.1476612538099289,2023-10-20T12:10:03.880930Z,1697803803880
0.24982686340808868,-0.15271632373332977,-0.14992272853851318,2023-10-20T12:10:03.886781Z,1697803803886
0.1399456113576889,-0.13635385036468506,-0.14952364563941956,2023-10-20T12:10:03.898151Z,1697803803898
0.03884422034025192,-0.12251892685890198,-0.14899152517318726,2023-10-20T12:10:03.907456Z,1697803803907
-0.04922041669487953,-0.1097482219338417,-0.15058787167072296,2023-10-20T12:10:03.918312Z,1697803803918
-0.1218537837266922,-0.09737660735845566,-0.15604202449321747,2023-10-20T12:10:03.930647Z,1697803803930
-0.17972102761268616,-0.08540407568216324,-0.16495491564273834,2023-10-20T12:10:03.938578Z,1697803803938
-0.22681300342082977,-0.0751609057188034,-0.17586322128772736,2023-10-20T12:10:03.947551Z,1697803803947
-0.2667214572429657,-0.06731224805116653,-0.1866385042667389,2023-10-20T12:10:03.958172Z,1697803803958
-0.30051058530807495,-0.061725061386823654,-0.19528532028198242,2023-10-20T12:10:03.968611Z,1697803803968
-0.32738229632377625,-0.05720210447907448,-0.20007434487342834,2023-10-20T12:10:03.981571Z,1697803803981
-0.3474695384502411,-0.052945204079151154,-0.19994130730628967,2023-10-20T12:10:03.988277Z,1697803803988
-0.36183658242225647,-0.04842224717140198,-0.19408807158470154,2023-10-20T12:10:03.999106Z,1697803803999
-0.37247881293296814,-0.04416534677147865,-0.18251462280750275,2023-10-20T12:10:04.009029Z,1697803804008
-0.38165777921676636,-0.04057358577847481,-0.1662851870059967,2023-10-20T12:10:04.019474Z,1697803804019
-0.3919009268283844,-0.037247881293296814,-0.14752821624279022,2023-10-20T12:10:04.030791Z,1697803804030
-0.40480467677116394,-0.03352309390902519,-0.12797307968139648,2023-10-20T12:10:04.039500Z,1697803804039
-0.4222313463687897,-0.028334995731711388,-0.1086840033531189,2023-10-20T12:10:04.048845Z,1697803804048
-0.44537824392318726,-0.02168358862400055,-0.08979400247335434,2023-10-20T12:10:04.064672Z,1697803804064
-0.47384628653526306,-0.013701899908483028,-0.07063794881105423,2023-10-20T12:10:04.069596Z,1697803804069
-0.5056400299072266,-0.004922041669487953,-0.04988555610179901,2023-10-20T12:10:04.081002Z,1697803804080
-0.5383649468421936,0.0038578163366764784,-0.02633957378566265,2023-10-20T12:10:04.090049Z,1697803804090
-0.5698925852775574,0.011573448777198792,2.6605630409903824E-4,2023-10-20T12:10:04.100966Z,1697803804100
-0.5980945825576782,0.018091829493641853,0.028068939223885536,2023-10-20T12:10:04.109808Z,1697803804109
-0.6212414503097534,0.023679010570049286,0.05307823419570923,2023-10-20T12:10:04.120749Z,1697803804120
-0.6397323608398438,0.029000137001276016,0.07063794881105423,2023-10-20T12:10:04.130431Z,1697803804130
-0.6564939022064209,0.03445428982377052,0.07808752357959747,2023-10-20T12:10:04.140800Z,1697803804140
-0.6752508878707886,0.040972672402858734,0.07449576258659363,2023-10-20T12:10:04.150458Z,1697803804150
-0.6975996494293213,0.04935344308614731,0.05972963944077492,2023-10-20T12:10:04.164131Z,1697803804164
-0.7230079770088196,0.05999569594860077,0.03578457236289978,2023-10-20T12:10:04.170923Z,1697803804170
-0.7502787709236145,0.07236731797456741,0.0065183793194592,2023-10-20T12:10:04.182524Z,1697803804182
-0.7770174145698547,0.08500499278306961,-0.023412954062223434,2023-10-20T12:10:04.191055Z,1697803804191
-0.7980358600616455,0.09697752445936203,-0.051348865032196045,2023-10-20T12:10:04.202659Z,1697803804202
-0.80734783411026,0.10775279998779297,-0.07649118453264236,2023-10-20T12:10:04.213627Z,1697803804213
-0.8001643419265747,0.11826203018426895,-0.09870688617229462,2023-10-20T12:10:04.222695Z,1697803804222
-0.7755541205406189,0.12863822281360626,-0.11839505285024643,2023-10-20T12:10:04.231616Z,1697803804231
-0.7371090054512024,0.13795019686222076,-0.1366199105978012,2023-10-20T12:10:04.242665Z,1697803804242
-0.6924115419387817,0.14446857571601868,-0.15431265532970428,2023-10-20T12:10:04.251969Z,1697803804251
-0.6491773724555969,0.1460649073123932,-0.1717393398284912,2023-10-20T12:10:04.264392Z,1697803804264
-0.6123285889625549,0.14313828945159912,-0.1887669414281845,2023-10-20T12:10:04.272229Z,1697803804272
-0.5830624103546143,0.13795019686222076,-0.2047303318977356,2023-10-20T12:10:04.283407Z,1697803804283
-0.5624430179595947,0.1332942098379135,-0.21923039853572845,2023-10-20T12:10:04.292188Z,1697803804292
-0.5525989532470703,0.13050061464309692,-0.23173503577709198,2023-10-20T12:10:04.303635Z,1697803804303
-0.5561907291412354,0.12970244884490967,-0.240913987159729,2023-10-20T12:10:04.313793Z,1697803804313
-0.5749476552009583,0.13050061464309692,-0.24623510241508484,2023-10-20T12:10:04.323578Z,1697803804323
-0.6095349788665771,0.13209696114063263,-0.24690024554729462,2023-10-20T12:10:04.333034Z,1697803804332
-0.65915447473526,0.13435843586921692,-0.24224425852298737,2023-10-20T12:10:04.347857Z,1697803804347
-0.7196822762489319,0.13741807639598846,-0.2316020131111145,2023-10-20T12:10:04.353527Z,1697803804353
-0.7832697629928589,0.1410098373889923,-0.21444137394428253,2023-10-20T12:10:04.364059Z,1697803804364
-0.8427333235740662,0.14473463594913483,-0.19062934815883636,2023-10-20T12:10:04.373540Z,1697803804373
-0.8938161730766296,0.14673005044460297,-0.16003286838531494,2023-10-20T12:10:04.384900Z,1697803804384
-0.9347888231277466,0.14513371884822845,-0.12371618300676346,2023-10-20T12:10:04.396887Z,1697803804396
-0.9629908204078674,0.13928046822547913,-0.08354167640209198,2023-10-20T12:10:04.404637Z,1697803804404
-0.974564254283905,0.12970244884490967,-0.041903868317604065,2023-10-20T12:10:04.413836Z,1697803804413
-0.9661834836006165,0.11826203018426895,-0.0014633096288889647,2023-10-20T12:10:04.424958Z,1697803804424
-0.9366512298583984,0.10682160407304764,0.035917602479457855,2023-10-20T12:10:04.434121Z,1697803804434
-0.8883619904518127,0.09564723819494247,0.06771133095026016,2023-10-20T12:10:04.447471Z,1697803804447
-0.8257057666778564,0.08473893254995346,0.091656394302845,2023-10-20T12:10:04.454376Z,1697803804454
-0.7537375092506409,0.07396364957094193,0.10589040815830231,2023-10-20T12:10:04.465589Z,1697803804465
-0.663677453994751,0.06358745694160461,0.10243167728185654,2023-10-20T12:10:04.474798Z,1697803804474
-0.5845257043838501,0.055073656141757965,0.10003717243671417,2023-10-20T12:10:04.485734Z,1697803804485
-0.5169473886489868,0.04762407764792442,0.09817477315664291,2023-10-20T12:10:04.497344Z,1697803804497
-0.441387414932251,0.04070661589503288,0.08380773663520813,2023-10-20T12:10:04.506160Z,1697803804506
-0.3770017921924591,0.034720346331596375,0.07156914472579956,2023-10-20T12:10:04.514906Z,1697803804514
-0.31261616945266724,0.0438992902636528,0.03831210732460022,2023-10-20T12:10:04.529994Z,1697803804529
-0.2546158730983734,0.059197526425123215,-0.005454154219478369,2023-10-20T12:10:04.535616Z,1697803804535
-0.21337716281414032,0.06717921793460846,-0.03804605081677437,2023-10-20T12:10:04.547121Z,1697803804547
-0.1838449090719223,0.07635816186666489,-0.0702388659119606,2023-10-20T12:10:04.556130Z,1697803804556
-0.16708335280418396,0.08447287976741791,-0.10017019510269165,2023-10-20T12:10:04.566684Z,1697803804566
-0.16123011708259583,0.09032611548900604,-0.12664279341697693,2023-10-20T12:10:04.576176Z,1697803804576
-0.16056497395038605,0.09431695938110352,-0.14845941960811615,2023-10-20T12:10:04.587027Z,1697803804586
-0.15763835608959198,0.09804175049066544,-0.1652209609746933,2023-10-20T12:10:04.596936Z,1697803804596
-0.14859244227409363,0.10256470739841461,-0.1773265302181244,2023-10-20T12:10:04.607033Z,1697803804607
-0.13209696114063263,0.09724357724189758,-0.16921180486679077,2023-10-20T12:10:04.616453Z,1697803804616
-0.10948216915130615,0.10136745125055313,-0.17865680158138275,2023-10-20T12:10:04.630221Z,1697803804630
-0.07941780984401703,0.11373907327651978,-0.20512941479682922,2023-10-20T12:10:04.636835Z,1697803804636
-0.03977541625499725,0.11506935209035873,-0.21231293678283691,2023-10-20T12:10:04.647940Z,1697803804647
0.0065183793194592,0.11613357812166214,-0.2201615869998932,2023-10-20T12:10:04.657017Z,1697803804656
0.05627090856432915,0.11639963090419769,-0.22814327478408813,2023-10-20T12:10:04.668078Z,1697803804668
0.10775279998779297,0.11586751788854599,-0.23532679677009583,2023-10-20T12:10:04.679909Z,1697803804679
0.15950074791908264,0.11400512605905533,-0.24104700982570648,2023-10-20T12:10:04.688138Z,1697803804688
0.20845511555671692,0.1097482219338417,-0.24463877081871033,2023-10-20T12:10:04.697917Z,1697803804697
0.25222137570381165,0.10216562449932098,-0.24610207974910736,2023-10-20T12:10:04.708562Z,1697803804708
0.28960227966308594,0.0921885073184967,-0.2453039139509201,2023-10-20T12:10:04.717860Z,1697803804717
0.3211299479007721,0.08114717155694962,-0.24224425852298737,2023-10-20T12:10:04.730698Z,1697803804730
0.34760257601737976,0.07117006182670593,-0.23745524883270264,2023-10-20T12:10:04.738245Z,1697803804738
0.3694191873073578,0.06345442682504654,-0.2310699075460434,2023-10-20T12:10:04.749660Z,1697803804749
0.38511648774147034,0.057867247611284256,-0.22348730266094208,2023-10-20T12:10:04.758231Z,1697803804758
0.392965167760849,0.053211260586977005,-0.2151065170764923,2023-10-20T12:10:04.769888Z,1697803804769
0.39163488149642944,0.048156190663576126,-0.20592758059501648,2023-10-20T12:10:04.779904Z,1697803804779
0.381391704082489,0.041903868317604065,-0.19515229761600494,2023-10-20T12:10:04.789440Z,1697803804789
0.3468043804168701,0.035651545971632004,-0.17546413838863373,2023-10-20T12:10:04.799015Z,1697803804798
0.3272492587566376,0.024344151839613914,-0.1569732129573822,2023-10-20T12:10:04.809619Z,1697803804809
0.3104877173900604,0.014633096754550934,-0.14114287495613098,2023-10-20T12:10:04.818904Z,1697803804818
0.2907995283603668,-0.0018623941577970982,-0.10841794312000275,2023-10-20T12:10:04.830226Z,1697803804830
0.2874738276004791,-0.025807460770010948,-0.06731224805116653,2023-10-20T12:10:04.839199Z,1697803804839
0.2744370698928833,-0.04203689470887184,-0.026738658547401428,2023-10-20T12:10:04.850345Z,1697803804850
0.26645538210868835,-0.05720210447907448,0.015298237092792988,2023-10-20T12:10:04.863396Z,1697803804863
0.2619324326515198,-0.07130309194326401,0.05627090856432915,2023-10-20T12:10:04.870964Z,1697803804870
0.2586067318916321,-0.08513801544904709,0.09511512517929077,2023-10-20T12:10:04.880112Z,1697803804880
0.25501495599746704,-0.09910597652196884,0.13236300647258759,2023-10-20T12:10:04.891030Z,1697803804890
0.251822292804718,-0.11320696026086807,0.16921180486679077,2023-10-20T12:10:04.900617Z,1697803804900
0.2519553303718567,-0.1273079365491867,0.20645968616008759,2023-10-20T12:10:04.914509Z,1697803804914
0.25940489768981934,-0.1416749805212021,0.24437271058559418,2023-10-20T12:10:04.921086Z,1697803804921
0.27749672532081604,-0.15723927319049835,0.28295087814331055,2023-10-20T12:10:04.931239Z,1697803804931
0.3095565140247345,-0.17386779189109802,0.32139602303504944,2023-10-20T12:10:04.940745Z,1697803804940
0.3579787611961365,-0.19076237082481384,0.35877692699432373,2023-10-20T12:10:04.951789Z,1697803804951
0.422497421503067,-0.207523912191391,0.39256608486175537,2023-10-20T12:10:04.963264Z,1697803804963
0.49805739521980286,-0.2238863855600357,0.4203689694404602,2023-10-20T12:10:04.972337Z,1697803804972
0.5770761370658875,-0.2398497611284256,0.4396580457687378,2023-10-20T12:10:04.981568Z,1697803804981
0.652237057685852,-0.25434982776641846,0.44923606514930725,2023-10-20T12:10:04.992078Z,1697803804992
0.7186180949211121,-0.2655241787433624,0.44870394468307495,2023-10-20T12:10:05.001912Z,1697803805001
0.7727605104446411,-0.27137744426727295,0.4380617141723633,2023-10-20T12:10:05.014014Z,1697803805013
0.811471700668335,-0.27151045203208923,0.41730931401252747,2023-10-20T12:10:05.022189Z,1697803805022
0.8312929272651672,-0.2671205401420593,0.38671284914016724,2023-10-20T12:10:05.033445Z,1697803805033
0.8303617238998413,-0.25940489768981934,0.34760257601737976,2023-10-20T12:10:05.041721Z,1697803805041
0.8108065724372864,-0.2486296147108078,0.30223995447158813,2023-10-20T12:10:05.053667Z,1697803805053
0.7767513990402222,-0.23466165363788605,0.25448286533355713,2023-10-20T12:10:05.063323Z,1697803805063
0.7313888072967529,-0.2179001122713089,0.20778997242450714,2023-10-20T12:10:05.073334Z,1697803805073
0.6760490536689758,-0.1992761790752411,0.1662851870059967,2023-10-20T12:10:05.082912Z,1697803805082
0.5987597107887268,-0.17599624395370483,0.13648688793182373,2023-10-20T12:10:05.097307Z,1697803805097
0.5112271904945374,-0.1503218114376068,0.11666569113731384,2023-10-20T12:10:05.103226Z,1697803805103
0.43659839034080505,-0.1283721625804901,0.09963808953762054,2023-10-20T12:10:05.114213Z,1697803805114
0.3720797300338745,-0.12345012277364731,0.10362893342971802,2023-10-20T12:10:05.123343Z,1697803805123
0.29612067341804504,-0.12145470082759857,0.12611068785190582,2023-10-20T12:10:05.134439Z,1697803805134
0.20446427166461945,-0.1086840033531189,0.15231724083423615,2023-10-20T12:10:05.145896Z,1697803805145
0.11387209594249725,-0.09870688617229462,0.18703758716583252,2023-10-20T12:10:05.154559Z,1697803805154
0.027669856324791908,-0.09258759021759033,0.2277441918849945,2023-10-20T12:10:05.163382Z,1697803805163
-0.050018586218357086,-0.09006005525588989,0.2721756100654602,2023-10-20T12:10:05.174437Z,1697803805174
-0.11440420895814896,-0.09032611548900604,0.31807032227516174,2023-10-20T12:10:05.184288Z,1697803805184
-0.16056497395038605,-0.09285365045070648,0.36369895935058594,2023-10-20T12:10:05.196747Z,1697803805196
-0.1859733611345291,-0.09671146422624588,0.4062679708003998,2023-10-20T12:10:05.203948Z,1697803805203
-0.19129447638988495,-0.10163351148366928,0.44324979186058044,2023-10-20T12:10:05.215416Z,1697803805215
-0.1794549822807312,-0.10708766430616379,0.4715847969055176,2023-10-20T12:10:05.224597Z,1697803805224
-0.1536475121974945,-0.11267484724521637,0.4883463382720947,2023-10-20T12:10:05.235713Z,1697803805235
-0.1174638569355011,-0.1174638569355011,0.4912729561328888,2023-10-20T12:10:05.246213Z,1697803805246
-0.0735645666718483,-0.12039047479629517,0.47836923599243164,2023-10-20T12:10:05.255622Z,1697803805255
-0.024610208347439766,-0.12025745213031769,0.4495021402835846,2023-10-20T12:10:05.265527Z,1697803805265
0.02633957378566265,-0.11666569113731384,0.40586888790130615,2023-10-20T12:10:05.276177Z,1697803805276
0.07569301873445511,-0.1097482219338417,0.35039615631103516,2023-10-20T12:10:05.285255Z,1697803805285
0.1213216781616211,-0.10003717243671417,0.28667566180229187,2023-10-20T12:10:05.296665Z,1697803805296
0.1636246293783188,-0.08739949762821198,0.2189643383026123,2023-10-20T12:10:05.305122Z,1697803805305
0.20379912853240967,-0.07210125774145126,0.15125301480293274,2023-10-20T12:10:05.316456Z,1697803805316
0.24011582136154175,-0.055339712649583817,0.08700041472911835,2023-10-20T12:10:05.329358Z,1697803805329
0.2693819999694824,-0.038711193948984146,0.029000137001276016,2023-10-20T12:10:05.337226Z,1697803805337
0.29053348302841187,-0.023412954062223434,-0.02101844735443592,2023-10-20T12:10:05.346340Z,1697803805346
0.3035702407360077,-0.010110139846801758,-0.06119294837117195,2023-10-20T12:10:05.357462Z,1697803805357
0.30875834822654724,3.990844707004726E-4,-0.09099125862121582,2023-10-20T12:10:05.366305Z,1697803805366
0.3052996098995209,0.00784866139292717,-0.11014731228351593,2023-10-20T12:10:05.379892Z,1697803805379
0.29439130425453186,0.012903730385005474,-0.11945927888154984,2023-10-20T12:10:05.386924Z,1697803805386
0.2797582149505615,0.017426688224077225,-0.12039047479629517,2023-10-20T12:10:05.397196Z,1697803805397
0.25222137570381165,0.01849091239273548,-0.11041336506605148,2023-10-20T12:10:05.407203Z,1697803805407
0.24131307005882263,0.026871686801314354,-0.09977111220359802,2023-10-20T12:10:05.418426Z,1697803805418
0.2321341186761856,0.034055206924676895,-0.09072519838809967,2023-10-20T12:10:05.429769Z,1697803805429
0.2173680067062378,0.04137175530195236,-0.07449576258659363,2023-10-20T12:10:05.438070Z,1697803805438
0.2047303318977356,0.0477571077644825,-0.06066083908081055,2023-10-20T12:10:05.446844Z,1697803805446
0.1894320845603943,0.051614921540021896,-0.04496351629495621,2023-10-20T12:10:05.458354Z,1697803805458
0.17639532685279846,0.05494062602519989,-0.03179372847080231,2023-10-20T12:10:05.467871Z,1697803805467
0.17373476922512054,0.058266330510377884,-0.022215701639652252,2023-10-20T12:10:05.479535Z,1697803805479
0.17147329449653625,0.0609268918633461,-0.01396795641630888,2023-10-20T12:10:05.488205Z,1697803805488
0.18717060983181,0.06385350972414017,-0.014367040246725082,2023-10-20T12:10:05.498836Z,1697803805498
0.22601483762264252,0.07117006182670593,-0.02008725143969059,2023-10-20T12:10:05.508134Z,1697803805508
0.2470332831144333,0.0702388659119606,-0.0307295024394989,2023-10-20T12:10:05.519569Z,1697803805519
0.27151045203208923,0.0691746398806572,-0.04496351629495621,2023-10-20T12:10:05.529596Z,1697803805529
0.29625368118286133,0.06811041384935379,-0.061059921979904175,2023-10-20T12:10:05.539273Z,1697803805539
0.3172721564769745,0.06611499190330505,-0.07742238789796829,2023-10-20T12:10:05.548528Z,1697803805548
0.3320382535457611,0.06225717440247536,-0.09272062033414841,2023-10-20T12:10:05.559218Z,1697803805559
0.34228143095970154,0.0570690780878067,-0.10655555129051208,2023-10-20T12:10:05.569274Z,1697803805569
0.34986403584480286,0.05148189514875412,-0.11866111308336258,2023-10-20T12:10:05.579974Z,1697803805579
0.3541209399700165,0.04549562931060791,-0.12877124547958374,2023-10-20T12:10:05.589596Z,1697803805589
0.3527906537055969,0.039110276848077774,-0.13701899349689484,2023-10-20T12:10:05.600200Z,1697803805600
0.3430795967578888,0.03285795450210571,-0.14340434968471527,2023-10-20T12:10:05.612929Z,1697803805612
0.32086390256881714,0.026206545531749725,-0.14752821624279022,2023-10-20T12:10:05.620300Z,1697803805620
0.2837490439414978,0.021151475608348846,-0.13808321952819824,2023-10-20T12:10:05.629865Z,1697803805629
0.22415243089199066,0.013302815146744251,-0.13462449610233307,2023-10-20T12:10:05.640637Z,1697803805640
0.14313828945159912,0.004522957373410463,-0.13542266190052032,2023-10-20T12:10:05.650173Z,1697803805650
0.04868830367922783,7.981689414009452E-4,-0.11919322609901428,2023-10-20T12:10:05.662962Z,1697803805662
-0.05906450003385544,-0.001064225216396153,-0.09750963747501373,2023-10-20T12:10:05.670699Z,1697803805670
-0.17878983914852142,-0.0022614786867052317,-0.07143611460924149,2023-10-20T12:10:05.681440Z,1697803805681
-0.3090243935585022,-0.0038578163366764784,-0.04296809434890747,2023-10-20T12:10:05.690445Z,1697803805690
-0.44657549262046814,-0.005986266769468784,-0.015830349177122116,2023-10-20T12:10:05.702069Z,1697803805702
-0.5853238701820374,-0.007981688715517521,0.00611929502338171,2023-10-20T12:10:05.713263Z,1697803805713
-0.7187511324882507,-0.007981688715517521,0.020220279693603516,2023-10-20T12:10:05.722207Z,1697803805722
-0.8406049013137817,-0.005055069923400879,0.023945067077875137,2023-10-20T12:10:05.731155Z,1697803805731
-0.9460962414741516,2.6605630409903824E-4,0.016229433938860893,2023-10-20T12:10:05.742394Z,1697803805742
-1.0329636335372925,0.0063853515312075615,-0.0031926757656037807,2023-10-20T12:10:05.751168Z,1697803805751
-1.0998767614364624,0.012105561792850494,-0.03299098089337349,2023-10-20T12:10:05.763127Z,1697803805763
-1.1448402404785156,0.017825772985816002,-0.07130309194326401,2023-10-20T12:10:05.772225Z,1697803805772
-1.1670559644699097,0.024876264855265617,-0.11600054800510406,2023-10-20T12:10:05.782796Z,1697803805782
-1.1693174839019775,0.033390067517757416,-0.1646888554096222,2023-10-20T12:10:05.791689Z,1697803805791
-1.1589412689208984,0.04203689470887184,-0.21444137394428253,2023-10-20T12:10:05.803288Z,1697803805803
-1.1441751718521118,0.04908738657832146,-0.2624645531177521,2023-10-20T12:10:05.812531Z,1697803805812
-1.1306062936782837,0.05440851300954819,-0.30649685859680176,2023-10-20T12:10:05.823371Z,1697803805823
-1.1220924854278564,0.05866541340947151,-0.3450750410556793,2023-10-20T12:10:05.832977Z,1697803805832
-1.121028184890747,0.06239020451903343,-0.3766027092933655,2023-10-20T12:10:05.842717Z,1697803805842
-1.129675030708313,0.06505076587200165,-0.4001486897468567,2023-10-20T12:10:05.853040Z,1697803805852
-1.1488311290740967,0.06571590900421143,-0.415047824382782,2023-10-20T12:10:05.863289Z,1697803805863
-1.1767669916152954,0.06465168297290802,-0.4219653010368347,2023-10-20T12:10:05.873495Z,1697803805873
-1.209625005722046,0.06278929114341736,-0.42169925570487976,2023-10-20T12:10:05.883502Z,1697803805883
-1.241019606590271,0.06292231380939484,-0.4154469072818756,2023-10-20T12:10:05.896442Z,1697803805896
-1.2642995119094849,0.06691315770149231,-0.40413951873779297,2023-10-20T12:10:05.904519Z,1697803805904
-1.2752078771591187,0.07449576258659363,-0.3892403841018677,2023-10-20T12:10:05.913519Z,1697803805913
-1.2732124328613281,0.0834086537361145,-0.37287789583206177,2023-10-20T12:10:05.924698Z,1697803805924
-1.2601757049560547,0.09032611548900604,-0.35704755783081055,2023-10-20T12:10:05.933862Z,1697803805933
-1.2368957996368408,0.09338576346635818,-0.34321263432502747,2023-10-20T12:10:05.946544Z,1697803805946
-1.2027075290679932,0.09232153743505478,-0.33110707998275757,2023-10-20T12:10:05.954335Z,1697803805954
-1.1564136743545532,0.08819766342639923,-0.3197996914386749,2023-10-20T12:10:05.964915Z,1697803805964
-1.0989456176757812,0.08221139758825302,-0.3074280619621277,2023-10-20T12:10:05.974229Z,1697803805974
-1.0338947772979736,0.07436273992061615,-0.2926619350910187,2023-10-20T12:10:05.984957Z,1697803805984
-0.966848611831665,0.06425260007381439,-0.274570107460022,2023-10-20T12:10:05.995668Z,1697803805995
-0.9029951095581055,0.051614921540021896,-0.25288650393486023,2023-10-20T12:10:06.005461Z,1697803806005
-0.84592604637146,0.037247881293296814,-0.22801025211811066,2023-10-20T12:10:06.014678Z,1697803806014
-0.7980358600616455,0.0219496451318264,-0.20073948800563812,2023-10-20T12:10:06.029349Z,1697803806029
-0.7603889107704163,0.0065183793194592,-0.17160631716251373,2023-10-20T12:10:06.035152Z,1697803806035
-0.7323199510574341,-0.007582604885101318,-0.1422071009874344,2023-10-20T12:10:06.046061Z,1697803806046
-0.7115675806999207,-0.019289081916213036,-0.11400512605905533,2023-10-20T12:10:06.055412Z,1697803806055
-0.6956042051315308,-0.02793591283261776,-0.08886280655860901,2023-10-20T12:10:06.065992Z,1697803806065
-0.6812371611595154,-0.033124011009931564,-0.06784436106681824,2023-10-20T12:10:06.079402Z,1697803806079
-0.6655398607254028,-0.035651545971632004,-0.05174795165657997,2023-10-20T12:10:06.086349Z,1697803806086
-0.6458516716957092,-0.03618365898728371,-0.04044055938720703,2023-10-20T12:10:06.095934Z,1697803806095
-0.6199111938476562,-0.03605062887072563,-0.033124011009931564,2023-10-20T12:10:06.106778Z,1697803806106
-0.5859889984130859,-0.036848798394203186,-0.028334995731711388,2023-10-20T12:10:06.116029Z,1697803806115
-0.5253281593322754,-0.03485337644815445,-0.024344151839613914,2023-10-20T12:10:06.129634Z,1697803806129
-0.4751765727996826,-0.04203689470887184,-0.018091829493641853,2023-10-20T12:10:06.136487Z,1697803806136
-0.43234148621559143,-0.0482892207801342,-0.012637674808502197,2023-10-20T12:10:06.147219Z,1697803806147
-0.3601072132587433,-0.06411956995725632,-1.3302815204951912E-4,2023-10-20T12:10:06.157390Z,1697803806157
-0.27896004915237427,-0.09232153743505478,0.01849091239273548,2023-10-20T12:10:06.167325Z,1697803806167
-0.18903300166130066,-0.10961519926786423,0.032458867877721786,2023-10-20T12:10:06.178929Z,1697803806178
-0.09338576346635818,-0.1262437105178833,0.04456442967057228,2023-10-20T12:10:06.188155Z,1697803806188
0.0055871824733912945,-0.14087681472301483,0.05241309106349945,2023-10-20T12:10:06.197855Z,1697803806197
0.10549132525920868,-0.15205118060112,0.05440851300954819,2023-10-20T12:10:06.208389Z,1697803806208
0.2030009627342224,-0.1597668081521988,0.04988555610179901,2023-10-20T12:10:06.217643Z,1697803806217
0.2946573495864868,-0.16402371227741241,0.0395093597471714,2023-10-20T12:10:06.229681Z,1697803806229
0.37793296575546265,-0.16482187807559967,0.025009293109178543,2023-10-20T12:10:06.238031Z,1697803806237
0.45202967524528503,-0.16229434311389923,0.008779858238995075,2023-10-20T12:10:06.248630Z,1697803806248
0.5156171321868896,-0.1569732129573822,-0.00611929502338171,2023-10-20T12:10:06.258174Z,1697803806258
0.566832959651947,-0.1503218114376068,-0.01755971647799015,2023-10-20T12:10:06.269509Z,1697803806269
0.604080855846405,-0.14420251548290253,-0.024344151839613914,2023-10-20T12:10:06.278708Z,1697803806278
0.6277598738670349,-0.13928046822547913,-0.02700471505522728,2023-10-20T12:10:06.289391Z,1697803806289
0.6406635642051697,-0.13515660166740417,-0.026871686801314354,2023-10-20T12:10:06.298842Z,1697803806298
0.6459847092628479,-0.13076667487621307,-0.024610208347439766,2023-10-20T12:10:06.313383Z,1697803806313
0.6462507843971252,-0.12637674808502197,-0.021816616877913475,2023-10-20T12:10:06.319339Z,1697803806319
0.6426590085029602,-0.1229180097579956,-0.019289081916213036,2023-10-20T12:10:06.329881Z,1697803806329
0.6360076069831848,-0.1213216781616211,-0.018091829493641853,2023-10-20T12:10:06.339293Z,1697803806339
0.6276268362998962,-0.12158773094415665,-0.018091829493641853,2023-10-20T12:10:06.350382Z,1697803806350
0.6183148622512817,-0.12331710010766983,-0.01888999715447426,2023-10-20T12:10:06.362184Z,1697803806362
0.607273519039154,-0.12611068785190582,-0.01982119493186474,2023-10-20T12:10:06.370656Z,1697803806370
0.5925073623657227,-0.1295694261789322,-0.02101844735443592,2023-10-20T12:10:06.379625Z,1697803806379
0.5714889168739319,-0.13302814960479736,-0.02327992580831051,2023-10-20T12:10:06.390686Z,1697803806390
0.5422227382659912,-0.1360878050327301,-0.02700471505522728,2023-10-20T12:10:06.400419Z,1697803806400
0.48701605200767517,-0.12717491388320923,-0.027137743309140205,2023-10-20T12:10:06.412430Z,1697803806412
0.4468415677547455,-0.1273079365491867,-0.032192811369895935,2023-10-20T12:10:06.420443Z,1697803806420
0.41238728165626526,-0.12744097411632538,-0.03644971549510956,2023-10-20T12:10:06.431325Z,1697803806431
0.3522585332393646,-0.10881702601909637,-0.03112858720123768,2023-10-20T12:10:06.440628Z,1697803806440
0.3068959414958954,-0.11187667399644852,-0.033390067517757416,2023-10-20T12:10:06.451541Z,1697803806451
0.26818475127220154,-0.11440420895814896,-0.03538548946380615,2023-10-20T12:10:06.462428Z,1697803806462
0.20818905532360077,-0.11347301304340363,-0.023412954062223434,2023-10-20T12:10:06.471623Z,1697803806471
0.14313828945159912,-0.1218537837266922,-0.006252323277294636,2023-10-20T12:10:06.481607Z,1697803806481
0.095514215528965,-0.12211984395980835,0.010376195423305035,2023-10-20T12:10:06.492047Z,1697803806492
0.05866541340947151,-0.12158773094415665,0.027669856324791908,2023-10-20T12:10:06.501221Z,1697803806501
0.04017450287938118,-0.11214273422956467,0.03365612402558327,2023-10-20T12:10:06.512514Z,1697803806512
0.02447718009352684,-0.11147759109735489,0.049752529710531235,2023-10-20T12:10:06.521694Z,1697803806521
0.011041336692869663,-0.11081244796514511,0.06345442682504654,2023-10-20T12:10:06.532989Z,1697803806532
0.008247745223343372,-0.11387209594249725,0.07183520495891571,2023-10-20T12:10:06.545537Z,1697803806545
0.005853238515555859,-0.11653266102075577,0.0790187194943428,2023-10-20T12:10:06.553081Z,1697803806553
0.0130367586389184,-0.1213216781616211,0.07928477972745895,2023-10-20T12:10:06.562017Z,1697803806561
0.01915605366230011,-0.12544554471969604,0.0795508325099945,2023-10-20T12:10:06.573326Z,1697803806573
0.03179372847080231,-0.12664279341697693,0.07236731797456741,2023-10-20T12:10:06.582465Z,1697803806582
0.04243598133325577,-0.127840057015419,0.06624802201986313,2023-10-20T12:10:06.595810Z,1697803806595
0.05613787844777107,-0.12331710010766983,0.05587182566523552,2023-10-20T12:10:06.602979Z,1697803806602
0.06771133095026016,-0.11959230899810791,0.04709196463227272,2023-10-20T12:10:06.613511Z,1697803806613
0.057867247611284256,-0.10216562449932098,0.040307529270648956,2023-10-20T12:10:06.623263Z,1697803806623
0.08487196266651154,-0.09564723819494247,0.03139464557170868,2023-10-20T12:10:06.634325Z,1697803806634
0.10801886022090912,-0.09019308537244797,0.02381203882396221,2023-10-20T12:10:06.645767Z,1697803806645
0.11839505285024643,-0.07782147079706192,0.02075239084661007,2023-10-20T12:10:06.654421Z,1697803806654
0.12717491388320923,-0.06731224805116653,0.017958801239728928,2023-10-20T12:10:06.663746Z,1697803806663
0.13688597083091736,-0.05813330411911011,0.01755971647799015,2023-10-20T12:10:06.674401Z,1697803806674
0.14513371884822845,-0.05028464272618294,0.017027603462338448,2023-10-20T12:10:06.683497Z,1697803806683
0.15870258212089539,-0.042569007724523544,0.013302815146744251,2023-10-20T12:10:06.695923Z,1697803806695
0.19249173998832703,-0.03392218053340912,0.005986266769468784,2023-10-20T12:10:06.704143Z,1697803806704
0.21204687654972076,-0.023013871163129807,-0.006917464081197977,2023-10-20T12:10:06.715464Z,1697803806715
0.2338634878396988,-0.010376195423305035,-0.025009293109178543,2023-10-20T12:10:06.724231Z,1697803806724
0.255680114030838,0.0034587320405989885,-0.04855527728796005,2023-10-20T12:10:06.735662Z,1697803806735
0.2756343185901642,0.017958801239728928,-0.07675724476575851,2023-10-20T12:10:06.745321Z,1697803806745
0.2930610179901123,0.033390067517757416,-0.10761977732181549,2023-10-20T12:10:06.755317Z,1697803806755
0.30716201663017273,0.04935344308614731,-0.1383492797613144,2023-10-20T12:10:06.764944Z,1697803806764
0.3178042471408844,0.06518379598855972,-0.1662851870059967,2023-10-20T12:10:06.779081Z,1697803806779
0.3239235579967499,0.07981689274311066,-0.1887669414281845,2023-10-20T12:10:06.785402Z,1697803806785
0.3249877691268921,0.09311970323324203,-0.20433124899864197,2023-10-20T12:10:06.796263Z,1697803806796
0.322061151266098,0.10509224236011505,-0.2129780650138855,2023-10-20T12:10:06.805441Z,1697803806805
0.3178042471408844,0.11613357812166214,-0.21603772044181824,2023-10-20T12:10:06.816284Z,1697803806816
0.3151437044143677,0.1262437105178833,-0.2173680067062378,2023-10-20T12:10:06.828547Z,1697803806828
0.3155427873134613,0.13475751876831055,-0.2217579334974289,2023-10-20T12:10:06.836336Z,1697803806836
0.3194005787372589,0.1416749805212021,-0.23173503577709198,2023-10-20T12:10:06.845483Z,1697803806845
0.3276483416557312,0.14686307311058044,-0.24596905708312988,2023-10-20T12:10:06.856764Z,1697803806856
0.3402860164642334,0.15005575120449066,-0.26046910881996155,2023-10-20T12:10:06.865747Z,1697803806865
0.35585030913352966,0.15111997723579407,-0.27190953493118286,2023-10-20T12:10:06.878895Z,1697803806878
0.3715476393699646,0.14939060807228088,-0.2781618535518646,2023-10-20T12:10:06.886245Z,1697803806886
0.3841853141784668,0.14393645524978638,-0.2788270115852356,2023-10-20T12:10:06.897242Z,1697803806897
0.3913688361644745,0.13462449610233307,-0.2735058665275574,2023-10-20T12:10:06.906476Z,1697803806906
0.39323121309280396,0.12331710010766983,-0.262996643781662,2023-10-20T12:10:06.917559Z,1697803806917
0.3933642506599426,0.11174365133047104,-0.24929475784301758,2023-10-20T12:10:06.928431Z,1697803806928
0.396157830953598,0.10123442113399506,-0.23559285700321198,2023-10-20T12:10:06.937806Z,1697803806937
0.40467163920402527,0.09139034152030945,-0.2244184911251068,2023-10-20T12:10:06.946774Z,1697803806946
0.41850656270980835,0.08114717155694962,-0.21523955464363098,2023-10-20T12:10:06.957868Z,1697803806957
0.4363323450088501,0.06944069266319275,-0.20566152036190033,2023-10-20T12:10:06.967285Z,1697803806967
0.4576168358325958,0.05560576915740967,-0.19528532028198242,2023-10-20T12:10:06.978651Z,1697803806978
0.4824931025505066,0.04057358577847481,-0.18637244403362274,2023-10-20T12:10:06.987514Z,1697803806987
0.5094978213310242,0.025807460770010948,-0.1822485625743866,2023-10-20T12:10:06.999050Z,1697803806999
0.5347731709480286,0.012371618300676346,-0.18344582617282867,2023-10-20T12:10:07.011549Z,1697803807011
0.5540622472763062,2.6605630409903824E-4,-0.18743667006492615,2023-10-20T12:10:07.018729Z,1697803807018
0.5655027031898499,-0.010908308438956738,-0.19009722769260406,2023-10-20T12:10:07.028506Z,1697803807028
0.5678972005844116,-0.021417532116174698,-0.18836785852909088,2023-10-20T12:10:07.038967Z,1697803807038
0.5607136487960815,-0.030995558947324753,-0.18091829121112823,2023-10-20T12:10:07.048409Z,1697803807048
0.5427548885345459,-0.040041472762823105,-0.16615216434001923,2023-10-20T12:10:07.062189Z,1697803807062
0.5129565596580505,-0.04842224717140198,-0.14420251548290253,2023-10-20T12:10:07.068648Z,1697803807068
0.4589471220970154,-0.04868830367922783,-0.1218537837266922,2023-10-20T12:10:07.079680Z,1697803807079
0.41039183735847473,-0.05627090856432915,-0.09139034152030945,2023-10-20T12:10:07.088647Z,1697803807088
0.36902010440826416,-0.06278929114341736,-0.0653168261051178,2023-10-20T12:10:07.099734Z,1697803807099
0.30543264746665955,-0.06372048705816269,-0.0438992902636528,2023-10-20T12:10:07.111477Z,1697803807111
0.23279926180839539,-0.0686425268650055,-0.017692744731903076,2023-10-20T12:10:07.119988Z,1697803807119
0.15125301480293274,-0.06850949674844742,0.0055871824733912945,2023-10-20T12:10:07.129373Z,1697803807129
0.06079386547207832,-0.07143611460924149,0.036582741886377335,2023-10-20T12:10:07.140013Z,1697803807139
-0.033789150416851044,-0.07649118453264236,0.07449576258659363,2023-10-20T12:10:07.149848Z,1697803807149
-0.1283721625804901,-0.0823444277048111,0.11866111308336258,2023-10-20T12:10:07.161937Z,1697803807161
-0.21989554166793823,-0.0877985805273056,0.1678815335035324,2023-10-20T12:10:07.170585Z,1697803807170
-0.30543264746665955,-0.09298668056726456,0.21923039853572845,2023-10-20T12:10:07.181134Z,1697803807181
-0.3804605007171631,-0.09764266014099121,0.2683177888393402,2023-10-20T12:10:07.190040Z,1697803807189
-0.44098833203315735,-0.10163351148366928,0.3118179738521576,2023-10-20T12:10:07.200612Z,1697803807200
-0.48555275797843933,-0.10416104644536972,0.3490658700466156,2023-10-20T12:10:07.209926Z,1697803807209
-0.5162822604179382,-0.1048261821269989,0.3804605007171631,2023-10-20T12:10:07.221563Z,1697803807221
-0.5396952033042908,-0.10402801632881165,0.40759825706481934,2023-10-20T12:10:07.230749Z,1697803807230
-0.5624430179595947,-0.10243167728185654,0.4308781921863556,2023-10-20T12:10:07.245611Z,1697803807245
-0.5894477367401123,-0.0993720293045044,0.4501672685146332,2023-10-20T12:10:07.250553Z,1697803807250
-0.6235029697418213,-0.0921885073184967,0.46466732025146484,2023-10-20T12:10:07.262270Z,1697803807262
-0.6667370796203613,-0.07928477972745895,0.47331416606903076,2023-10-20T12:10:07.271262Z,1697803807271
-0.7198153138160706,-0.06079386547207832,0.47570866346359253,2023-10-20T12:10:07.282233Z,1697803807282
-0.7795449495315552,-0.03831210732460022,0.47278204560279846,2023-10-20T12:10:07.295137Z,1697803807295
-0.8394076228141785,-0.012637674808502197,0.46626368165016174,2023-10-20T12:10:07.302836Z,1697803807302
-0.8926188945770264,0.016096405684947968,0.45748382806777954,2023-10-20T12:10:07.311816Z,1697803807311
-0.9347888231277466,0.04735802114009857,0.4477727711200714,2023-10-20T12:10:07.322641Z,1697803807322
-0.9645871520042419,0.07928477972745895,0.4380617141723633,2023-10-20T12:10:07.331930Z,1697803807331
-0.9821468591690063,0.11014731228351593,0.42941486835479736,2023-10-20T12:10:07.346331Z,1697803807346
-0.9882661700248718,0.13874836266040802,0.42289650440216064,2023-10-20T12:10:07.351940Z,1697803807351
-0.9846743941307068,0.16482187807559967,0.4191717207431793,2023-10-20T12:10:07.363043Z,1697803807363
-0.9733669757843018,0.18863391876220703,0.4198368489742279,2023-10-20T12:10:07.372287Z,1697803807372
-0.956871509552002,0.20991842448711395,0.4275524914264679,2023-10-20T12:10:07.383112Z,1697803807383
-0.9379814863204956,0.22867539525032043,0.4433828294277191,2023-10-20T12:10:07.395305Z,1697803807395
-0.9178942441940308,0.2453039139509201,0.46626368165016174,2023-10-20T12:10:07.403702Z,1697803807403
-0.8966097235679626,0.2616663873195648,0.492736279964447,2023-10-20T12:10:07.413234Z,1697803807413
-0.8754582405090332,0.2792260944843292,0.5188097953796387,2023-10-20T12:10:07.423696Z,1697803807423
-0.8576325178146362,0.29838213324546814,0.5407594442367554,2023-10-20T12:10:07.433147Z,1697803807433
-0.8451278209686279,0.32033178210258484,0.5552595257759094,2023-10-20T12:10:07.445557Z,1697803807445
-0.837811291217804,0.34653833508491516,0.5608466863632202,2023-10-20T12:10:07.454045Z,1697803807454
-0.8351507186889648,0.3780660033226013,0.5584521889686584,2023-10-20T12:10:07.464187Z,1697803807464
-0.837811291217804,0.4149148166179657,0.5512686371803284,2023-10-20T12:10:07.473826Z,1697803807473
-0.84592604637146,0.45681867003440857,0.5427548885345459,2023-10-20T12:10:07.484976Z,1697803807484
-0.8614903092384338,0.5016491413116455,0.5354382991790771,2023-10-20T12:10:07.494910Z,1697803807494
-0.8886280655860901,0.5475438833236694,0.5310483574867249,2023-10-20T12:10:07.504770Z,1697803807504
-0.9293346405029297,0.5943697690963745,0.5298511385917664,2023-10-20T12:10:07.514200Z,1697803807514
-0.9838762283325195,0.6425259709358215,0.5311813950538635,2023-10-20T12:10:07.528733Z,1697803807528
-1.052385687828064,0.6909482479095459,0.533708930015564,2023-10-20T12:10:07.535085Z,1697803807535
-1.1343311071395874,0.7384392619132996,0.5365025401115417,2023-10-20T12:10:07.545883Z,1697803807545
-1.228648066520691,0.7832697629928589,0.5395621657371521,2023-10-20T12:10:07.555117Z,1697803807555
-1.3338732719421387,0.8237103223800659,0.5431539416313171,2023-10-20T12:10:07.566258Z,1697803807566
-1.444685697555542,0.8571003675460815,0.5474108457565308,2023-10-20T12:10:07.578455Z,1697803807578
-1.5513743162155151,0.881843626499176,0.5539292097091675,2023-10-20T12:10:07.586272Z,1697803807586
-1.6452921628952026,0.8976739645004272,0.5625760555267334,2023-10-20T12:10:07.594970Z,1697803807594
-1.7248430252075195,0.9049904942512512,0.5708237886428833,2023-10-20T12:10:07.606604Z,1697803807606
-1.7921552658081055,0.9056556820869446,0.574149489402771,2023-10-20T12:10:07.615464Z,1697803807615
-1.8513528108596802,0.9023299813270569,0.5694935321807861,2023-10-20T12:10:07.629183Z,1697803807629
-1.9094860553741455,0.8986051678657532,0.5540622472763062,2023-10-20T12:10:07.636320Z,1697803807636
-1.9762662649154663,0.8988712430000305,0.5254611968994141,2023-10-20T12:10:07.647338Z,1697803807647
-2.060739040374756,0.9072520136833191,0.48156189918518066,2023-10-20T12:10:07.656183Z,1697803807656
-2.170088291168213,0.9242796301841736,0.42076805233955383,2023-10-20T12:10:07.667560Z,1697803807667
-2.306175947189331,0.9463622570037842,0.34321263432502747,2023-10-20T12:10:07.678429Z,1697803807678
-2.462883234024048,0.9692431092262268,0.25222137570381165,2023-10-20T12:10:07.687803Z,1697803807687
-2.626640796661377,0.9874679446220398,0.15298236906528473,2023-10-20T12:10:07.697157Z,1697803807697
-2.7817516326904297,0.9957157373428345,0.05148189514875412,2023-10-20T12:10:07.712253Z,1697803807712
-2.914247751235962,0.9894633889198303,-0.047224994748830795,2023-10-20T12:10:07.717488Z,1697803807717
-3.01428484916687,0.9655183553695679,-0.13928046822547913,2023-10-20T12:10:07.729150Z,1697803807729
-3.07600998878479,0.9241465926170349,-0.22242307662963867,2023-10-20T12:10:07.737723Z,1697803807737
-3.0967624187469482,0.8688068389892578,-0.29625368118286133,2023-10-20T12:10:07.747942Z,1697803807747
-3.0778722763061523,0.8044212460517883,-0.3610384166240692,2023-10-20T12:10:07.761160Z,1697803807761
-3.029982328414917,0.7359117269515991,-0.4209010601043701,2023-10-20T12:10:07.768121Z,1697803807768
-2.9737112522125244,0.6656728982925415,-0.4828921854496002,2023-10-20T12:10:07.777916Z,1697803807777
-2.9268853664398193,0.5964982509613037,-0.5524659156799316,2023-10-20T12:10:07.788861Z,1697803807788
-2.903073310852051,0.5319795608520508,-0.6328149437904358,2023-10-20T12:10:07.797842Z,1697803807797
-2.91544508934021,0.4763738214969635,-0.7281960844993591,2023-10-20T12:10:07.812119Z,1697803807812
-2.978367328643799,0.43287360668182373,-0.8457930088043213,2023-10-20T12:10:07.818621Z,1697803807818
-3.0999550819396973,0.4029422700405121,-0.9925230145454407,2023-10-20T12:10:07.829476Z,1697803807829
-3.2736897468566895,0.3869788944721222,-1.1697165966033936,2023-10-20T12:10:07.839012Z,1697803807838
-3.481346845626831,0.38618072867393494,-1.3727174997329712,2023-10-20T12:10:07.849653Z,1697803807849
-3.698049545288086,0.4018780589103699,-1.5920809507369995,2023-10-20T12:10:07.861566Z,1697803807861
-3.89626145362854,0.43540114164352417,-1.8133066892623901,2023-10-20T12:10:07.869950Z,1697803807869
-4.060551166534424,0.4862178862094879,-2.025885820388794,2023-10-20T12:10:07.878898Z,1697803807878
-4.186795234680176,0.5535301566123962,-2.223698616027832,2023-10-20T12:10:07.889557Z,1697803807889
-4.279781818389893,0.6358745694160461,-2.4044837951660156,2023-10-20T12:10:07.899586Z,1697803807899
-4.349488258361816,0.730457603931427,-2.5694386959075928,2023-10-20T12:10:07.911737Z,1697803807911
-4.408020973205566,0.8318250179290771,-2.721489906311035,2023-10-20T12:10:07.919975Z,1697803807919
-4.472273349761963,0.9322612881660461,-2.8691511154174805,2023-10-20T12:10:07.930870Z,1697803807930
-4.558475494384766,1.0236515998840332,-3.0221335887908936,2023-10-20T12:10:07.939656Z,1697803807939
-4.674077033996582,1.0988125801086426,-3.1854920387268066,2023-10-20T12:10:07.951029Z,1697803807950
-4.816816329956055,1.1544183492660522,-3.358827829360962,2023-10-20T12:10:07.961347Z,1697803807961
-4.970197677612305,1.1900697946548462,-3.5312323570251465,2023-10-20T12:10:07.971565Z,1697803807971
-5.104689121246338,1.2085607051849365,-3.6854119300842285,2023-10-20T12:10:07.980800Z,1697803807980
-5.1906256675720215,1.2138818502426147,-3.8056693077087402,2023-10-20T12:10:07.991409Z,1697803807991
-5.199538230895996,1.2084277868270874,-3.87670636177063,2023-10-20T12:10:08.001213Z,1697803808001
-5.116262912750244,1.1912671327590942,-3.892270803451538,2023-10-20T12:10:08.011476Z,1697803808011
-4.951307773590088,1.1585421562194824,-3.866729259490967,2023-10-20T12:10:08.020955Z,1697803808020
-4.736600399017334,1.1067942380905151,-3.832141876220703,2023-10-20T12:10:08.031898Z,1697803808031
-4.507392883300781,1.0353580713272095,-3.8160455226898193,2023-10-20T12:10:08.044055Z,1697803808044
-4.286566257476807,0.9462292194366455,-3.8268208503723145,2023-10-20T12:10:08.052149Z,1697803808052
-4.0911478996276855,0.8419351577758789,-3.86433482170105,2023-10-20T12:10:08.061711Z,1697803808061
-3.935105800628662,0.7243382930755615,-3.9276561737060547,2023-10-20T12:10:08.072363Z,1697803808072
-3.8199033737182617,0.5964982509613037,-4.006275653839111,2023-10-20T12:10:08.081806Z,1697803808081
-3.7346322536468506,0.46360310912132263,-4.079973220825195,2023-10-20T12:10:08.094526Z,1697803808094
-3.6638612747192383,0.33230432868003845,-4.129459857940674,2023-10-20T12:10:08.102287Z,1697803808102
-3.5969481468200684,0.20672574639320374,-4.14422607421875,2023-10-20T12:10:08.112715Z,1697803808112
-3.531365394592285,0.08513801544904709,-4.1252031326293945,2023-10-20T12:10:08.122111Z,1697803808122
-3.4679110050201416,-0.03698182478547096,-4.0783772468566895,2023-10-20T12:10:08.133546Z,1697803808133
-3.4059197902679443,-0.16322554647922516,-4.010000705718994,2023-10-20T12:10:08.144204Z,1697803808144
-3.341135025024414,-0.293194055557251,-3.9218029975891113,2023-10-20T12:10:08.153196Z,1697803808153
-3.2673044204711914,-0.4238276779651642,-3.811788558959961,2023-10-20T12:10:08.162573Z,1697803808162
-3.1812353134155273,-0.5529980063438416,-3.6798248291015625,2023-10-20T12:10:08.173654Z,1697803808173
-3.0842576026916504,-0.681370198726654,-3.5284388065338135,2023-10-20T12:10:08.183081Z,1697803808183
-2.9808948040008545,-0.8116047382354736,-3.3622865676879883,2023-10-20T12:10:08.194804Z,1697803808194
-2.876600742340088,-0.9484907388687134,-3.1882858276367188,2023-10-20T12:10:08.203799Z,1697803808203
-2.77762770652771,-1.0990785360336304,-3.01628041267395,2023-10-20T12:10:08.214118Z,1697803808214
-2.690361261367798,-1.2726802825927734,-2.8606374263763428,2023-10-20T12:10:08.223549Z,1697803808223
-2.616929769515991,-1.4775437116622925,-2.7334625720977783,2023-10-20T12:10:08.235178Z,1697803808235
-2.5520119667053223,-1.713668704032898,-2.638214349746704,2023-10-20T12:10:08.244156Z,1697803808244
-2.4850988388061523,-1.9698808193206787,-2.5711681842803955,2023-10-20T12:10:08.255206Z,1697803808255
-2.402754545211792,-2.228886604309082,-2.523677110671997,2023-10-20T12:10:08.263694Z,1697803808263
-2.2940704822540283,-2.4769842624664307,-2.487759590148926,2023-10-20T12:10:08.278004Z,1697803808277
-2.1578495502471924,-2.7097835540771484,-2.45649790763855,2023-10-20T12:10:08.284242Z,1697803808284
-2.0031378269195557,-2.9307432174682617,-2.4233739376068115,2023-10-20T12:10:08.295043Z,1697803808294
-1.8397793769836426,-3.146514892578125,-2.384795665740967,2023-10-20T12:10:08.304955Z,1697803808304
-1.674558401107788,-3.3618874549865723,-2.3419606685638428,2023-10-20T12:10:08.315553Z,1697803808315
-1.5115989446640015,-3.5781912803649902,-2.3044466972351074,2023-10-20T12:10:08.328046Z,1697803808328
-1.3524972200393677,-3.7935638427734375,-2.283029079437256,2023-10-20T12:10:08.335832Z,1697803808335
-1.1939276456832886,-4.001619815826416,-2.281432867050171,2023-10-20T12:10:08.345415Z,1697803808345
-1.0334956645965576,-4.191850185394287,-2.295799732208252,2023-10-20T12:10:08.356110Z,1697803808356
-0.8734628558158875,-4.35414457321167,-2.320543050765991,2023-10-20T12:10:08.365281Z,1697803808365
-0.7171547412872314,-4.483181953430176,-2.3536670207977295,2023-10-20T12:10:08.378509Z,1697803808378
-0.5686953663825989,-4.582021713256836,-2.393974542617798,2023-10-20T12:10:08.385758Z,1697803808385
-0.4330066442489624,-4.659177780151367,-2.4369428157806396,2023-10-20T12:10:08.396732Z,1697803808396
-0.3140794634819031,-4.7263569831848145,-2.47605299949646,2023-10-20T12:10:08.406079Z,1697803808406
-0.21217989921569824,-4.7936692237854,-2.5066494941711426,2023-10-20T12:10:08.417073Z,1697803808417
-0.12411526590585709,-4.8657708168029785,-2.5263376235961914,2023-10-20T12:10:08.427723Z,1697803808427
-0.04549562931060791,-4.942128658294678,-2.532456874847412,2023-10-20T12:10:08.437404Z,1697803808437
0.028201967477798462,-5.016491413116455,-2.5210165977478027,2023-10-20T12:10:08.446933Z,1697803808446
0.09883991628885269,-5.079546928405762,-2.489222764968872,2023-10-20T12:10:08.457069Z,1697803808457
0.1613631546497345,-5.125574588775635,-2.4426629543304443,2023-10-20T12:10:08.466348Z,1697803808466
0.1992761790752411,-5.160694122314453,-2.394240617752075,2023-10-20T12:10:08.478297Z,1697803808478
0.18397793173789978,-5.2057905197143555,-2.354199171066284,2023-10-20T12:10:08.486587Z,1697803808486
0.08580315858125687,-5.027000904083252,-2.293405294418335,2023-10-20T12:10:08.498090Z,1697803808498
-0.11387209594249725,-5.120785713195801,-2.236868381500244,2023-10-20T12:10:08.510978Z,1697803808510
-0.4182405173778534,-5.227341175079346,-2.1229963302612305,2023-10-20T12:10:08.518582Z,1697803808518
-0.815462589263916,-5.317667484283447,-1.9206604957580566,2023-10-20T12:10:08.527559Z,1697803808527
-1.2960933446884155,-5.370213508605957,-1.6089755296707153,2023-10-20T12:10:08.538864Z,1697803808538
-1.8756968975067139,-5.020349502563477,-1.2523269653320312,2023-10-20T12:10:08.548619Z,1697803808548
-2.567044258117676,-3.793430805206299,-0.9169630408287048,2023-10-20T12:10:08.561493Z,1697803808561
-3.4367823600769043,-2.758471727371216,-0.6091359257698059,2023-10-20T12:10:08.568173Z,1697803808568
-4.587608814239502,-1.881018042564392,-0.30596473813056946,2023-10-20T12:10:08.579020Z,1697803808578
-4.011331081390381,-2.4843008518218994,0.05121583864092827,2023-10-20T12:10:08.588690Z,1697803808588
-1.8794217109680176,-4.609558582305908,0.5387639999389648,2023-10-20T12:10:08.599222Z,1697803808599
-0.2572764456272125,-6.190864086151123,1.154152274131775,2023-10-20T12:10:08.611140Z,1697803808611
1.0671517848968506,-7.348208904266357,1.7861690521240234,2023-10-20T12:10:08.619748Z,1697803808619
1.0014358758926392,-7.83988094329834,2.3488781452178955,2023-10-20T12:10:08.629323Z,1697803808629
-0.1136060431599617,-7.82750940322876,2.706324815750122,2023-10-20T12:10:08.639752Z,1697803808639
-0.8029579520225525,-7.511700630187988,2.7805545330047607,2023-10-20T12:10:08.649771Z,1697803808649
-1.2408865690231323,-7.037455081939697,2.695948600769043,2023-10-20T12:10:08.660956Z,1697803808660
-1.521975040435791,-6.485654354095459,2.5570671558380127,2023-10-20T12:10:08.669863Z,1697803808669
-1.6809437274932861,-5.900064468383789,2.40195631980896,2023-10-20T12:10:08.680178Z,1697803808680
-1.7261732816696167,-5.102028846740723,2.245648145675659,2023-10-20T12:10:08.689417Z,1697803808689
-1.6822739839553833,-4.503535270690918,2.127519130706787,2023-10-20T12:10:08.700727Z,1697803808700
-1.5513743162155151,-3.9293856620788574,2.012583017349243,2023-10-20T12:10:08.710685Z,1697803808710
-1.3640706539154053,-3.3794472217559814,1.9021695852279663,2023-10-20T12:10:08.721264Z,1697803808721
-1.145106315612793,-2.869683265686035,1.7638202905654907,2023-10-20T12:10:08.730392Z,1697803808730
-0.922816276550293,-2.4177865982055664,1.5799753665924072,2023-10-20T12:10:08.744318Z,1697803808744
-0.7212786674499512,-2.027482032775879,1.3579514026641846,2023-10-20T12:10:08.750923Z,1697803808750
-0.5478099584579468,-1.678815245628357,1.1166383028030396,2023-10-20T12:10:08.761746Z,1697803808761
-0.3901715576648712,-1.3349374532699585,0.8727977275848389,2023-10-20T12:10:08.770734Z,1697803808770
-0.22801025211811066,-0.9627247452735901,0.6301543712615967,2023-10-20T12:10:08.782088Z,1697803808782
-0.03977541625499725,-0.5380988717079163,0.3803274929523468,2023-10-20T12:10:08.793836Z,1697803808793
0.19102843105793,-0.04709196463227272,0.11214273422956467,2023-10-20T12:10:08.802506Z,1697803808802
0.4823600649833679,0.5239979028701782,-0.19222567975521088,2023-10-20T12:10:08.810758Z,1697803808810
0.8614903092384338,1.2015103101730347,-0.5597824454307556,2023-10-20T12:10:08.822478Z,1697803808822
1.3548917770385742,2.017771005630493,-1.0168671607971191,2023-10-20T12:10:08.831331Z,1697803808831
1.9846470355987549,3.0100278854370117,-1.582236886024475,2023-10-20T12:10:08.844457Z,1697803808844
2.755678176879883,4.202625274658203,-2.2515015602111816,2023-10-20T12:10:08.851749Z,1697803808851
3.5364203453063965,5.268313884735107,-2.92582106590271,2023-10-20T12:10:08.862748Z,1697803808862
4.319424152374268,6.4225993156433105,-3.56382417678833,2023-10-20T12:10:08.871826Z,1697803808871
4.926830768585205,7.360846519470215,-4.032748222351074,2023-10-20T12:10:08.882871Z,1697803808882
5.268712997436523,7.9726433753967285,-4.270602703094482,2023-10-20T12:10:08.893639Z,1697803808893
5.326846122741699,8.235240936279297,-4.277121067047119,2023-10-20T12:10:08.903335Z,1697803808903
5.142336368560791,8.199190139770508,-4.099661827087402,2023-10-20T12:10:08.912417Z,1697803808912
4.783559322357178,7.951757907867432,-3.805403232574463,2023-10-20T12:10:08.923367Z,1697803808923
4.313171863555908,7.574490070343018,-3.4543421268463135,2023-10-20T12:10:08.933062Z,1697803808933
3.779728889465332,7.127382278442383,-3.0902440547943115,2023-10-20T12:10:08.944387Z,1697803808944
3.2180840969085693,6.6488800048828125,-2.7397148609161377,2023-10-20T12:10:08.953149Z,1697803808953
2.650319814682007,6.160533905029297,-2.414726972579956,2023-10-20T12:10:08.964202Z,1697803808964
2.090803384780884,5.676311016082764,-2.1172759532928467,2023-10-20T12:10:08.977610Z,1697803808977
1.5483146905899048,5.2065887451171875,-1.84416925907135,2023-10-20T12:10:08.983771Z,1697803808983
1.0288397073745728,4.971395015716553,-1.596071720123291,2023-10-20T12:10:08.993906Z,1697803808993
0.5293189883232117,4.488103866577148,-1.3450475931167603,2023-10-20T12:10:09.004210Z,1697803809004
0.061991117894649506,4.04139518737793,-1.0980143547058105,2023-10-20T12:10:09.013666Z,1697803809013
-0.3683549463748932,3.6320676803588867,-0.8524444103240967,2023-10-20T12:10:09.027386Z,1697803809027
-0.7562650442123413,3.2579925060272217,-0.6100671291351318,2023-10-20T12:10:09.034363Z,1697803809034
-1.0956199169158936,2.915710926055908,-0.3760705888271332,2023-10-20T12:10:09.045686Z,1697803809045
-1.381364345550537,2.6004343032836914,-0.1575053334236145,2023-10-20T12:10:09.054166Z,1697803809054
-1.6142966747283936,2.3035154342651367,0.038445137441158295,2023-10-20T12:10:09.064776Z,1697803809064
-1.7974764108657837,2.018303155899048,0.205794557929039,2023-10-20T12:10:09.077120Z,1697803809077
-1.934096336364746,1.7426687479019165,0.3408181369304657,2023-10-20T12:10:09.085468Z,1697803809085
-2.030275583267212,1.47475004196167,0.4429837465286255,2023-10-20T12:10:09.094509Z,1697803809094
-2.0937299728393555,1.2126846313476562,0.515484094619751,2023-10-20T12:10:09.105737Z,1697803809105
-2.130844831466675,0.9558072686195374,0.5657687187194824,2023-10-20T12:10:09.114813Z,1697803809114
-2.147606372833252,0.7034528851509094,0.6038147807121277,2023-10-20T12:10:09.127554Z,1697803809127
-2.1498680114746094,0.45375901460647583,0.6392002701759338,2023-10-20T12:10:09.135253Z,1697803809135
-2.1405560970306396,0.20672574639320374,0.6804389953613281,2023-10-20T12:10:09.146495Z,1697803809146
-2.119138479232788,-0.034055206924676895,0.7352465987205505,2023-10-20T12:10:09.155882Z,1697803809155
-2.086812734603882,-0.26485905051231384,0.8093432784080505,2023-10-20T12:10:09.166583Z,1697803809166
-2.0465049743652344,-0.481827974319458,0.9048575162887573,2023-10-20T12:10:09.177164Z,1697803809177
-1.9999452829360962,-0.6799069046974182,1.0197938680648804,2023-10-20T12:10:09.187347Z,1697803809187
-1.9467339515686035,-0.8533756136894226,1.1493632793426514,2023-10-20T12:10:09.196434Z,1697803809196
-1.8859400749206543,-0.9966469407081604,1.2890428304672241,2023-10-20T12:10:09.210953Z,1697803809210
-1.815568208694458,-1.109055757522583,1.435506820678711,2023-10-20T12:10:09.216536Z,1697803809216
-1.7329577207565308,-1.195523977279663,1.5859615802764893,2023-10-20T12:10:09.228475Z,1697803809228
-1.6329206228256226,-1.2670931816101074,1.7385449409484863,2023-10-20T12:10:09.237183Z,1697803809237
-1.5066767930984497,-1.3346714973449707,1.892857551574707,2023-10-20T12:10:09.247822Z,1697803809247
-1.3450475931167603,-1.4066396951675415,2.051161050796509,2023-10-20T12:10:09.260603Z,1697803809260
-1.1440421342849731,-1.4869886636734009,2.2174463272094727,2023-10-20T12:10:09.268175Z,1697803809268
-0.908183217048645,-1.570663332939148,2.3934426307678223,2023-10-20T12:10:09.277339Z,1697803809277
-0.6487783193588257,-1.6460903882980347,2.574493885040283,2023-10-20T12:10:09.288038Z,1697803809288
-0.3799284100532532,-1.6997007131576538,2.749958038330078,2023-10-20T12:10:09.297173Z,1697803809297
-0.11373907327651978,-1.723645806312561,2.908128499984741,2023-10-20T12:10:09.311277Z,1697803809311
0.1415419578552246,-1.7184576988220215,3.0380969047546387,2023-10-20T12:10:09.317891Z,1697803809317
0.3791302442550659,-1.691053867340088,3.130418539047241,2023-10-20T12:10:09.328413Z,1697803809328
0.5917091965675354,-1.6511454582214355,3.1780426502227783,2023-10-20T12:10:09.338054Z,1697803809338
0.7744898796081543,-1.6068470478057861,3.1787075996398926,2023-10-20T12:10:09.349289Z,1697803809349
0.9269401431083679,-1.5638790130615234,3.135606527328491,2023-10-20T12:10:09.360240Z,1697803809360
1.0515875816345215,-1.5241035223007202,3.055523633956909,2023-10-20T12:10:09.369677Z,1697803809369
1.1513586044311523,-1.485924482345581,2.9456424713134766,2023-10-20T12:10:09.378612Z,1697803809378
1.2279828786849976,-1.4456169605255127,2.8142106533050537,2023-10-20T12:10:09.389401Z,1697803809389
1.280928134918213,-1.4001213312149048,2.6681456565856934,2023-10-20T12:10:09.398924Z,1697803809398
1.309529185295105,-1.3481073379516602,2.5118374824523926,2023-10-20T12:10:09.410428Z,1697803809410
1.315515398979187,-1.29050612449646,2.346616506576538,2023-10-20T12:10:09.419568Z,1697803809419
1.3014143705368042,-1.2289140224456787,2.1735470294952393,2023-10-20T12:10:09.430869Z,1697803809430
1.2693545818328857,-1.164528489112854,1.9962204694747925,2023-10-20T12:10:09.443069Z,1697803809443
1.2238589525222778,-1.0981473922729492,1.8199580907821655,2023-10-20T12:10:09.450616Z,1697803809450
1.172776222229004,-1.030968189239502,1.6502141952514648,2023-10-20T12:10:09.459741Z,1697803809459
1.1215603351593018,-0.9644541144371033,1.490580439567566,2023-10-20T12:10:09.470471Z,1697803809470
1.0711426734924316,-0.9009996652603149,1.343185305595398,2023-10-20T12:10:09.479802Z,1697803809479
1.0203258991241455,-0.8428663611412048,1.2093589305877686,2023-10-20T12:10:09.493835Z,1697803809493
0.9680458903312683,-0.7924486994743347,1.0891014337539673,2023-10-20T12:10:09.500676Z,1697803809500
0.9129722118377686,-0.7512099742889404,0.9806835651397705,2023-10-20T12:10:09.510906Z,1697803809510
0.8545728325843811,-0.7192832231521606,0.8821097016334534,2023-10-20T12:10:09.520727Z,1697803809520
0.793645977973938,-0.6960033178329468,0.7917835712432861,2023-10-20T12:10:09.531460Z,1697803809531
0.7329851388931274,-0.6804389953613281,0.7095721364021301,2023-10-20T12:10:09.543018Z,1697803809542
0.6771132946014404,-0.670993983745575,0.6361406445503235,2023-10-20T12:10:09.551864Z,1697803809551
0.6278928518295288,-0.6660719513893127,0.5712229013442993,2023-10-20T12:10:09.560981Z,1697803809560
0.5825302600860596,-0.663677453994751,0.5132226347923279,2023-10-20T12:10:09.571893Z,1697803809571
0.5338419675827026,-0.6615489721298218,0.45921316742897034,2023-10-20T12:10:09.581472Z,1697803809581
0.4731811285018921,-0.6567599773406982,0.4054698050022125,2023-10-20T12:10:09.594068Z,1697803809594
0.3908367156982422,-0.6466498374938965,0.3474695384502411,2023-10-20T12:10:09.601760Z,1697803809601
0.27523523569107056,-0.6293562054634094,0.2810884714126587,2023-10-20T12:10:09.612054Z,1697803809612
0.11533540487289429,-0.6031496524810791,0.2030009627342224,2023-10-20T12:10:09.621928Z,1697803809621
-0.09737660735845566,-0.5672320127487183,0.11200970411300659,2023-10-20T12:10:09.632876Z,1697803809632
-0.367290735244751,-0.5214703679084778,0.009178942069411278,2023-10-20T12:10:09.643241Z,1697803809643
-0.6949390769004822,-0.467061847448349,-0.10243167728185654,2023-10-20T12:10:09.653313Z,1697803809653
-1.0743353366851807,-0.4073322117328644,-0.2189643383026123,2023-10-20T12:10:09.662575Z,1697803809662
-1.491910696029663,-0.34667137265205383,-0.33563002943992615,2023-10-20T12:10:09.672873Z,1697803809672
-1.9263806343078613,-0.2885380685329437,-0.4456443190574646,2023-10-20T12:10:09.682194Z,1697803809682
-2.3561947345733643,-0.233198344707489,-0.5422227382659912,2023-10-20T12:10:09.693713Z,1697803809693
-2.7639260292053223,-0.1794549822807312,-0.6189799904823303,2023-10-20T12:10:09.703082Z,1697803809703
-3.1374690532684326,-0.12637674808502197,-0.6711270213127136,2023-10-20T12:10:09.714224Z,1697803809714
-3.4687089920043945,-0.07343153655529022,-0.697333574295044,2023-10-20T12:10:09.722936Z,1697803809722
-3.7551186084747314,-0.020220279693603516,-0.6982647776603699,2023-10-20T12:10:09.734177Z,1697803809734
-3.9997575283050537,0.03299098089337349,-0.6756500005722046,2023-10-20T12:10:09.743143Z,1697803809743
-4.209409713745117,0.08513801544904709,-0.6312185525894165,2023-10-20T12:10:09.754002Z,1697803809753
-4.390594005584717,0.13475751876831055,-0.5661678314208984,2023-10-20T12:10:09.763260Z,1697803809763
-4.5457048416137695,0.18078525364398956,-0.4830252230167389,2023-10-20T12:10:09.777163Z,1697803809777
-4.67726993560791,0.22215701639652252,-0.3847174048423767,2023-10-20T12:10:09.784145Z,1697803809784
