ACC_X,ACC_Y,ACC_Z,DATE,UNIX_TIMESTAMP
-0.001913905143737793,-0.005767822265625,-0.042939186096191406,2023-10-20T12:09:57.979600Z,1697803797979
-0.004132360219955444,-0.01205587387084961,-0.10135364532470703,2023-10-20T12:09:58.004457Z,1697803798004
-0.014486074447631836,-0.03288298845291138,-0.33135509490966797,2023-10-20T12:09:58.021434Z,1697803798021
-0.021950095891952515,-0.04369932413101196,-0.49391651153564453,2023-10-20T12:09:58.040583Z,1697803798040
-0.029074370861053467,-0.04586225748062134,-0.5285749435424805,2023-10-20T12:09:58.061472Z,1697803798061
-0.028568565845489502,-0.05045551061630249,-0.5193796157836914,2023-10-20T12:09:58.083795Z,1697803798083
-0.023982703685760498,-0.05070990324020386,-0.47356319427490234,2023-10-20T12:09:58.104202Z,1697803798104
-0.015879273414611816,-0.0383838415145874,-0.33162975311279297,2023-10-20T12:09:58.122271Z,1697803798122
-0.007410824298858643,-0.018544435501098633,-0.1576089859008789,2023-10-20T12:09:58.142364Z,1697803798142
-2.543032169342041E-4,-5.862712860107422E-4,-0.005063056945800781,2023-10-20T12:09:58.162284Z,1697803798162
-0.014176994562149048,-0.031014442443847656,-0.2914447784423828,2023-10-20T12:09:58.184221Z,1697803798184
-0.01373794674873352,-0.02926492691040039,-0.27597618103027344,2023-10-20T12:09:58.202507Z,1697803798202
-0.012324333190917969,-0.026172637939453125,-0.24343204498291016,2023-10-20T12:09:58.223416Z,1697803798223
-0.010292798280715942,-0.022034525871276855,-0.20017719268798828,2023-10-20T12:09:58.244384Z,1697803798244
-0.007964372634887695,-0.01724696159362793,-0.1532135009765625,2023-10-20T12:09:58.264185Z,1697803798264
-0.005658626556396484,-0.01221156120300293,-0.10689067840576172,2023-10-20T12:09:58.284195Z,1697803798284
-0.0037273764610290527,-0.00793302059173584,-0.0688638687133789,2023-10-20T12:09:58.304424Z,1697803798304
-0.0028839707374572754,-0.006069064140319824,-0.05240631103515625,2023-10-20T12:09:58.324445Z,1697803798324
-0.0036725401878356934,-0.007738947868347168,-0.06615352630615234,2023-10-20T12:09:58.344770Z,1697803798344
-0.006134450435638428,-0.013058304786682129,-0.10997676849365234,2023-10-20T12:09:58.365897Z,1697803798365
-0.009739935398101807,-0.021092772483825684,-0.17464256286621094,2023-10-20T12:09:58.385774Z,1697803798385
-0.014384269714355469,-0.03232681751251221,-0.2620868682861328,2023-10-20T12:09:58.405953Z,1697803798405
-0.01940131187438965,-0.046118855476379395,-0.3643512725830078,2023-10-20T12:09:58.426295Z,1697803798426
-0.024547964334487915,-0.06287229061126709,-0.4809579849243164,2023-10-20T12:09:58.446112Z,1697803798446
-0.029315680265426636,-0.08469879627227783,-0.6182136535644531,2023-10-20T12:09:58.465909Z,1697803798465
-0.0334305465221405,-0.11150455474853516,-0.767735481262207,2023-10-20T12:09:58.486588Z,1697803798486
-0.03947290778160095,-0.13797664642333984,-0.9048986434936523,2023-10-20T12:09:58.506728Z,1697803798506
-0.04928267002105713,-0.15266239643096924,-0.989532470703125,2023-10-20T12:09:58.527457Z,1697803798527
-0.06204020977020264,-0.1470280885696411,-0.9912500381469727,2023-10-20T12:09:58.549851Z,1697803798549
-0.07369053363800049,-0.12454259395599365,-0.9100017547607422,2023-10-20T12:09:58.567469Z,1697803798567
-0.0796363353729248,-0.09393811225891113,-0.7570905685424805,2023-10-20T12:09:58.587735Z,1697803798587
-0.0763934850692749,-0.06197977066040039,-0.5566930770874023,2023-10-20T12:09:58.608052Z,1697803798608
-0.055814504623413086,-0.03240656852722168,-0.3235635757446289,2023-10-20T12:09:58.628674Z,1697803798628
-0.014251351356506348,-0.006300866603851318,-0.06928825378417969,2023-10-20T12:09:58.649656Z,1697803798649
-0.030527234077453613,-0.04740417003631592,-0.3955049514770508,2023-10-20T12:09:58.669393Z,1697803798669
-0.0318639874458313,-0.04385364055633545,-0.3700523376464844,2023-10-20T12:09:58.689336Z,1697803798689
-0.03225797414779663,-0.039324402809143066,-0.3363351821899414,2023-10-20T12:09:58.710042Z,1697803798709
-0.03169107437133789,-0.03437697887420654,-0.29824161529541016,2023-10-20T12:09:58.729800Z,1697803798729
-0.0304337739944458,-0.02965104579925537,-0.26055908203125,2023-10-20T12:09:58.751828Z,1697803798751
-0.028847455978393555,-0.025546908378601074,-0.22669506072998047,2023-10-20T12:09:58.770317Z,1697803798770
-0.027290701866149902,-0.02224147319793701,-0.19860458374023438,2023-10-20T12:09:58.790133Z,1697803798790
-0.025973081588745117,-0.019731760025024414,-0.1766653060913086,2023-10-20T12:09:58.810857Z,1697803798810
-0.02499532699584961,-0.017911076545715332,-0.16028881072998047,2023-10-20T12:09:58.834144Z,1697803798834
-0.02437007427215576,-0.016626715660095215,-0.1484079360961914,2023-10-20T12:09:58.851507Z,1697803798851
-0.02408289909362793,-0.015745162963867188,-0.14005279541015625,2023-10-20T12:09:58.871910Z,1697803798871
-0.024074792861938477,-0.015152812004089355,-0.13431739807128906,2023-10-20T12:09:58.892442Z,1697803798892
-0.024047136306762695,-0.014615416526794434,-0.12919139862060547,2023-10-20T12:09:58.912650Z,1697803798912
-0.023647546768188477,-0.013896346092224121,-0.12269115447998047,2023-10-20T12:09:58.933871Z,1697803798933
-0.02241814136505127,-0.012727856636047363,-0.11255550384521484,2023-10-20T12:09:58.953202Z,1697803798953
-0.019955158233642578,-0.010918140411376953,-0.09706783294677734,2023-10-20T12:09:58.973517Z,1697803798973
-0.016030311584472656,-0.008425712585449219,-0.07564163208007812,2023-10-20T12:09:58.993643Z,1697803798993
-0.010725259780883789,-0.005405426025390625,-0.049185752868652344,2023-10-20T12:09:59.017479Z,1697803799017
-0.004506587982177734,-0.002179861068725586,-0.020137786865234375,2023-10-20T12:09:59.034689Z,1697803799034
0.0018422603607177734,8.589029312133789E-4,0.008047103881835938,2023-10-20T12:09:59.054325Z,1697803799054
0.00754237174987793,0.0034134387969970703,0.03231048583984375,2023-10-20T12:09:59.074497Z,1697803799074
0.011908531188964844,0.0052759647369384766,0.050235748291015625,2023-10-20T12:09:59.094298Z,1697803799094
0.014413595199584961,0.006314218044281006,0.06017875671386719,2023-10-20T12:09:59.115571Z,1697803799115
0.01473236083984375,0.006445765495300293,0.061199188232421875,2023-10-20T12:09:59.135076Z,1697803799135
0.012686491012573242,0.005597233772277832,0.052704811096191406,2023-10-20T12:09:59.155089Z,1697803799155
0.008102655410766602,0.003637075424194336,0.03382396697998047,2023-10-20T12:09:59.175617Z,1697803799175
9.984970092773438E-4,4.602670669555664E-4,0.004208564758300781,2023-10-20T12:09:59.195700Z,1697803799195
-0.008114337921142578,-0.0038660764694213867,-0.034651756286621094,2023-10-20T12:09:59.216922Z,1697803799216
-0.01827549934387207,-0.009037256240844727,-0.0793161392211914,2023-10-20T12:09:59.236681Z,1697803799236
-0.02833390235900879,-0.014527440071105957,-0.1251201629638672,2023-10-20T12:09:59.256678Z,1697803799256
-0.03757619857788086,-0.01988685131072998,-0.16877269744873047,2023-10-20T12:09:59.276980Z,1697803799276
-0.04565095901489258,-0.024786829948425293,-0.20822811126708984,2023-10-20T12:09:59.300915Z,1697803799300
-0.05248594284057617,-0.028996706008911133,-0.24236774444580078,2023-10-20T12:09:59.318064Z,1697803799318
-0.05803811550140381,-0.0323028564453125,-0.2701101303100586,2023-10-20T12:09:59.337893Z,1697803799337
-0.06233477592468262,-0.03458082675933838,-0.2908802032470703,2023-10-20T12:09:59.358918Z,1697803799358
-0.06534171104431152,-0.035765886306762695,-0.3041419982910156,2023-10-20T12:09:59.378250Z,1697803799378
-0.0670546293258667,-0.03588461875915527,-0.3097362518310547,2023-10-20T12:09:59.401052Z,1697803799401
-0.06764006614685059,-0.035094499588012695,-0.30852222442626953,2023-10-20T12:09:59.418996Z,1697803799418
-0.06728243827819824,-0.03362417221069336,-0.3017139434814453,2023-10-20T12:09:59.439040Z,1697803799438
-0.0662539005279541,-0.031775712966918945,-0.29117488861083984,2023-10-20T12:09:59.459554Z,1697803799459
-0.06463885307312012,-0.029705941677093506,-0.2778358459472656,2023-10-20T12:09:59.479771Z,1697803799479
-0.06243777275085449,-0.027484536170959473,-0.2620725631713867,2023-10-20T12:09:59.500162Z,1697803799500
-0.0596468448638916,-0.025159060955047607,-0.24421024322509766,2023-10-20T12:09:59.520737Z,1697803799520
-0.056467533111572266,-0.022853970527648926,-0.22536849975585938,2023-10-20T12:09:59.540391Z,1697803799540
-0.05310487747192383,-0.02067476511001587,-0.20658302307128906,2023-10-20T12:09:59.560724Z,1697803799560
-0.0498349666595459,-0.018715500831604004,-0.18898296356201172,2023-10-20T12:09:59.584096Z,1697803799584
-0.04688572883605957,-0.017028748989105225,-0.1733694076538086,2023-10-20T12:09:59.602119Z,1697803799602
-0.044363975524902344,-0.015617430210113525,-0.16001319885253906,2023-10-20T12:09:59.621879Z,1697803799621
-0.04227447509765625,-0.014442741870880127,-0.14880847930908203,2023-10-20T12:09:59.642402Z,1697803799642
-0.04049539566040039,-0.013423323631286621,-0.13916587829589844,2023-10-20T12:09:59.662024Z,1697803799661
-0.03884077072143555,-0.012476027011871338,-0.13031387329101562,2023-10-20T12:09:59.683041Z,1697803799683
-0.037094831466674805,-0.011523306369781494,-0.1214742660522461,2023-10-20T12:09:59.702673Z,1697803799702
-0.03511977195739746,-0.01053166389465332,-0.11223220825195312,2023-10-20T12:09:59.722730Z,1697803799722
-0.03276371955871582,-0.00947648286819458,-0.1021871566772461,2023-10-20T12:09:59.743640Z,1697803799743
-0.03002786636352539,-0.008382081985473633,-0.09145164489746094,2023-10-20T12:09:59.766140Z,1697803799766
-0.026890993118286133,-0.0072602033615112305,-0.08003044128417969,2023-10-20T12:09:59.783644Z,1697803799783
-0.023387432098388672,-0.006130039691925049,-0.06807899475097656,2023-10-20T12:09:59.804206Z,1697803799804
-0.019634008407592773,-0.005024850368499756,-0.055968284606933594,2023-10-20T12:09:59.824276Z,1697803799824
-0.016040802001953125,-0.004041314125061035,-0.04484272003173828,2023-10-20T12:09:59.844476Z,1697803799844
-0.012993335723876953,-0.003255009651184082,-0.035691261291503906,2023-10-20T12:09:59.866285Z,1697803799866
-0.010866403579711914,-0.0027351975440979004,-0.029394149780273438,2023-10-20T12:09:59.885219Z,1697803799885
-0.009888648986816406,-0.0025240182876586914,-0.026401519775390625,2023-10-20T12:09:59.905758Z,1697803799905
-0.01013803482055664,-0.002643287181854248,-0.02676868438720703,2023-10-20T12:09:59.926062Z,1697803799926
-0.011725664138793945,-0.0031395554542541504,-0.03068828582763672,2023-10-20T12:09:59.945917Z,1697803799945
-0.01458120346069336,-0.004020392894744873,-0.03789710998535156,2023-10-20T12:09:59.966237Z,1697803799966
-0.018729686737060547,-0.005321919918060303,-0.04842185974121094,2023-10-20T12:09:59.985918Z,1697803799985
-0.0241243839263916,-0.007057905197143555,-0.06213092803955078,2023-10-20T12:10:00.006452Z,1697803800006
-0.03058910369873047,-0.009189724922180176,-0.07855701446533203,2023-10-20T12:10:00.026295Z,1697803800026
-0.03768181800842285,-0.011573076248168945,-0.09656906127929688,2023-10-20T12:10:00.049469Z,1697803800049
-0.044953107833862305,-0.014028787612915039,-0.11502742767333984,2023-10-20T12:10:00.067183Z,1697803800067
-0.05195784568786621,-0.016361713409423828,-0.1328115463256836,2023-10-20T12:10:00.087710Z,1697803800087
-0.05839347839355469,-0.018427491188049316,-0.1491708755493164,2023-10-20T12:10:00.108337Z,1697803800108
-0.0641028881072998,-0.020143747329711914,-0.1637248992919922,2023-10-20T12:10:00.127868Z,1697803800127
-0.06900477409362793,-0.02147650718688965,-0.17624378204345703,2023-10-20T12:10:00.148197Z,1697803800148
-0.07314729690551758,-0.022462844848632812,-0.18687820434570312,2023-10-20T12:10:00.168753Z,1697803800168
-0.07649922370910645,-0.023109078407287598,-0.19560527801513672,2023-10-20T12:10:00.188934Z,1697803800188
-0.07901430130004883,-0.02341628074645996,-0.20234107971191406,2023-10-20T12:10:00.208686Z,1697803800208
-0.08064389228820801,-0.02338707447052002,-0.20699310302734375,2023-10-20T12:10:00.232530Z,1697803800232
-0.08141064643859863,-0.023060917854309082,-0.20963382720947266,2023-10-20T12:10:00.249333Z,1697803800249
-0.0812840461730957,-0.022473692893981934,-0.21021175384521484,2023-10-20T12:10:00.269367Z,1697803800269
-0.08033442497253418,-0.021684706211090088,-0.20891094207763672,2023-10-20T12:10:00.289860Z,1697803800289
-0.07889008522033691,-0.0207977294921875,-0.20652198791503906,2023-10-20T12:10:00.310432Z,1697803800310
-0.07757854461669922,-0.019988715648651123,-0.2046670913696289,2023-10-20T12:10:00.332205Z,1697803800332
-0.07681059837341309,-0.019354581832885742,-0.2044544219970703,2023-10-20T12:10:00.350504Z,1697803800350
-0.07656717300415039,-0.018865466117858887,-0.20583343505859375,2023-10-20T12:10:00.370888Z,1697803800370
-0.07640814781188965,-0.018403232097625732,-0.20761489868164062,2023-10-20T12:10:00.390926Z,1697803800390
-0.07586336135864258,-0.017865121364593506,-0.20850181579589844,2023-10-20T12:10:00.411315Z,1697803800411
-0.07472562789916992,-0.01722794771194458,-0.20789051055908203,2023-10-20T12:10:00.431479Z,1697803800431
-0.07293701171875,-0.01648503541946411,-0.20549774169921875,2023-10-20T12:10:00.452019Z,1697803800451
-0.07068419456481934,-0.015677690505981445,-0.20166397094726562,2023-10-20T12:10:00.472390Z,1697803800472
-0.06804895401000977,-0.014820516109466553,-0.19649982452392578,2023-10-20T12:10:00.492961Z,1697803800492
-0.06478261947631836,-0.013865351676940918,-0.1892566680908203,2023-10-20T12:10:00.515273Z,1697803800515
-0.0604708194732666,-0.01273798942565918,-0.17866992950439453,2023-10-20T12:10:00.534732Z,1697803800534
-0.05483841896057129,-0.011394083499908447,-0.16380596160888672,2023-10-20T12:10:00.553540Z,1697803800553
-0.04816794395446777,-0.009905457496643066,-0.14536285400390625,2023-10-20T12:10:00.573437Z,1697803800573
-0.04114699363708496,-0.0084151029586792,-0.1253662109375,2023-10-20T12:10:00.594396Z,1697803800594
-0.03449058532714844,-0.0070476531982421875,-0.10602378845214844,2023-10-20T12:10:00.615779Z,1697803800615
-0.028659343719482422,-0.005876362323760986,-0.08883094787597656,2023-10-20T12:10:00.634645Z,1697803800634
-0.02383136749267578,-0.004922628402709961,-0.07445526123046875,2023-10-20T12:10:00.654557Z,1697803800654
-0.020014524459838867,-0.004179239273071289,-0.0630178451538086,2023-10-20T12:10:00.674719Z,1697803800674
-0.0172579288482666,-0.0036577582359313965,-0.054762840270996094,2023-10-20T12:10:00.694907Z,1697803800694
-0.015738487243652344,-0.0034040212631225586,-0.050330162048339844,2023-10-20T12:10:00.715788Z,1697803800715
-0.015507936477661133,-0.003439664840698242,-0.049963951110839844,2023-10-20T12:10:00.735546Z,1697803800735
-0.01655435562133789,-0.0037799477577209473,-0.05370903015136719,2023-10-20T12:10:00.756065Z,1697803800756
-0.018768787384033203,-0.004421710968017578,-0.061278343200683594,2023-10-20T12:10:00.776658Z,1697803800776
-0.021844863891601562,-0.0053144097328186035,-0.07171344757080078,2023-10-20T12:10:00.797606Z,1697803800797
-0.025227069854736328,-0.006342053413391113,-0.08322715759277344,2023-10-20T12:10:00.816625Z,1697803800816
-0.028181076049804688,-0.007311344146728516,-0.09337139129638672,2023-10-20T12:10:00.836814Z,1697803800836
-0.030215024948120117,-0.008062899112701416,-0.10043525695800781,2023-10-20T12:10:00.857734Z,1697803800857
-0.03133845329284668,-0.008566498756408691,-0.1043853759765625,2023-10-20T12:10:00.877896Z,1697803800877
-0.031908512115478516,-0.008889913558959961,-0.1063680648803711,2023-10-20T12:10:00.899029Z,1697803800898
-0.03228473663330078,-0.00911414623260498,-0.107574462890625,2023-10-20T12:10:00.919029Z,1697803800918
-0.032737016677856445,-0.00930696725845337,-0.10889720916748047,2023-10-20T12:10:00.938566Z,1697803800938
-0.033338308334350586,-0.009494125843048096,-0.11060047149658203,2023-10-20T12:10:00.959176Z,1697803800959
-0.03396487236022949,-0.009652435779571533,-0.1123037338256836,2023-10-20T12:10:00.979464Z,1697803800979
-0.0345911979675293,-0.009787261486053467,-0.11396121978759766,2023-10-20T12:10:00.999710Z,1697803800999
-0.035504817962646484,-0.009988486766815186,-0.11650276184082031,2023-10-20T12:10:01.020480Z,1697803801020
-0.03713488578796387,-0.010387420654296875,-0.12131977081298828,2023-10-20T12:10:01.039960Z,1697803801039
-0.03987264633178711,-0.011112093925476074,-0.12967586517333984,2023-10-20T12:10:01.060446Z,1697803801060
-0.043556928634643555,-0.012132108211517334,-0.14103126525878906,2023-10-20T12:10:01.081995Z,1697803801081
-0.0477144718170166,-0.013335883617401123,-0.15384960174560547,2023-10-20T12:10:01.101401Z,1697803801101
-0.05183601379394531,-0.01460123062133789,-0.1664752960205078,2023-10-20T12:10:01.121345Z,1697803801121
-0.05547928810119629,-0.01580953598022461,-0.17749977111816406,2023-10-20T12:10:01.141406Z,1697803801141
-0.05840706825256348,-0.01688772439956665,-0.18616867065429688,2023-10-20T12:10:01.161857Z,1697803801161
-0.06047701835632324,-0.017770767211914062,-0.1920013427734375,2023-10-20T12:10:01.182250Z,1697803801182
-0.06155824661254883,-0.018393874168395996,-0.19457626342773438,2023-10-20T12:10:01.202135Z,1697803801202
-0.061524391174316406,-0.0186917781829834,-0.19353103637695312,2023-10-20T12:10:01.222453Z,1697803801222
-0.06055259704589844,-0.01870495080947876,-0.1894979476928711,2023-10-20T12:10:01.242787Z,1697803801242
-0.05885910987854004,-0.018474936485290527,-0.18323326110839844,2023-10-20T12:10:01.265214Z,1697803801265
-0.05663466453552246,-0.018025696277618408,-0.1753406524658203,2023-10-20T12:10:01.282781Z,1697803801282
-0.054062843322753906,-0.01739203929901123,-0.16638946533203125,2023-10-20T12:10:01.303154Z,1697803801303
-0.05136680603027344,-0.016633450984954834,-0.15706443786621094,2023-10-20T12:10:01.323992Z,1697803801323
-0.04890894889831543,-0.015890002250671387,-0.14851093292236328,2023-10-20T12:10:01.343762Z,1697803801343
-0.047092437744140625,-0.015317678451538086,-0.14200496673583984,2023-10-20T12:10:01.364712Z,1697803801364
-0.046082496643066406,-0.014981687068939209,-0.13804149627685547,2023-10-20T12:10:01.384580Z,1697803801384
-0.04589438438415527,-0.01488649845123291,-0.13660621643066406,2023-10-20T12:10:01.405317Z,1697803801405
-0.04640340805053711,-0.014982163906097412,-0.13725757598876953,2023-10-20T12:10:01.425577Z,1697803801425
-0.04721856117248535,-0.015135467052459717,-0.1387948989868164,2023-10-20T12:10:01.448758Z,1697803801448
-0.04804539680480957,-0.015262961387634277,-0.14038944244384766,2023-10-20T12:10:01.465368Z,1697803801465
-0.048711538314819336,-0.015327394008636475,-0.14157867431640625,2023-10-20T12:10:01.485720Z,1697803801485
-0.0490727424621582,-0.015292644500732422,-0.14196491241455078,2023-10-20T12:10:01.506604Z,1697803801506
-0.04893922805786133,-0.015108704566955566,-0.14101505279541016,2023-10-20T12:10:01.526605Z,1697803801526
-0.04808163642883301,-0.014704525470733643,-0.1380596160888672,2023-10-20T12:10:01.548720Z,1697803801548
-0.04625725746154785,-0.014012277126312256,-0.132415771484375,2023-10-20T12:10:01.566650Z,1697803801566
-0.04354071617126465,-0.013065695762634277,-0.12430667877197266,2023-10-20T12:10:01.586978Z,1697803801586
-0.040216684341430664,-0.011961162090301514,-0.11455917358398438,2023-10-20T12:10:01.607484Z,1697803801607
-0.036673784255981445,-0.010821521282196045,-0.10430622100830078,2023-10-20T12:10:01.627485Z,1697803801627
-0.0333704948425293,-0.009779393672943115,-0.09484291076660156,2023-10-20T12:10:01.648752Z,1697803801648
-0.030579090118408203,-0.00890439748764038,-0.08689689636230469,2023-10-20T12:10:01.668017Z,1697803801667
-0.028641939163208008,-0.008287966251373291,-0.08141803741455078,2023-10-20T12:10:01.688536Z,1697803801688
-0.0279238224029541,-0.008030235767364502,-0.07944583892822266,2023-10-20T12:10:01.709018Z,1697803801708
-0.02865290641784668,-0.008187711238861084,-0.08164215087890625,2023-10-20T12:10:01.732053Z,1697803801732
-0.03071904182434082,-0.008718430995941162,-0.08770751953125,2023-10-20T12:10:01.749493Z,1697803801749
-0.03379702568054199,-0.009515643119812012,-0.09672069549560547,2023-10-20T12:10:01.769550Z,1697803801769
-0.0376286506652832,-0.010504007339477539,-0.10795402526855469,2023-10-20T12:10:01.789896Z,1697803801789
-0.04202699661254883,-0.011633217334747314,-0.12091064453125,2023-10-20T12:10:01.810079Z,1697803801810
-0.046793222427368164,-0.012861788272857666,-0.1350250244140625,2023-10-20T12:10:01.832210Z,1697803801832
-0.051619768142700195,-0.014120936393737793,-0.14938926696777344,2023-10-20T12:10:01.850561Z,1697803801850
-0.05609488487243652,-0.015313982963562012,-0.1627521514892578,2023-10-20T12:10:01.870476Z,1697803801870
-0.05996227264404297,-0.016402781009674072,-0.17437744140625,2023-10-20T12:10:01.891171Z,1697803801891
-0.06305813789367676,-0.01738274097442627,-0.18390750885009766,2023-10-20T12:10:01.910913Z,1697803801910
-0.06546592712402344,-0.018317997455596924,-0.19172954559326172,2023-10-20T12:10:01.932024Z,1697803801931
-0.06753063201904297,-0.019322216510772705,-0.19900798797607422,2023-10-20T12:10:01.951508Z,1697803801951
-0.06960916519165039,-0.02048391103744507,-0.20684051513671875,2023-10-20T12:10:01.971777Z,1697803801971
-0.07188558578491211,-0.021830081939697266,-0.215789794921875,2023-10-20T12:10:01.992741Z,1697803801992
-0.0742638111114502,-0.023314476013183594,-0.22560405731201172,2023-10-20T12:10:02.014848Z,1697803802014
-0.07668733596801758,-0.02489537000656128,-0.2361316680908203,2023-10-20T12:10:02.032532Z,1697803802032
-0.0793619155883789,-0.02665179967880249,-0.24812984466552734,2023-10-20T12:10:02.053290Z,1697803802053
-0.08264923095703125,-0.028714478015899658,-0.2628154754638672,2023-10-20T12:10:02.073740Z,1697803802073
-0.08663249015808105,-0.03110945224761963,-0.28045654296875,2023-10-20T12:10:02.093908Z,1697803802093
-0.09108471870422363,-0.03371453285217285,-0.3001270294189453,2023-10-20T12:10:02.113718Z,1697803802113
-0.09545254707336426,-0.03625321388244629,-0.3195819854736328,2023-10-20T12:10:02.134265Z,1697803802134
-0.09923315048217773,-0.038486599922180176,-0.3366231918334961,2023-10-20T12:10:02.154584Z,1697803802154
-0.10199332237243652,-0.04021501541137695,-0.34938526153564453,2023-10-20T12:10:02.175095Z,1697803802175
-0.10354804992675781,-0.04132115840911865,-0.35689544677734375,2023-10-20T12:10:02.194676Z,1697803802194
-0.10398483276367188,-0.041800737380981445,-0.3591346740722656,2023-10-20T12:10:02.214834Z,1697803802214
-0.10347270965576172,-0.04169762134552002,-0.3565998077392578,2023-10-20T12:10:02.235541Z,1697803802235
-0.10200858116149902,-0.040966033935546875,-0.3491792678833008,2023-10-20T12:10:02.256381Z,1697803802256
-0.09955167770385742,-0.039613962173461914,-0.3370685577392578,2023-10-20T12:10:02.276320Z,1697803802276
-0.09623146057128906,-0.03771662712097168,-0.32113075256347656,2023-10-20T12:10:02.298136Z,1697803802298
-0.09244465827941895,-0.035466790199279785,-0.30307769775390625,2023-10-20T12:10:02.316661Z,1697803802316
-0.08874869346618652,-0.033094048500061035,-0.2850341796875,2023-10-20T12:10:02.337205Z,1697803802337
-0.08565425872802734,-0.030799031257629395,-0.2687807083129883,2023-10-20T12:10:02.357020Z,1697803802356
-0.08378410339355469,-0.028835177421569824,-0.2562742233276367,2023-10-20T12:10:02.377751Z,1697803802377
-0.0836031436920166,-0.027370572090148926,-0.2487468719482422,2023-10-20T12:10:02.397864Z,1697803802397
-0.08549356460571289,-0.02647233009338379,-0.24685287475585938,2023-10-20T12:10:02.417919Z,1697803802417
-0.0894632339477539,-0.02604222297668457,-0.24993133544921875,2023-10-20T12:10:02.438078Z,1697803802438
-0.0953986644744873,-0.02596503496170044,-0.2570638656616211,2023-10-20T12:10:02.458322Z,1697803802458
-0.10306358337402344,-0.026126742362976074,-0.2670879364013672,2023-10-20T12:10:02.481201Z,1697803802481
-0.11213374137878418,-0.026446759700775146,-0.2787790298461914,2023-10-20T12:10:02.498803Z,1697803802498
-0.12222719192504883,-0.026865363121032715,-0.29090404510498047,2023-10-20T12:10:02.519096Z,1697803802519
-0.1329355239868164,-0.027338922023773193,-0.30234718322753906,2023-10-20T12:10:02.539592Z,1697803802539
-0.14379215240478516,-0.02779412269592285,-0.3120441436767578,2023-10-20T12:10:02.559848Z,1697803802559
-0.15432357788085938,-0.028175950050354004,-0.3192100524902344,2023-10-20T12:10:02.581164Z,1697803802581
-0.1641988754272461,-0.028460323810577393,-0.3235445022583008,2023-10-20T12:10:02.600121Z,1697803802600
-0.17316436767578125,-0.02862495183944702,-0.3249998092651367,2023-10-20T12:10:02.620650Z,1697803802620
-0.18161678314208984,-0.028759121894836426,-0.3247661590576172,2023-10-20T12:10:02.641346Z,1697803802641
-0.19047975540161133,-0.02900928258895874,-0.3246898651123047,2023-10-20T12:10:02.664604Z,1697803802664
-0.2010493278503418,-0.029574275016784668,-0.32683372497558594,2023-10-20T12:10:02.681678Z,1697803802681
-0.2141590118408203,-0.0305594801902771,-0.3320155143737793,2023-10-20T12:10:02.701869Z,1697803802701
-0.229888916015625,-0.03193157911300659,-0.33972835540771484,2023-10-20T12:10:02.722190Z,1697803802722
-0.2484145164489746,-0.033753275871276855,-0.3497638702392578,2023-10-20T12:10:02.742152Z,1697803802742
-0.27051591873168945,-0.036290764808654785,-0.3629012107849121,2023-10-20T12:10:02.764388Z,1697803802764
-0.2964444160461426,-0.039717257022857666,-0.3789515495300293,2023-10-20T12:10:02.782252Z,1697803802782
-0.32492494583129883,-0.04390597343444824,-0.395627498626709,2023-10-20T12:10:02.802591Z,1697803802802
-0.35365724563598633,-0.048535823822021484,-0.4097580909729004,2023-10-20T12:10:02.823778Z,1697803802823
-0.3805985450744629,-0.05338066816329956,-0.41921520233154297,2023-10-20T12:10:02.843725Z,1697803802843
-0.404268741607666,-0.05835461616516113,-0.4231600761413574,2023-10-20T12:10:02.864251Z,1697803802864
-0.42287540435791016,-0.0632583498954773,-0.4207267761230469,2023-10-20T12:10:02.883891Z,1697803802883
-0.43461179733276367,-0.06773293018341064,-0.411257266998291,2023-10-20T12:10:02.904620Z,1697803802904
-0.43846940994262695,-0.0714259147644043,-0.39504098892211914,2023-10-20T12:10:02.924807Z,1697803802924
-0.4341120719909668,-0.07399928569793701,-0.3728947639465332,2023-10-20T12:10:02.947490Z,1697803802947
-0.42055320739746094,-0.07486522197723389,-0.344818115234375,2023-10-20T12:10:02.965394Z,1697803802965
-0.39751195907592773,-0.07365882396697998,-0.3113441467285156,2023-10-20T12:10:02.985593Z,1697803802985
-0.36665916442871094,-0.07057762145996094,-0.2744865417480469,2023-10-20T12:10:03.005948Z,1697803803005
-0.3313727378845215,-0.06629252433776855,-0.23723745346069336,2023-10-20T12:10:03.025915Z,1697803803025
-0.294217586517334,-0.061279296875,-0.20151710510253906,2023-10-20T12:10:03.047623Z,1697803803047
-0.25522565841674805,-0.055382609367370605,-0.16721820831298828,2023-10-20T12:10:03.066417Z,1697803803066
-0.2128152847290039,-0.04804873466491699,-0.13328981399536133,2023-10-20T12:10:03.086723Z,1697803803086
-0.16633987426757812,-0.03899073600769043,-0.09951353073120117,2023-10-20T12:10:03.107018Z,1697803803106
-0.1165924072265625,-0.028330206871032715,-0.06658458709716797,2023-10-20T12:10:03.126974Z,1697803803126
-0.06487464904785156,-0.0163271427154541,-0.0353541374206543,2023-10-20T12:10:03.147725Z,1697803803147
-0.012476921081542969,-0.003252267837524414,-0.006487369537353516,2023-10-20T12:10:03.168091Z,1697803803168
0.040493011474609375,0.010924100875854492,0.02009725570678711,2023-10-20T12:10:03.188495Z,1697803803188
0.09269905090332031,0.02586960792541504,0.043973445892333984,2023-10-20T12:10:03.208574Z,1697803803208
0.14194202423095703,0.04091048240661621,0.06452369689941406,2023-10-20T12:10:03.231097Z,1697803803231
0.18776702880859375,0.05572700500488281,0.08206486701965332,2023-10-20T12:10:03.248461Z,1697803803248
0.23038101196289062,0.07013511657714844,0.09711956977844238,2023-10-20T12:10:03.269147Z,1697803803269
0.27044677734375,0.08414268493652344,0.11024117469787598,2023-10-20T12:10:03.289374Z,1697803803289
0.30609607696533203,0.0971214771270752,0.12089800834655762,2023-10-20T12:10:03.309397Z,1697803803309
0.33478450775146484,0.10825681686401367,0.12833452224731445,2023-10-20T12:10:03.330852Z,1697803803330
0.3560466766357422,0.11734437942504883,0.13258695602416992,2023-10-20T12:10:03.350321Z,1697803803350
0.37078189849853516,0.12454557418823242,0.1341552734375,2023-10-20T12:10:03.370633Z,1697803803370
0.3795595169067383,0.12986540794372559,0.13338184356689453,2023-10-20T12:10:03.391081Z,1697803803390
0.3831958770751953,0.13343000411987305,0.13060855865478516,2023-10-20T12:10:03.414152Z,1697803803414
0.3838081359863281,0.13595008850097656,0.12654471397399902,2023-10-20T12:10:03.431077Z,1697803803431
0.3816204071044922,0.13758111000061035,0.12129640579223633,2023-10-20T12:10:03.451679Z,1697803803451
0.37551116943359375,0.13802552223205566,0.11466050148010254,2023-10-20T12:10:03.471753Z,1697803803471
0.3631782531738281,0.13632702827453613,0.1062479019165039,2023-10-20T12:10:03.491984Z,1697803803491
0.3448295593261719,0.13221287727355957,0.09643864631652832,2023-10-20T12:10:03.514013Z,1697803803513
0.32306671142578125,0.1263444423675537,0.08617806434631348,2023-10-20T12:10:03.532293Z,1697803803532
0.2998971939086914,0.11933088302612305,0.07610654830932617,2023-10-20T12:10:03.553016Z,1697803803552
0.2765960693359375,0.11173033714294434,0.06654596328735352,2023-10-20T12:10:03.573037Z,1697803803572
0.2543630599975586,0.10418009757995605,0.05770468711853027,2023-10-20T12:10:03.597287Z,1697803803597
0.2346963882446289,0.09742259979248047,0.04982113838195801,2023-10-20T12:10:03.613900Z,1697803803613
0.21822357177734375,0.09180974960327148,0.04291117191314697,2023-10-20T12:10:03.633409Z,1697803803633
0.20551013946533203,0.08766460418701172,0.036959171295166016,2023-10-20T12:10:03.654219Z,1697803803654
0.1967601776123047,0.08513045310974121,0.03185153007507324,2023-10-20T12:10:03.674355Z,1697803803674
0.19173717498779297,0.0841832160949707,0.027364015579223633,2023-10-20T12:10:03.697058Z,1697803803697
0.1904764175415039,0.08491992950439453,0.023305177688598633,2023-10-20T12:10:03.714721Z,1697803803714
0.19295597076416016,0.08743715286254883,0.01945275068283081,2023-10-20T12:10:03.734938Z,1697803803734
0.1991567611694336,0.09183931350708008,0.015586316585540771,2023-10-20T12:10:03.755638Z,1697803803755
0.20903682708740234,0.09818029403686523,0.011499226093292236,2023-10-20T12:10:03.775481Z,1697803803775
0.2208118438720703,0.10566568374633789,0.006963580846786499,2023-10-20T12:10:03.797086Z,1697803803797
0.23288249969482422,0.11352682113647461,0.001949593424797058,2023-10-20T12:10:03.816440Z,1697803803816
0.24345684051513672,0.12084627151489258,-0.003389984369277954,2023-10-20T12:10:03.836491Z,1697803803836
0.25090694427490234,0.12669658660888672,-0.008740514516830444,2023-10-20T12:10:03.856994Z,1697803803856
0.2551698684692383,0.1308913230895996,-0.013813048601150513,2023-10-20T12:10:03.880036Z,1697803803879
0.25792694091796875,0.13419866561889648,-0.018519163131713867,2023-10-20T12:10:03.897260Z,1697803803897
0.2604551315307617,0.13728046417236328,-0.022882580757141113,2023-10-20T12:10:03.917348Z,1697803803917
0.2626523971557617,0.14010095596313477,-0.02686131000518799,2023-10-20T12:10:03.937806Z,1697803803937
0.2644805908203125,0.1426529884338379,-0.03044450283050537,2023-10-20T12:10:03.957388Z,1697803803957
0.2662630081176758,0.1451282501220703,-0.03368079662322998,2023-10-20T12:10:03.980594Z,1697803803980
0.26983070373535156,0.14856386184692383,-0.03685557842254639,2023-10-20T12:10:03.998134Z,1697803803998
0.2761669158935547,0.15354299545288086,-0.04018580913543701,2023-10-20T12:10:04.018431Z,1697803804018
0.2849273681640625,0.1598806381225586,-0.043677568435668945,2023-10-20T12:10:04.038683Z,1697803804038
0.29486751556396484,0.1669144630432129,-0.04716455936431885,2023-10-20T12:10:04.059375Z,1697803804059
0.3037242889404297,0.17338895797729492,-0.05021476745605469,2023-10-20T12:10:04.080076Z,1697803804080
0.3088197708129883,0.17773962020874023,-0.05223417282104492,2023-10-20T12:10:04.099974Z,1697803804099
0.30905914306640625,0.17923307418823242,-0.052890658378601074,2023-10-20T12:10:04.119752Z,1697803804119
0.30453968048095703,0.17780303955078125,-0.05209314823150635,2023-10-20T12:10:04.140022Z,1697803804139
0.2953195571899414,0.17339038848876953,-0.04980313777923584,2023-10-20T12:10:04.163196Z,1697803804163
0.28176116943359375,0.1661849021911621,-0.04611945152282715,2023-10-20T12:10:04.181568Z,1697803804181
0.2653331756591797,0.1570444107055664,-0.041431427001953125,2023-10-20T12:10:04.201656Z,1697803804201
0.24963760375976562,0.1481642723083496,-0.036501526832580566,2023-10-20T12:10:04.221910Z,1697803804221
0.23982906341552734,0.1426839828491211,-0.0322035551071167,2023-10-20T12:10:04.241954Z,1697803804241
0.2401123046875,0.14320135116577148,-0.029000043869018555,2023-10-20T12:10:04.263490Z,1697803804263
0.25216102600097656,0.1508331298828125,-0.026776552200317383,2023-10-20T12:10:04.282462Z,1697803804282
0.2740612030029297,0.16457891464233398,-0.024898171424865723,2023-10-20T12:10:04.302608Z,1697803804302
0.3019857406616211,0.1822504997253418,-0.022657811641693115,2023-10-20T12:10:04.322813Z,1697803804322
0.33217811584472656,0.2016277313232422,-0.019594013690948486,2023-10-20T12:10:04.342751Z,1697803804342
0.36175537109375,0.22093963623046875,-0.015580356121063232,2023-10-20T12:10:04.363123Z,1697803804363
0.3881053924560547,0.23851394653320312,-0.010730192065238953,2023-10-20T12:10:04.383945Z,1697803804383
0.4075183868408203,0.2519712448120117,-0.0052480995655059814,2023-10-20T12:10:04.403900Z,1697803804403
0.41634178161621094,0.25884199142456055,5.295230075716972E-4,2023-10-20T12:10:04.424165Z,1697803804424
0.41115856170654297,0.2567734718322754,0.00612233579158783,2023-10-20T12:10:04.446551Z,1697803804446
0.3913259506225586,0.2451491355895996,0.011000216007232666,2023-10-20T12:10:04.464656Z,1697803804464
0.3585805892944336,0.22498083114624023,0.014673322439193726,2023-10-20T12:10:04.484729Z,1697803804484
0.31746673583984375,0.1992049217224121,0.016897886991500854,2023-10-20T12:10:04.505400Z,1697803804505
0.2734556198120117,0.17145156860351562,0.01774907112121582,2023-10-20T12:10:04.525264Z,1697803804525
0.2313232421875,0.1448812484741211,0.017552196979522705,2023-10-20T12:10:04.546207Z,1697803804546
0.1948108673095703,0.12192630767822266,0.01677006483078003,2023-10-20T12:10:04.565716Z,1697803804565
0.16572284698486328,0.10373210906982422,0.015842139720916748,2023-10-20T12:10:04.586040Z,1697803804585
0.14396286010742188,0.09023809432983398,0.015041530132293701,2023-10-20T12:10:04.606297Z,1697803804606
0.12738895416259766,0.08009958267211914,0.0143776535987854,2023-10-20T12:10:04.629322Z,1697803804629
0.1135854721069336,0.07177305221557617,0.013720035552978516,2023-10-20T12:10:04.646985Z,1697803804646
0.10044670104980469,0.06388425827026367,0.012869000434875488,2023-10-20T12:10:04.667073Z,1697803804667
0.08638858795166016,0.05535888671875,0.011635780334472656,2023-10-20T12:10:04.687352Z,1697803804687
0.06897830963134766,0.044568538665771484,0.009682893753051758,2023-10-20T12:10:04.707797Z,1697803804707
0.04520606994628906,0.029461383819580078,0.006560921669006348,2023-10-20T12:10:04.729785Z,1697803804729
0.012177467346191406,0.00800466537475586,0.0018153190612792969,2023-10-20T12:10:04.748608Z,1697803804748
-0.03190326690673828,-0.021147727966308594,-0.004858255386352539,2023-10-20T12:10:04.768857Z,1697803804768
-0.08675098419189453,-0.057959556579589844,-0.013428926467895508,2023-10-20T12:10:04.788664Z,1697803804788
-0.14848804473876953,-0.09990930557250977,-0.023241281509399414,2023-10-20T12:10:04.808920Z,1697803804808
-0.21100139617919922,-0.14278411865234375,-0.03315448760986328,2023-10-20T12:10:04.829208Z,1697803804829
-0.26789236068725586,-0.18204498291015625,-0.04188036918640137,2023-10-20T12:10:04.849373Z,1697803804849
-0.3148078918457031,-0.21455621719360352,-0.048499345779418945,2023-10-20T12:10:04.870175Z,1697803804870
-0.34987735748291016,-0.23894071578979492,-0.05265331268310547,2023-10-20T12:10:04.890204Z,1697803804890
-0.3713383674621582,-0.2538886070251465,-0.054132819175720215,2023-10-20T12:10:04.913589Z,1697803804913
-0.3768739700317383,-0.2577347755432129,-0.052725911140441895,2023-10-20T12:10:04.930309Z,1697803804930
-0.36330223083496094,-0.24823904037475586,-0.048212528228759766,2023-10-20T12:10:04.950744Z,1697803804950
-0.32787513732910156,-0.2235713005065918,-0.0406566858291626,2023-10-20T12:10:04.971535Z,1697803804971
-0.2699446678161621,-0.18347740173339844,-0.030708134174346924,2023-10-20T12:10:04.991275Z,1697803804991
-0.19257831573486328,-0.1303420066833496,-0.019684314727783203,2023-10-20T12:10:05.013066Z,1697803805013
-0.10245800018310547,-0.06901264190673828,-0.00920647382736206,2023-10-20T12:10:05.031854Z,1697803805031
-0.007622718811035156,-0.005107402801513672,-5.870461463928223E-4,2023-10-20T12:10:05.052680Z,1697803805052
0.08450984954833984,0.05633974075317383,0.005455434322357178,2023-10-20T12:10:05.072592Z,1697803805072
0.16893482208251953,0.11199808120727539,0.008814245462417603,2023-10-20T12:10:05.096301Z,1697803805096
0.2421121597290039,0.15952825546264648,0.009725749492645264,2023-10-20T12:10:05.113152Z,1697803805113
0.3018836975097656,0.1975092887878418,0.008665680885314941,2023-10-20T12:10:05.133507Z,1697803805133
0.34708404541015625,0.22521448135375977,0.006240248680114746,2023-10-20T12:10:05.153809Z,1697803805153
0.37750244140625,0.2426009178161621,0.0030865371227264404,2023-10-20T12:10:05.173694Z,1697803805173
0.39472198486328125,0.25083160400390625,-2.596285194158554E-4,2023-10-20T12:10:05.195793Z,1697803805195
0.4018068313598633,0.252042293548584,-0.0034407153725624084,2023-10-20T12:10:05.214388Z,1697803805214
0.40348148345947266,0.24937677383422852,-0.006321564316749573,2023-10-20T12:10:05.234681Z,1697803805234
0.4049797058105469,0.24619531631469727,-0.00893808901309967,2023-10-20T12:10:05.254755Z,1697803805254
0.41075706481933594,0.24526023864746094,-0.01146194338798523,2023-10-20T12:10:05.275463Z,1697803805275
0.42370033264160156,0.24826717376708984,-0.014102280139923096,2023-10-20T12:10:05.295726Z,1697803805295
0.44455909729003906,0.25559234619140625,-0.017059236764907837,2023-10-20T12:10:05.315391Z,1697803805315
0.47147655487060547,0.2661581039428711,-0.020417392253875732,2023-10-20T12:10:05.336464Z,1697803805336
0.5011997222900391,0.2782101631164551,-0.024167895317077637,2023-10-20T12:10:05.356713Z,1697803805356
0.5301647186279297,0.28992128372192383,-0.028182119131088257,2023-10-20T12:10:05.378932Z,1697803805378
0.5552434921264648,0.29979610443115234,-0.032243430614471436,2023-10-20T12:10:05.396294Z,1697803805396
0.5733118057250977,0.30638837814331055,-0.036039769649505615,2023-10-20T12:10:05.417477Z,1697803805417
0.5807104110717773,0.3079409599304199,-0.0390966534614563,2023-10-20T12:10:05.437304Z,1697803805437
0.5732507705688477,0.30234241485595703,-0.04084092378616333,2023-10-20T12:10:05.457606Z,1697803805457
0.5474882125854492,0.28774356842041016,-0.04073357582092285,2023-10-20T12:10:05.478573Z,1697803805478
0.5019102096557617,0.26324033737182617,-0.03849339485168457,2023-10-20T12:10:05.497879Z,1697803805497
0.4375782012939453,0.22925424575805664,-0.03418642282485962,2023-10-20T12:10:05.518563Z,1697803805518
0.35874080657958984,0.18784618377685547,-0.028269708156585693,2023-10-20T12:10:05.538484Z,1697803805538
0.2711772918701172,0.14193105697631836,-0.02138155698776245,2023-10-20T12:10:05.558469Z,1697803805558
0.18102455139160156,0.09470033645629883,-0.014203071594238281,2023-10-20T12:10:05.578971Z,1697803805578
0.09352493286132812,0.048906803131103516,-0.007277846336364746,2023-10-20T12:10:05.599183Z,1697803805599
0.013184547424316406,0.006894588470458984,-0.0010170340538024902,2023-10-20T12:10:05.619517Z,1697803805619
-0.05593395233154297,-0.029265403747558594,0.004278421401977539,2023-10-20T12:10:05.639889Z,1697803805639
-0.10981178283691406,-0.057537078857421875,0.008344292640686035,2023-10-20T12:10:05.661988Z,1697803805661
-0.14527511596679688,-0.07629156112670898,0.010987520217895508,2023-10-20T12:10:05.680469Z,1697803805680
-0.16129302978515625,-0.08498382568359375,0.012132108211517334,2023-10-20T12:10:05.701064Z,1697803805701
-0.1595478057861328,-0.08444976806640625,0.011875748634338379,2023-10-20T12:10:05.721424Z,1697803805721
-0.1436920166015625,-0.07652568817138672,0.010479152202606201,2023-10-20T12:10:05.741628Z,1697803805741
-0.11811351776123047,-0.06340694427490234,0.00832819938659668,2023-10-20T12:10:05.762167Z,1697803805762
-0.08686542510986328,-0.04709148406982422,0.005817055702209473,2023-10-20T12:10:05.781816Z,1697803805781
-0.053650856018066406,-0.02941417694091797,0.003334522247314453,2023-10-20T12:10:05.802301Z,1697803805802
-0.021521568298339844,-0.011943817138671875,0.0012037158012390137,2023-10-20T12:10:05.822610Z,1697803805822
0.007962226867675781,0.004475116729736328,-3.8498640060424805E-4,2023-10-20T12:10:05.842008Z,1697803805841
0.03429222106933594,0.01952362060546875,-0.0013390779495239258,2023-10-20T12:10:05.862365Z,1697803805862
0.05762672424316406,0.033231258392333984,-0.0016372352838516235,2023-10-20T12:10:05.882478Z,1697803805882
0.07900619506835938,0.04613828659057617,-0.001308530569076538,2023-10-20T12:10:05.903697Z,1697803805903
0.10046195983886719,0.059388160705566406,-3.8583576679229736E-4,2023-10-20T12:10:05.923953Z,1697803805923
0.12355613708496094,0.07390117645263672,0.0011553466320037842,2023-10-20T12:10:05.945602Z,1697803805945
0.14886760711669922,0.09004449844360352,0.0033892393112182617,2023-10-20T12:10:05.963945Z,1697803805963
0.1754598617553711,0.10727071762084961,0.006363093852996826,2023-10-20T12:10:05.984008Z,1697803805983
0.2023944854736328,0.12499475479125977,0.010086923837661743,2023-10-20T12:10:06.004733Z,1697803806004
0.22926712036132812,0.1429295539855957,0.01455390453338623,2023-10-20T12:10:06.024465Z,1697803806024
0.25589561462402344,0.16090059280395508,0.01976078748703003,2023-10-20T12:10:06.045163Z,1697803806045
0.28182506561279297,0.17857837677001953,0.025650441646575928,2023-10-20T12:10:06.065034Z,1697803806064
0.3067970275878906,0.19576072692871094,0.03216207027435303,2023-10-20T12:10:06.085573Z,1697803806085
0.33022022247314453,0.21203136444091797,0.03916192054748535,2023-10-20T12:10:06.106010Z,1697803806105
0.35228633880615234,0.2274632453918457,0.04656660556793213,2023-10-20T12:10:06.128707Z,1697803806128
0.37364864349365234,0.2424154281616211,0.05432248115539551,2023-10-20T12:10:06.146255Z,1697803806146
0.3947744369506836,0.25714969635009766,0.062340617179870605,2023-10-20T12:10:06.166340Z,1697803806166
0.4150533676147461,0.2713136672973633,0.0703432559967041,2023-10-20T12:10:06.187370Z,1697803806187
0.4321584701538086,0.2834959030151367,0.07768440246582031,2023-10-20T12:10:06.207695Z,1697803806207
0.44355106353759766,0.2921128273010254,0.08359134197235107,2023-10-20T12:10:06.228767Z,1697803806228
0.4465503692626953,0.2954139709472656,0.08723688125610352,2023-10-20T12:10:06.247705Z,1697803806247
0.4390134811401367,0.29181814193725586,0.08794534206390381,2023-10-20T12:10:06.268580Z,1697803806268
0.4194040298461914,0.2800869941711426,0.08526837825775146,2023-10-20T12:10:06.288643Z,1697803806288
0.3881969451904297,0.26032257080078125,0.07929515838623047,2023-10-20T12:10:06.312480Z,1697803806312
0.3471221923828125,0.23357152938842773,0.07053530216217041,2023-10-20T12:10:06.329003Z,1697803806328
0.2987680435180664,0.20157241821289062,0.05980944633483887,2023-10-20T12:10:06.349449Z,1697803806349
0.2456836700439453,0.16607666015625,0.0479968786239624,2023-10-20T12:10:06.369904Z,1697803806369
0.19115829467773438,0.1293630599975586,0.036113619804382324,2023-10-20T12:10:06.389933Z,1697803806389
0.13863849639892578,0.09383773803710938,0.025108814239501953,2023-10-20T12:10:06.411549Z,1697803806411
0.0909261703491211,0.061492919921875,0.015667200088500977,2023-10-20T12:10:06.430394Z,1697803806430
0.05061054229736328,0.0341644287109375,0.008243203163146973,2023-10-20T12:10:06.450494Z,1697803806450
0.019910812377929688,0.013405799865722656,0.003047943115234375,2023-10-20T12:10:06.470771Z,1697803806470
7.343292236328125E-4,4.916191101074219E-4,1.0466575622558594E-4,2023-10-20T12:10:06.491307Z,1697803806491
-0.006766319274902344,-0.004525661468505859,-8.980035781860352E-4,2023-10-20T12:10:06.511590Z,1697803806511
-0.0042095184326171875,-0.0028076171875,-5.170702934265137E-4,2023-10-20T12:10:06.532053Z,1697803806531
0.005583763122558594,0.003715991973876953,6.256103515625E-4,2023-10-20T12:10:06.552322Z,1697803806552
0.019788742065429688,0.013145923614501953,0.0020155906677246094,2023-10-20T12:10:06.572546Z,1697803806572
0.03540802001953125,0.023495197296142578,0.0032601356506347656,2023-10-20T12:10:06.594835Z,1697803806594
0.05034828186035156,0.03337717056274414,0.0041539669036865234,2023-10-20T12:10:06.612554Z,1697803806612
0.06288433074951172,0.041660308837890625,0.004613757133483887,2023-10-20T12:10:06.633324Z,1697803806633
0.07168865203857422,0.047475337982177734,0.004630684852600098,2023-10-20T12:10:06.653638Z,1697803806653
0.07580089569091797,0.05021095275878906,0.004265785217285156,2023-10-20T12:10:06.673676Z,1697803806673
0.0754079818725586,0.04999542236328125,0.003645867109298706,2023-10-20T12:10:06.694958Z,1697803806694
0.07207679748535156,0.04785776138305664,0.0029552578926086426,2023-10-20T12:10:06.714439Z,1697803806714
0.06783294677734375,0.04512786865234375,0.002327263355255127,2023-10-20T12:10:06.734654Z,1697803806734
0.06482124328613281,0.043221473693847656,0.0018440783023834229,2023-10-20T12:10:06.754529Z,1697803806754
0.06492137908935547,0.04339885711669922,0.0015364587306976318,2023-10-20T12:10:06.778169Z,1697803806778
0.06956672668457031,0.04663991928100586,0.0013931989669799805,2023-10-20T12:10:06.795288Z,1697803806795
0.07895946502685547,0.05310869216918945,0.0013819634914398193,2023-10-20T12:10:06.815279Z,1697803806815
0.09230422973632812,0.06231260299682617,0.0014659464359283447,2023-10-20T12:10:06.835571Z,1697803806835
0.1074533462524414,0.07285356521606445,0.0016115382313728333,2023-10-20T12:10:06.855638Z,1697803806855
0.12284660339355469,0.08370161056518555,0.0017971917986869812,2023-10-20T12:10:06.877971Z,1697803806877
0.13654136657714844,0.0935359001159668,0.0019784271717071533,2023-10-20T12:10:06.896303Z,1697803806896
0.14718246459960938,0.10140419006347656,0.002113617956638336,2023-10-20T12:10:06.916610Z,1697803806916
0.15459823608398438,0.10715436935424805,0.0021608546376228333,2023-10-20T12:10:06.937058Z,1697803806937
0.1591815948486328,0.1110382080078125,0.002075880765914917,2023-10-20T12:10:06.957138Z,1697803806957
0.16183757781982422,0.1136484146118164,0.0018390640616416931,2023-10-20T12:10:06.977764Z,1697803806977
0.16331195831298828,0.11551618576049805,0.0014293938875198364,2023-10-20T12:10:06.998073Z,1697803806997
0.1648268699645996,0.1175222396850586,8.551888167858124E-4,2023-10-20T12:10:07.017938Z,1697803807017
0.1685166358947754,0.12118291854858398,1.2738443911075592E-4,2023-10-20T12:10:07.038222Z,1697803807038
0.17748594284057617,0.1287398338317871,-7.806234061717987E-4,2023-10-20T12:10:07.061279Z,1697803807061
0.1930994987487793,0.14123964309692383,-0.001944020390510559,2023-10-20T12:10:07.078715Z,1697803807078
0.2155756950378418,0.1589512825012207,-0.003448277711868286,2023-10-20T12:10:07.098753Z,1697803807098
0.2430429458618164,0.18061351776123047,-0.005322501063346863,2023-10-20T12:10:07.119215Z,1697803807119
0.27315855026245117,0.20448589324951172,-0.007505372166633606,2023-10-20T12:10:07.139234Z,1697803807139
0.3034176826477051,0.22859907150268555,-0.009826600551605225,2023-10-20T12:10:07.161040Z,1697803807161
0.3314838409423828,0.25103187561035156,-0.01205456256866455,2023-10-20T12:10:07.180223Z,1697803807180
0.35628414154052734,0.2707643508911133,-0.013992220163345337,2023-10-20T12:10:07.200105Z,1697803807200
0.37777185440063477,0.28752565383911133,-0.015529334545135498,2023-10-20T12:10:07.220761Z,1697803807220
0.39653825759887695,0.3015751838684082,-0.016589045524597168,2023-10-20T12:10:07.240321Z,1697803807240
0.41322946548461914,0.3132925033569336,-0.017116427421569824,2023-10-20T12:10:07.261323Z,1697803807261
0.42899179458618164,0.32355785369873047,-0.01706242561340332,2023-10-20T12:10:07.281246Z,1697803807281
0.4461789131164551,0.3340902328491211,-0.016439616680145264,2023-10-20T12:10:07.302035Z,1697803807301
0.46826744079589844,0.3474264144897461,-0.015304476022720337,2023-10-20T12:10:07.321848Z,1697803807321
0.49723100662231445,0.3648700714111328,-0.01360456645488739,2023-10-20T12:10:07.345365Z,1697803807345
0.534449577331543,0.38713598251342773,-0.01120021939277649,2023-10-20T12:10:07.362098Z,1697803807362
0.5794897079467773,0.4136185646057129,-0.00785316526889801,2023-10-20T12:10:07.382133Z,1697803807382
0.6311664581298828,0.4430379867553711,-0.0032246634364128113,2023-10-20T12:10:07.402896Z,1697803807402
0.6877021789550781,0.4738955497741699,0.003016248345375061,2023-10-20T12:10:07.422896Z,1697803807422
0.7459383010864258,0.503903865814209,0.011185631155967712,2023-10-20T12:10:07.444624Z,1697803807444
0.8029842376708984,0.531163215637207,0.021548688411712646,2023-10-20T12:10:07.463183Z,1697803807463
0.8568248748779297,0.5543861389160156,0.03430184721946716,2023-10-20T12:10:07.483532Z,1697803807483
0.9058589935302734,0.5724024772644043,0.04961109161376953,2023-10-20T12:10:07.503966Z,1697803807503
0.9473819732666016,0.5834102630615234,0.067507803440094,2023-10-20T12:10:07.527788Z,1697803807527
0.978546142578125,0.5859551429748535,0.08777379989624023,2023-10-20T12:10:07.544970Z,1697803807544
0.9958887100219727,0.5785613059997559,0.10979413986206055,2023-10-20T12:10:07.565291Z,1697803807565
0.9993515014648438,0.5619592666625977,0.1327500343322754,2023-10-20T12:10:07.585479Z,1697803807585
0.9903106689453125,0.5376725196838379,0.15572214126586914,2023-10-20T12:10:07.605816Z,1697803807605
0.9708108901977539,0.5075550079345703,0.17787384986877441,2023-10-20T12:10:07.628241Z,1697803807628
0.9415912628173828,0.47285938262939453,0.19828391075134277,2023-10-20T12:10:07.646382Z,1697803807646
0.9014291763305664,0.4337944984436035,0.21569132804870605,2023-10-20T12:10:07.666341Z,1697803807666
0.8490896224975586,0.390592098236084,0.22853827476501465,2023-10-20T12:10:07.686976Z,1697803807686
0.7831001281738281,0.3434758186340332,0.23495841026306152,2023-10-20T12:10:07.706833Z,1697803807706
0.703455924987793,0.29342079162597656,0.2332150936126709,2023-10-20T12:10:07.728146Z,1697803807728
0.6103906631469727,0.24150872230529785,0.22167539596557617,2023-10-20T12:10:07.746871Z,1697803807746
0.5041885375976562,0.1887953281402588,0.19890666007995605,2023-10-20T12:10:07.767394Z,1697803807767
0.3842906951904297,0.13583803176879883,0.16345763206481934,2023-10-20T12:10:07.788135Z,1697803807788
0.24960041046142578,0.08304405212402344,0.11380672454833984,2023-10-20T12:10:07.811636Z,1697803807811
0.09981250762939453,0.03112316131591797,0.0485997200012207,2023-10-20T12:10:07.828080Z,1697803807828
-0.062419891357421875,-0.018131732940673828,-0.032370567321777344,2023-10-20T12:10:07.848669Z,1697803807848
-0.23304080963134766,-0.06258106231689453,-0.1284503936767578,2023-10-20T12:10:07.869177Z,1697803807869
-0.40767860412597656,-0.10030901432037354,-0.2384505271911621,2023-10-20T12:10:07.888771Z,1697803807888
-0.5826716423034668,-0.1300891637802124,-0.36138296127319336,2023-10-20T12:10:07.910778Z,1697803807910
-0.7529811859130859,-0.15068531036376953,-0.49539756774902344,2023-10-20T12:10:07.929912Z,1697803807929
-0.9118571281433105,-0.16059017181396484,-0.6370844841003418,2023-10-20T12:10:07.950019Z,1697803807949
-1.0520877838134766,-0.15828096866607666,-0.7816333770751953,2023-10-20T12:10:07.970739Z,1697803807970
-1.169328212738037,-0.1434612274169922,-0.9251914024353027,2023-10-20T12:10:07.990725Z,1697803807990
-1.2621569633483887,-0.11737310886383057,-1.064873218536377,2023-10-20T12:10:08.010558Z,1697803808010
-1.3315768241882324,-0.08283817768096924,-1.1978445053100586,2023-10-20T12:10:08.030893Z,1697803808030
-1.38092041015625,-0.04306019842624664,-1.3222198486328125,2023-10-20T12:10:08.051355Z,1697803808051
-1.4157280921936035,-8.07357020676136E-4,-1.4374990463256836,2023-10-20T12:10:08.071656Z,1697803808071
-1.443079948425293,0.04217661917209625,-1.545980453491211,2023-10-20T12:10:08.093605Z,1697803808093
-1.4690093994140625,0.0850633978843689,-1.650313377380371,2023-10-20T12:10:08.111450Z,1697803808111
-1.4982357025146484,0.12723782658576965,-1.752382755279541,2023-10-20T12:10:08.132599Z,1697803808132
-1.5350451469421387,0.16770076751708984,-1.8538689613342285,2023-10-20T12:10:08.152462Z,1697803808152
-1.583928108215332,0.2048543095588684,-1.956531047821045,2023-10-20T12:10:08.172933Z,1697803808172
-1.6477508544921875,0.23709481954574585,-2.0597376823425293,2023-10-20T12:10:08.193903Z,1697803808193
-1.7269172668457031,0.26326948404312134,-2.1589651107788086,2023-10-20T12:10:08.213215Z,1697803808213
-1.8187775611877441,0.28241580724716187,-2.2458910942077637,2023-10-20T12:10:08.234202Z,1697803808234
-1.919222354888916,0.29316645860671997,-2.3097476959228516,2023-10-20T12:10:08.254472Z,1697803808254
-2.0223641395568848,0.2932809591293335,-2.3398241996765137,2023-10-20T12:10:08.277119Z,1697803808277
-2.1224451065063477,0.28050464391708374,-2.3265323638916016,2023-10-20T12:10:08.294124Z,1697803808294
-2.2149109840393066,0.2535225749015808,-2.263265609741211,2023-10-20T12:10:08.314558Z,1697803808314
-2.295546531677246,0.21083763241767883,-2.147909641265869,2023-10-20T12:10:08.335023Z,1697803808334
-2.3560805320739746,0.15196019411087036,-1.9802513122558594,2023-10-20T12:10:08.355286Z,1697803808355
-2.382066249847412,0.07875840365886688,-1.7622628211975098,2023-10-20T12:10:08.377597Z,1697803808377
-2.3562679290771484,-0.004354609176516533,-1.4995567798614502,2023-10-20T12:10:08.395772Z,1697803808395
-2.2594680786132812,-0.08987006545066833,-1.200058937072754,2023-10-20T12:10:08.415630Z,1697803808415
-2.0758347511291504,-0.1670885682106018,-0.8810341358184814,2023-10-20T12:10:08.436641Z,1697803808436
-1.7900347709655762,-0.2214338779449463,-0.5661182403564453,2023-10-20T12:10:08.456351Z,1697803808456
-1.3917388916015625,-0.23589551448822021,-0.28752434253692627,2023-10-20T12:10:08.477119Z,1697803808477
-0.8793478012084961,-0.19300448894500732,-0.08374649286270142,2023-10-20T12:10:08.497087Z,1697803808497
-0.24442100524902344,-0.06740522384643555,0.004452839493751526,2023-10-20T12:10:08.517806Z,1697803808517
0.5188570022583008,0.17597436904907227,-0.06842696666717529,2023-10-20T12:10:08.538091Z,1697803808538
1.396834373474121,0.5705282688140869,-0.3370792865753174,2023-10-20T12:10:08.560588Z,1697803808560
2.347654342651367,1.1297249794006348,-0.8043551445007324,2023-10-20T12:10:08.578115Z,1697803808578
3.317167282104492,1.8431367874145508,-1.4432170391082764,2023-10-20T12:10:08.598246Z,1697803808598
4.2804975509643555,2.6971774101257324,-2.2222609519958496,2023-10-20T12:10:08.618927Z,1697803808618
5.196133613586426,3.6665987968444824,-3.0971312522888184,2023-10-20T12:10:08.638944Z,1697803808638
6.050943374633789,4.72081995010376,-4.01298713684082,2023-10-20T12:10:08.660094Z,1697803808660
6.83328914642334,5.816119194030762,-4.913755893707275,2023-10-20T12:10:08.679242Z,1697803808679
7.551898956298828,6.903574466705322,-5.759715557098389,2023-10-20T12:10:08.699779Z,1697803808699
8.227983474731445,7.94660758972168,-6.5312933921813965,2023-10-20T12:10:08.720533Z,1697803808720
8.844454765319824,8.91989517211914,-7.223235607147217,2023-10-20T12:10:08.743485Z,1697803808743
9.375818252563477,9.807024002075195,-7.843639373779297,2023-10-20T12:10:08.760871Z,1697803808760
9.809379577636719,10.597713470458984,-8.403349876403809,2023-10-20T12:10:08.781139Z,1697803808781
10.145216941833496,11.283416748046875,-8.895853996276855,2023-10-20T12:10:08.801751Z,1697803808801
10.369961738586426,11.852903366088867,-9.29990005493164,2023-10-20T12:10:08.821765Z,1697803808821
10.50108528137207,12.298822402954102,-9.602104187011719,2023-10-20T12:10:08.843538Z,1697803808843
10.535221099853516,12.62722396850586,-9.808799743652344,2023-10-20T12:10:08.861827Z,1697803808861
10.486329078674316,12.857504844665527,-9.928496360778809,2023-10-20T12:10:08.881931Z,1697803808881
10.361259460449219,13.008238792419434,-9.956286430358887,2023-10-20T12:10:08.902622Z,1697803808902
10.145489692687988,13.076380729675293,-9.870527267456055,2023-10-20T12:10:08.922707Z,1697803808922
9.854944229125977,13.047317504882812,-9.650796890258789,2023-10-20T12:10:08.943495Z,1697803808943
9.502552032470703,12.912721633911133,-9.290091514587402,2023-10-20T12:10:08.963267Z,1697803808963
9.097955703735352,12.672870635986328,-8.788711547851562,2023-10-20T12:10:08.983037Z,1697803808982
8.660788536071777,12.32458209991455,-8.154415130615234,2023-10-20T12:10:09.003510Z,1697803809003
8.201844215393066,11.852867126464844,-7.395917892456055,2023-10-20T12:10:09.026507Z,1697803809026
7.723921775817871,11.246410369873047,-6.540431976318359,2023-10-20T12:10:09.043851Z,1697803809043
7.218677520751953,10.507930755615234,-5.633269309997559,2023-10-20T12:10:09.063857Z,1697803809063
6.67853307723999,9.655067443847656,-4.717685699462891,2023-10-20T12:10:09.084774Z,1697803809084
6.109958171844482,8.713726043701172,-3.8217780590057373,2023-10-20T12:10:09.105024Z,1697803809104
5.51124382019043,7.701811790466309,-2.9626665115356445,2023-10-20T12:10:09.126668Z,1697803809126
4.907897472381592,6.644481658935547,-2.1688616275787354,2023-10-20T12:10:09.145592Z,1697803809145
4.306292533874512,5.578075408935547,-1.4782671928405762,2023-10-20T12:10:09.165616Z,1697803809165
3.7200818061828613,4.551025390625,-0.917579174041748,2023-10-20T12:10:09.186592Z,1697803809186
3.1539459228515625,3.6114864349365234,-0.49339866638183594,2023-10-20T12:10:09.210067Z,1697803809210
2.6053810119628906,2.7827816009521484,-0.1952061653137207,2023-10-20T12:10:09.227600Z,1697803809227
2.1019396781921387,2.083413600921631,-0.00352370273321867,2023-10-20T12:10:09.246859Z,1697803809246
1.676379680633545,1.5278806686401367,0.10697978734970093,2023-10-20T12:10:09.267391Z,1697803809267
1.348559856414795,1.1166119575500488,0.16308057308197021,2023-10-20T12:10:09.287238Z,1697803809287
1.1188006401062012,0.8315935134887695,0.18664300441741943,2023-10-20T12:10:09.310343Z,1697803809310
0.9921932220458984,0.6539154052734375,0.19658350944519043,2023-10-20T12:10:09.327479Z,1697803809327
0.9469308853149414,0.5496683120727539,0.20316636562347412,2023-10-20T12:10:09.348270Z,1697803809348
0.9819231033325195,0.49814748764038086,0.21496820449829102,2023-10-20T12:10:09.368902Z,1697803809368
1.0778589248657227,0.4730396270751953,0.23116159439086914,2023-10-20T12:10:09.388697Z,1697803809388
1.2181549072265625,0.4548330307006836,0.24696063995361328,2023-10-20T12:10:09.409531Z,1697803809409
1.4109134674072266,0.4382202625274658,0.25914716720581055,2023-10-20T12:10:09.429920Z,1697803809429
1.6373071670532227,0.4141519069671631,0.2592952251434326,2023-10-20T12:10:09.449917Z,1697803809449
1.8804817199707031,0.37882232666015625,0.2429875135421753,2023-10-20T12:10:09.469760Z,1697803809469
2.1316890716552734,0.33202505111694336,0.20903921127319336,2023-10-20T12:10:09.492942Z,1697803809492
2.3816022872924805,0.27474749088287354,0.15743625164031982,2023-10-20T12:10:09.510038Z,1697803809509
2.621060371398926,0.2099047303199768,0.08814522624015808,2023-10-20T12:10:09.530485Z,1697803809530
2.8361406326293945,0.1402505338191986,0.0027634240686893463,2023-10-20T12:10:09.551076Z,1697803809551
3.0141115188598633,0.0682525634765625,-0.0946090817451477,2023-10-20T12:10:09.571079Z,1697803809571
3.1510229110717773,-0.003699653781950474,-0.1987510323524475,2023-10-20T12:10:09.593173Z,1697803809593
3.253565788269043,-0.07379129528999329,-0.305564284324646,2023-10-20T12:10:09.611119Z,1697803809611
3.3306875228881836,-0.1406450867652893,-0.412212610244751,2023-10-20T12:10:09.631910Z,1697803809631
3.386280059814453,-0.20227402448654175,-0.5158123970031738,2023-10-20T12:10:09.652565Z,1697803809652
3.421539306640625,-0.2556983232498169,-0.6141989231109619,2023-10-20T12:10:09.672108Z,1697803809672
3.4360132217407227,-0.29803013801574707,-0.7047107219696045,2023-10-20T12:10:09.692802Z,1697803809692
3.4328489303588867,-0.32797038555145264,-0.7849235534667969,2023-10-20T12:10:09.713241Z,1697803809713
3.415499687194824,-0.34540998935699463,-0.8527143001556396,2023-10-20T12:10:09.733214Z,1697803809733
3.385171890258789,-0.3502393960952759,-0.9054877758026123,2023-10-20T12:10:09.753296Z,1697803809753
3.3376235961914062,-0.34158235788345337,-0.9394309520721436,2023-10-20T12:10:09.776268Z,1697803809776
3.264608383178711,-0.31810545921325684,-0.9508223533630371,2023-10-20T12:10:09.794370Z,1697803809794
3.1616640090942383,-0.2796744704246521,-0.9385247230529785,2023-10-20T12:10:09.814033Z,1697803809813
3.02579402923584,-0.22812461853027344,-0.9033753871917725,2023-10-20T12:10:09.834958Z,1697803809834
2.8541059494018555,-0.1678868532180786,-0.8470747470855713,2023-10-20T12:10:09.854120Z,1697803809854
2.6424293518066406,-0.10452708601951599,-0.7709348201751709,2023-10-20T12:10:09.875606Z,1697803809875
2.387012481689453,-0.04358363151550293,-0.6770243644714355,2023-10-20T12:10:09.894920Z,1697803809894
2.0893163681030273,0.009598664939403534,-0.5695927143096924,2023-10-20T12:10:09.915143Z,1697803809915
1.7555437088012695,0.04987978935241699,-0.4545276165008545,2023-10-20T12:10:09.935757Z,1697803809935
1.3974809646606445,0.07381093502044678,-0.3395874500274658,2023-10-20T12:10:09.958918Z,1697803809958
1.0337867736816406,0.08034783601760864,-0.23335981369018555,2023-10-20T12:10:09.976060Z,1697803809976
0.6830244064331055,0.07049626111984253,-0.14194273948669434,2023-10-20T12:10:09.996359Z,1697803809996
0.3587989807128906,0.046455979347229004,-0.06796431541442871,2023-10-20T12:10:10.016919Z,1697803810016
0.07592582702636719,0.011892080307006836,-0.01291811466217041,2023-10-20T12:10:10.036876Z,1697803810036
-0.149444580078125,-0.02766883373260498,0.022304773330688477,2023-10-20T12:10:10.057885Z,1697803810057
-0.3033599853515625,-0.06526947021484375,0.03822600841522217,2023-10-20T12:10:10.077848Z,1697803810077
-0.3762979507446289,-0.09258151054382324,0.03757506608963013,2023-10-20T12:10:10.097782Z,1697803810097
-0.3667325973510742,-0.10144853591918945,0.025841355323791504,2023-10-20T12:10:10.118306Z,1697803810118
-0.27902984619140625,-0.08537721633911133,0.010608017444610596,2023-10-20T12:10:10.142423Z,1697803810142
-0.12363052368164062,-0.04122471809387207,3.4620240330696106E-4,2023-10-20T12:10:10.159682Z,1697803810159
0.0781717300415039,0.02803182601928711,0.002733677625656128,2023-10-20T12:10:10.178368Z,1697803810178
0.306640625,0.11678147315979004,0.02299356460571289,2023-10-20T12:10:10.198796Z,1697803810198
0.5452432632446289,0.21790790557861328,0.06356155872344971,2023-10-20T12:10:10.218869Z,1697803810218
0.775360107421875,0.3216848373413086,0.12345647811889648,2023-10-20T12:10:10.240919Z,1697803810240
0.9782619476318359,0.41724586486816406,0.19799578189849854,2023-10-20T12:10:10.259470Z,1697803810259
1.1412458419799805,0.49634838104248047,0.28005480766296387,2023-10-20T12:10:10.280425Z,1697803810280
1.258199691772461,0.554628849029541,0.36179685592651367,2023-10-20T12:10:10.300204Z,1697803810300
1.3270645141601562,0.5909509658813477,0.4358832836151123,2023-10-20T12:10:10.320809Z,1697803810320
1.3517227172851562,0.6075966358184814,0.4975771903991699,2023-10-20T12:10:10.342281Z,1697803810342
1.3403358459472656,0.6087520122528076,0.5448117256164551,2023-10-20T12:10:10.361605Z,1697803810361
1.3073244094848633,0.6009211540222168,0.5791699886322021,2023-10-20T12:10:10.381633Z,1697803810381
1.2657356262207031,0.5897724628448486,0.6037545204162598,2023-10-20T12:10:10.401678Z,1697803810401
1.2243366241455078,0.5790619850158691,0.6218619346618652,2023-10-20T12:10:10.422291Z,1697803810422
1.1906137466430664,0.5722160339355469,0.6373291015625,2023-10-20T12:10:10.442275Z,1697803810442
1.1697602272033691,0.5717325210571289,0.653831958770752,2023-10-20T12:10:10.462646Z,1697803810462
1.1631851196289062,0.5780487060546875,0.6736326217651367,2023-10-20T12:10:10.483454Z,1697803810483
1.1695523262023926,0.5896816253662109,0.6973838806152344,2023-10-20T12:10:10.503612Z,1697803810503
1.1834101676940918,0.6028532981872559,0.7231888771057129,2023-10-20T12:10:10.525712Z,1697803810525
1.1933879852294922,0.6110692024230957,0.7453227043151855,2023-10-20T12:10:10.544144Z,1697803810544
1.1859612464904785,0.6068406105041504,0.7558879852294922,2023-10-20T12:10:10.564059Z,1697803810564
1.1507749557495117,0.5848517417907715,0.7476158142089844,2023-10-20T12:10:10.584523Z,1697803810584
1.080336570739746,0.5422141551971436,0.7147011756896973,2023-10-20T12:10:10.604515Z,1697803810604
0.9672856330871582,0.47711992263793945,0.6515631675720215,2023-10-20T12:10:10.625478Z,1697803810625
0.8060622215270996,0.3889932632446289,0.5535321235656738,2023-10-20T12:10:10.645126Z,1697803810645
0.5942721366882324,0.27901244163513184,0.41680097579956055,2023-10-20T12:10:10.665914Z,1697803810665
0.3372015953063965,0.15280747413635254,0.24169158935546875,2023-10-20T12:10:10.685768Z,1697803810685
0.0417790412902832,0.018108606338500977,0.030582904815673828,2023-10-20T12:10:10.707719Z,1697803810707
-0.2839360237121582,-0.11667871475219727,-0.21204185485839844,2023-10-20T12:10:10.725962Z,1697803810725
-0.6265096664428711,-0.2420186996459961,-0.4761505126953125,2023-10-20T12:10:10.746644Z,1697803810746
-0.9704842567443848,-0.3495159149169922,-0.7477607727050781,2023-10-20T12:10:10.767364Z,1697803810767
-1.3028388023376465,-0.43370485305786133,-1.0135111808776855,2023-10-20T12:10:10.787172Z,1697803810787
-1.6138229370117188,-0.4923992156982422,-1.2621703147888184,2023-10-20T12:10:10.809050Z,1697803810809
-1.8951735496520996,-0.5262497663497925,-1.4828076362609863,2023-10-20T12:10:10.827199Z,1697803810827
-2.1412582397460938,-0.5388568639755249,-1.6648664474487305,2023-10-20T12:10:10.847970Z,1697803810847
-2.3462700843811035,-0.5357128381729126,-1.7974753379821777,2023-10-20T12:10:10.868141Z,1697803810868
-2.507126808166504,-0.5241190195083618,-1.8760333061218262,2023-10-20T12:10:10.888188Z,1697803810888
-2.6214137077331543,-0.5101364850997925,-1.8979978561401367,2023-10-20T12:10:10.908891Z,1697803810908
-2.6888389587402344,-0.4982454180717468,-1.861234188079834,2023-10-20T12:10:10.928994Z,1697803810928
-2.711181640625,-0.4905849099159241,-1.768038272857666,2023-10-20T12:10:10.949259Z,1697803810949
-2.6904940605163574,-0.4888489246368408,-1.6231727600097656,2023-10-20T12:10:10.969733Z,1697803810969
-2.6256155967712402,-0.49336838722229004,-1.4323270320892334,2023-10-20T12:10:10.992275Z,1697803810992
-2.512714385986328,-0.5015444755554199,-1.2047078609466553,2023-10-20T12:10:11.010003Z,1697803811009
-2.3438940048217773,-0.5075211524963379,-0.9489262104034424,2023-10-20T12:10:11.030041Z,1697803811029
-2.103522777557373,-0.5007641315460205,-0.675767183303833,2023-10-20T12:10:11.050600Z,1697803811050
-1.7761106491088867,-0.46813488006591797,-0.4075573682785034,2023-10-20T12:10:11.070359Z,1697803811070
-1.3475098609924316,-0.39535951614379883,-0.17544984817504883,2023-10-20T12:10:11.092127Z,1697803811092
-0.8166131973266602,-0.26941728591918945,-0.02041637897491455,2023-10-20T12:10:11.111619Z,1697803811111
-0.17456626892089844,-0.06556487083435059,0.014921486377716064,2023-10-20T12:10:11.131210Z,1697803811131
0.5888748168945312,0.2539505958557129,-0.11665141582489014,2023-10-20T12:10:11.151688Z,1697803811151
1.4639368057250977,0.7244706153869629,-0.45037412643432617,2023-10-20T12:10:11.174951Z,1697803811174
2.4108638763427734,1.3575472831726074,-0.9903700351715088,2023-10-20T12:10:11.192268Z,1697803811192
3.401273727416992,2.1521902084350586,-1.717970371246338,2023-10-20T12:10:11.212884Z,1697803811212
4.392965316772461,3.0866470336914062,-2.5940937995910645,2023-10-20T12:10:11.232914Z,1697803811232
5.332959175109863,4.119634628295898,-3.552928924560547,2023-10-20T12:10:11.253458Z,1697803811253
6.199921131134033,5.210013389587402,-4.532353401184082,2023-10-20T12:10:11.274677Z,1697803811274
6.982550621032715,6.311304092407227,-5.48427677154541,2023-10-20T12:10:11.293469Z,1697803811293
7.7205891609191895,7.389174461364746,-6.391137599945068,2023-10-20T12:10:11.313791Z,1697803811313
8.42218017578125,8.410798072814941,-7.240575790405273,2023-10-20T12:10:11.334324Z,1697803811334
9.068718910217285,9.345355987548828,-8.028453826904297,2023-10-20T12:10:11.354049Z,1697803811354
9.635671615600586,10.17114543914795,-8.759414672851562,2023-10-20T12:10:11.374753Z,1697803811374
10.107090950012207,10.876712799072266,-9.422927856445312,2023-10-20T12:10:11.394968Z,1697803811394
10.461772918701172,11.451837539672852,-10.000709533691406,2023-10-20T12:10:11.415343Z,1697803811415
10.706568717956543,11.895389556884766,-10.469623565673828,2023-10-20T12:10:11.435395Z,1697803811435
10.868626594543457,12.22315788269043,-10.837143898010254,2023-10-20T12:10:11.458994Z,1697803811458
10.960890769958496,12.457731246948242,-11.109235763549805,2023-10-20T12:10:11.475699Z,1697803811475
10.996237754821777,12.624234199523926,-11.279069900512695,2023-10-20T12:10:11.495504Z,1697803811495
10.949355125427246,12.73184871673584,-11.32413387298584,2023-10-20T12:10:11.516658Z,1697803811516
10.815374374389648,12.769529342651367,-11.214576721191406,2023-10-20T12:10:11.536659Z,1697803811536
10.60007095336914,12.724075317382812,-10.932415008544922,2023-10-20T12:10:11.558547Z,1697803811558
10.311601638793945,12.590177536010742,-10.472996711730957,2023-10-20T12:10:11.577602Z,1697803811577
9.963665008544922,12.366067886352539,-9.845611572265625,2023-10-20T12:10:11.597292Z,1697803811597
9.584304809570312,12.042074203491211,-9.069786071777344,2023-10-20T12:10:11.617759Z,1697803811617
9.185224533081055,11.601190567016602,-8.168325424194336,2023-10-20T12:10:11.637494Z,1697803811637
8.758062362670898,11.030359268188477,-7.176755905151367,2023-10-20T12:10:11.658018Z,1697803811657
8.280982971191406,10.328981399536133,-6.142114639282227,2023-10-20T12:10:11.678570Z,1697803811678
7.745576858520508,9.512007713317871,-5.100141525268555,2023-10-20T12:10:11.698606Z,1697803811698
7.144811630249023,8.590956687927246,-4.078426837921143,2023-10-20T12:10:11.719094Z,1697803811719
6.501407623291016,7.593288421630859,-3.1076276302337646,2023-10-20T12:10:11.741801Z,1697803811741
5.854658126831055,6.570377349853516,-2.237555980682373,2023-10-20T12:10:11.759106Z,1697803811759
5.221225738525391,5.57394552230835,-1.5041959285736084,2023-10-20T12:10:11.779391Z,1697803811779
4.622531414031982,4.656217575073242,-0.9220395088195801,2023-10-20T12:10:11.800370Z,1697803811800
4.042624473571777,3.838069438934326,-0.4809223413467407,2023-10-20T12:10:11.820073Z,1697803811820
3.4981613159179688,3.129978656768799,-0.16491997241973877,2023-10-20T12:10:11.841616Z,1697803811841
3.0243759155273438,2.543351650238037,0.04976281523704529,2023-10-20T12:10:11.860889Z,1697803811860
2.649839401245117,2.08341121673584,0.19125288724899292,2023-10-20T12:10:11.881372Z,1697803811881
2.3845129013061523,1.742516040802002,0.27972471714019775,2023-10-20T12:10:11.901438Z,1697803811901
2.237959861755371,1.5111422538757324,0.3329305648803711,2023-10-20T12:10:11.921339Z,1697803811921
2.19071102142334,1.3627548217773438,0.35947442054748535,2023-10-20T12:10:11.941642Z,1697803811941
2.20894718170166,1.26491117477417,0.36743342876434326,2023-10-20T12:10:11.961774Z,1697803811961
2.2705163955688477,1.192638874053955,0.3610144853591919,2023-10-20T12:10:11.982051Z,1697803811982
2.3477230072021484,1.1219420433044434,0.33839166164398193,2023-10-20T12:10:12.002240Z,1697803812002
2.4547719955444336,1.0509929656982422,0.2997194528579712,2023-10-20T12:10:12.024739Z,1697803812024
2.5858993530273438,0.9786467552185059,0.2413959503173828,2023-10-20T12:10:12.043017Z,1697803812042
2.7278146743774414,0.9053192138671875,0.16166293621063232,2023-10-20T12:10:12.062860Z,1697803812062
2.8793344497680664,0.8343539237976074,0.0615728497505188,2023-10-20T12:10:12.083719Z,1697803812083
3.0386924743652344,0.7657995223999023,-0.054884716868400574,2023-10-20T12:10:12.103412Z,1697803812103
3.200425148010254,0.6989631652832031,-0.18394190073013306,2023-10-20T12:10:12.125253Z,1697803812125
3.3580379486083984,0.6335065364837646,-0.3212413787841797,2023-10-20T12:10:12.144576Z,1697803812144
3.5073776245117188,0.5696594715118408,-0.46403515338897705,2023-10-20T12:10:12.164791Z,1697803812164
3.6489248275756836,0.5087176561355591,-0.6089463233947754,2023-10-20T12:10:12.184885Z,1697803812184
3.7759952545166016,0.4509859085083008,-0.7516915798187256,2023-10-20T12:10:12.208084Z,1697803812208
3.878631591796875,0.3966487646102905,-0.8873691558837891,2023-10-20T12:10:12.225656Z,1697803812225
3.947416305541992,0.34488344192504883,-1.0104246139526367,2023-10-20T12:10:12.245882Z,1697803812245
3.9825334548950195,0.2943161129951477,-1.117220163345337,2023-10-20T12:10:12.266003Z,1697803812265
3.99300479888916,0.2443317174911499,-1.206665277481079,2023-10-20T12:10:12.286459Z,1697803812286
3.983102798461914,0.19516807794570923,-1.277480125427246,2023-10-20T12:10:12.307034Z,1697803812306
3.949923515319824,0.14899185299873352,-1.3272912502288818,2023-10-20T12:10:12.326902Z,1697803812326
3.8811206817626953,0.1101163923740387,-1.3511033058166504,2023-10-20T12:10:12.347232Z,1697803812347
3.7680931091308594,0.08360382914543152,-1.3464670181274414,2023-10-20T12:10:12.367892Z,1697803812367
3.612460136413574,0.07265540957450867,-1.3144636154174805,2023-10-20T12:10:12.387311Z,1697803812387
3.4204673767089844,0.07731577754020691,-1.257643461227417,2023-10-20T12:10:12.407722Z,1697803812407
3.199803352355957,0.0956876277923584,-1.1798532009124756,2023-10-20T12:10:12.428345Z,1697803812428
2.9531707763671875,0.12517058849334717,-1.0841317176818848,2023-10-20T12:10:12.449227Z,1697803812449
2.682917594909668,0.16234731674194336,-0.9744725227355957,2023-10-20T12:10:12.468820Z,1697803812468
2.393069267272949,0.20243531465530396,-0.8553495407104492,2023-10-20T12:10:12.491073Z,1697803812491
2.0927305221557617,0.23975098133087158,-0.73248291015625,2023-10-20T12:10:12.508860Z,1697803812508
1.7978029251098633,0.26902925968170166,-0.6130266189575195,2023-10-20T12:10:12.529761Z,1697803812529
1.5276374816894531,0.2874622344970703,-0.5045244693756104,2023-10-20T12:10:12.549859Z,1697803812549
1.2941064834594727,0.2949230670928955,-0.410938024520874,2023-10-20T12:10:12.569859Z,1697803812569
1.10003662109375,0.29344677925109863,-0.33318281173706055,2023-10-20T12:10:12.590905Z,1697803812590
0.9453344345092773,0.2869720458984375,-0.2708113193511963,2023-10-20T12:10:12.610421Z,1697803812610
0.8290863037109375,0.28010058403015137,-0.22264552116394043,2023-10-20T12:10:12.630660Z,1697803812630
0.7530021667480469,0.2782168388366699,-0.1876084804534912,2023-10-20T12:10:12.651178Z,1697803812651
0.7165079116821289,0.28557324409484863,-0.16348004341125488,2023-10-20T12:10:12.674189Z,1697803812674
0.717254638671875,0.304889440536499,-0.14739835262298584,2023-10-20T12:10:12.691233Z,1697803812691
0.7556791305541992,0.3391103744506836,-0.13690471649169922,2023-10-20T12:10:12.711729Z,1697803812711
0.8299112319946289,0.38942575454711914,-0.12887108325958252,2023-10-20T12:10:12.732301Z,1697803812732
0.9356021881103516,0.4550924301147461,-0.11990976333618164,2023-10-20T12:10:12.752712Z,1697803812752
1.0645465850830078,0.5328621864318848,-0.10671788454055786,2023-10-20T12:10:12.774079Z,1697803812774
1.2041339874267578,0.6166152954101562,-0.08641833066940308,2023-10-20T12:10:12.793188Z,1697803812793
1.3402671813964844,0.6984643936157227,-0.057409435510635376,2023-10-20T12:10:12.813292Z,1697803812813
1.459080696105957,0.7696099281311035,-0.019408106803894043,2023-10-20T12:10:12.833584Z,1697803812833
1.5495405197143555,0.822150707244873,0.026256024837493896,2023-10-20T12:10:12.857268Z,1697803812857
1.6030855178833008,0.849855899810791,0.07694005966186523,2023-10-20T12:10:12.874213Z,1697803812874
1.6145496368408203,0.8497743606567383,0.12889796495437622,2023-10-20T12:10:12.894121Z,1697803812894
1.5809698104858398,0.82159423828125,0.1776747703552246,2023-10-20T12:10:12.914830Z,1697803812914
1.5029678344726562,0.7679877281188965,0.21878468990325928,2023-10-20T12:10:12.934428Z,1697803812934
1.3856697082519531,0.693962574005127,0.24848294258117676,2023-10-20T12:10:12.957256Z,1697803812957
1.236968994140625,0.6056332588195801,0.2642505168914795,2023-10-20T12:10:12.975152Z,1697803812975
1.0657310485839844,0.5091571807861328,0.2647371292114258,2023-10-20T12:10:12.995401Z,1697803812995
0.8807544708251953,0.41031360626220703,0.2498033046722412,2023-10-20T12:10:13.015911Z,1697803813015
0.6890878677368164,0.31343960762023926,0.2198810577392578,2023-10-20T12:10:13.036157Z,1697803813036
0.49787235260009766,0.22178077697753906,0.17647051811218262,2023-10-20T12:10:13.057247Z,1697803813057
0.3137493133544922,0.13739943504333496,0.12208890914916992,2023-10-20T12:10:13.076966Z,1697803813076
0.14034557342529297,0.06063389778137207,0.05933785438537598,2023-10-20T12:10:13.097213Z,1697803813097
-0.022022247314453125,-0.009409427642822266,-0.01002955436706543,2023-10-20T12:10:13.117466Z,1697803813117
-0.1768474578857422,-0.07480001449584961,-0.0861504077911377,2023-10-20T12:10:13.140529Z,1697803813140
-0.32933616638183594,-0.13783597946166992,-0.1707620620727539,2023-10-20T12:10:13.157695Z,1697803813157
-0.4832444190979004,-0.1995396614074707,-0.2655057907104492,2023-10-20T12:10:13.178296Z,1697803813178
-0.6398191452026367,-0.2592487335205078,-0.370758056640625,2023-10-20T12:10:13.198739Z,1697803813198
-0.8000636100769043,-0.3157625198364258,-0.48628711700439453,2023-10-20T12:10:13.218730Z,1697803813218
-0.9638223648071289,-0.36742210388183594,-0.6107902526855469,2023-10-20T12:10:13.240253Z,1697803813240
-1.131762981414795,-0.41329073905944824,-0.7433910369873047,2023-10-20T12:10:13.258825Z,1697803813258
-1.3037457466125488,-0.4524967670440674,-0.8828225135803223,2023-10-20T12:10:13.279548Z,1697803813279
-1.4793009757995605,-0.48442792892456055,-1.0270533561706543,2023-10-20T12:10:13.299386Z,1697803813299
-1.656362533569336,-0.5082780122756958,-1.171860694885254,2023-10-20T12:10:13.319462Z,1697803813319
-1.8311758041381836,-0.5231630802154541,-1.310575008392334,2023-10-20T12:10:13.340579Z,1697803813340
-1.9994792938232422,-0.5290406942367554,-1.4350404739379883,2023-10-20T12:10:13.360284Z,1697803813360
-2.1563520431518555,-0.5277014970779419,-1.5370564460754395,2023-10-20T12:10:13.380894Z,1697803813380
-2.2976574897766113,-0.5224249362945557,-1.609436273574829,2023-10-20T12:10:13.401155Z,1697803813401
-2.417212963104248,-0.5161181688308716,-1.644127607345581,2023-10-20T12:10:13.423805Z,1697803813423
-2.5086426734924316,-0.5102862119674683,-1.633922815322876,2023-10-20T12:10:13.441677Z,1697803813441
-2.564897060394287,-0.5053473711013794,-1.5729646682739258,2023-10-20T12:10:13.461974Z,1697803813461
-2.5782108306884766,-0.5020098686218262,-1.4587600231170654,2023-10-20T12:10:13.482012Z,1697803813481
-2.5353798866271973,-0.5003277063369751,-1.2901744842529297,2023-10-20T12:10:13.502257Z,1697803813502
-2.420732021331787,-0.4971611499786377,-1.0735020637512207,2023-10-20T12:10:13.523291Z,1697803813523
-2.220940113067627,-0.48626434803009033,-0.8220438957214355,2023-10-20T12:10:13.542528Z,1697803813542
-1.9242815971374512,-0.45764005184173584,-0.5562717914581299,2023-10-20T12:10:13.563061Z,1697803813563
-1.5188822746276855,-0.3973219394683838,-0.30529069900512695,2023-10-20T12:10:13.583290Z,1697803813583
-1.0003232955932617,-0.29060983657836914,-0.10691934823989868,2023-10-20T12:10:13.606379Z,1697803813606
-0.37744998931884766,-0.12311911582946777,-0.003060571849346161,2023-10-20T12:10:13.624021Z,1697803813623
0.3370962142944336,0.12488365173339844,-0.03209400177001953,2023-10-20T12:10:13.644228Z,1697803813644
1.1451568603515625,0.48506689071655273,-0.23022866249084473,2023-10-20T12:10:13.664596Z,1697803813664
2.037896156311035,0.9859013557434082,-0.6194980144500732,2023-10-20T12:10:13.684888Z,1697803813684
2.979398727416992,1.6348724365234375,-1.1928365230560303,2023-10-20T12:10:13.706829Z,1697803813706
3.9213247299194336,2.421452522277832,-1.921030044555664,2023-10-20T12:10:13.725312Z,1697803813725
4.845989227294922,3.339284896850586,-2.7790474891662598,2023-10-20T12:10:13.745866Z,1697803813745
5.700970649719238,4.365362167358398,-3.7284326553344727,2023-10-20T12:10:13.765918Z,1697803813765
6.477537155151367,5.475393295288086,-4.719661235809326,2023-10-20T12:10:13.785915Z,1697803813785
7.171982288360596,6.62778902053833,-5.7097368240356445,2023-10-20T12:10:13.806794Z,1697803813806
7.805558681488037,7.775336265563965,-6.658724784851074,2023-10-20T12:10:13.826673Z,1697803813826
8.421747207641602,8.884038925170898,-7.552628517150879,2023-10-20T12:10:13.847187Z,1697803813847
8.997631072998047,9.925882339477539,-8.380050659179688,2023-10-20T12:10:13.867253Z,1697803813867
9.505171775817871,10.882824897766113,-9.153364181518555,2023-10-20T12:10:13.890210Z,1697803813890
9.936113357543945,11.741439819335938,-9.876570701599121,2023-10-20T12:10:13.907080Z,1697803813907
10.293716430664062,12.49078369140625,-10.536670684814453,2023-10-20T12:10:13.927762Z,1697803813927
10.566850662231445,13.116363525390625,-11.09968376159668,2023-10-20T12:10:13.947851Z,1697803813947
10.787177085876465,13.614879608154297,-11.540950775146484,2023-10-20T12:10:13.968329Z,1697803813968
10.943540573120117,13.990114212036133,-11.861698150634766,2023-10-20T12:10:13.989395Z,1697803813989
11.036059379577637,14.258523941040039,-12.056903839111328,2023-10-20T12:10:14.008997Z,1697803814008
11.05577278137207,14.440349578857422,-12.132566452026367,2023-10-20T12:10:14.029558Z,1697803814029
10.974674224853516,14.535985946655273,-12.06359577178955,2023-10-20T12:10:14.049363Z,1697803814049
10.811901092529297,14.534494400024414,-11.833657264709473,2023-10-20T12:10:14.073182Z,1697803814073
10.577796936035156,14.426679611206055,-11.43324089050293,2023-10-20T12:10:14.090061Z,1697803814090
10.27765941619873,14.207457542419434,-10.863941192626953,2023-10-20T12:10:14.110196Z,1697803814110
9.935515403747559,13.870527267456055,-10.143584251403809,2023-10-20T12:10:14.130439Z,1697803814130
9.572481155395508,13.402321815490723,-9.291508674621582,2023-10-20T12:10:14.150478Z,1697803814150
9.188089370727539,12.791626930236816,-8.339089393615723,2023-10-20T12:10:14.173011Z,1697803814172
8.768945693969727,12.042957305908203,-7.338247776031494,2023-10-20T12:10:14.191233Z,1697803814191
8.307777404785156,11.175737380981445,-6.326735496520996,2023-10-20T12:10:14.211088Z,1697803814211
7.814810276031494,10.213172912597656,-5.328886985778809,2023-10-20T12:10:14.232245Z,1697803814232
7.2860426902771,9.171300888061523,-4.357736110687256,2023-10-20T12:10:14.251762Z,1697803814251
6.763711929321289,8.083330154418945,-3.4388675689697266,2023-10-20T12:10:14.273608Z,1697803814273
6.254812240600586,6.991233825683594,-2.6140406131744385,2023-10-20T12:10:14.292808Z,1697803814292
5.771747589111328,5.949972152709961,-1.9063308238983154,2023-10-20T12:10:14.313107Z,1697803814313
5.311366081237793,5.006284236907959,-1.3287022113800049,2023-10-20T12:10:14.333341Z,1697803814333
4.852241516113281,4.177711486816406,-0.8706738948822021,2023-10-20T12:10:14.356784Z,1697803814356
4.4357147216796875,3.480987071990967,-0.5191041231155396,2023-10-20T12:10:14.374131Z,1697803814374
4.107872009277344,2.9245529174804688,-0.2494267225265503,2023-10-20T12:10:14.393838Z,1697803814393
3.8865509033203125,2.49807071685791,-0.04121999442577362,2023-10-20T12:10:14.414143Z,1697803814414
3.764662742614746,2.1770315170288086,0.11778029799461365,2023-10-20T12:10:14.434888Z,1697803814434
3.7387704849243164,1.9400529861450195,0.2317516803741455,2023-10-20T12:10:14.456613Z,1697803814456
3.7465248107910156,1.7494935989379883,0.3010745048522949,2023-10-20T12:10:14.474641Z,1697803814474
3.774646759033203,1.588637113571167,0.335247278213501,2023-10-20T12:10:14.495166Z,1697803814495
3.793203353881836,1.4356601238250732,0.33700621128082275,2023-10-20T12:10:14.515455Z,1697803814515
3.7923946380615234,1.278052568435669,0.3134053945541382,2023-10-20T12:10:14.535588Z,1697803814535
3.795988082885742,1.1176512241363525,0.2649543285369873,2023-10-20T12:10:14.556078Z,1697803814556
3.782353401184082,0.9532995223999023,0.19340330362319946,2023-10-20T12:10:14.576484Z,1697803814576
3.745553970336914,0.7888133525848389,0.10337325930595398,2023-10-20T12:10:14.596245Z,1697803814596
3.699230194091797,0.6298699378967285,0.001456012949347496,2023-10-20T12:10:14.616394Z,1697803814616
3.648003578186035,0.4804964065551758,-0.10528832674026489,2023-10-20T12:10:14.639238Z,1697803814639
3.5955066680908203,0.3448984622955322,-0.2122848629951477,2023-10-20T12:10:14.657428Z,1697803814657
3.5432968139648438,0.22632712125778198,-0.31795310974121094,2023-10-20T12:10:14.677543Z,1697803814677
3.4921226501464844,0.12571674585342407,-0.4218876361846924,2023-10-20T12:10:14.697788Z,1697803814697
3.448174476623535,0.04234284907579422,-0.5259935855865479,2023-10-20T12:10:14.717694Z,1697803814717
3.4177322387695312,-0.024962566792964935,-0.6311352252960205,2023-10-20T12:10:14.739124Z,1697803814739
3.400789260864258,-0.0774373710155487,-0.7359938621520996,2023-10-20T12:10:14.758759Z,1697803814758
3.390727996826172,-0.11619094014167786,-0.8376905918121338,2023-10-20T12:10:14.778890Z,1697803814778
3.3791370391845703,-0.14187803864479065,-0.9326610565185547,2023-10-20T12:10:14.799094Z,1697803814799
3.360661506652832,-0.15512466430664062,-1.017482042312622,2023-10-20T12:10:14.822615Z,1697803814822
3.3289060592651367,-0.15731027722358704,-1.0877609252929688,2023-10-20T12:10:14.839652Z,1697803814839
3.2769079208374023,-0.15085160732269287,-1.1379311084747314,2023-10-20T12:10:14.860166Z,1697803814860
3.1959228515625,-0.1383698582649231,-1.161707878112793,2023-10-20T12:10:14.880426Z,1697803814880
3.0758285522460938,-0.12137055397033691,-1.1530771255493164,2023-10-20T12:10:14.900234Z,1697803814900
2.9101638793945312,-0.09987863898277283,-1.1092338562011719,2023-10-20T12:10:14.922679Z,1697803814922
2.6976146697998047,-0.07339373230934143,-1.0314552783966064,2023-10-20T12:10:14.940891Z,1697803814940
2.4416275024414062,-0.0425490140914917,-0.9251203536987305,2023-10-20T12:10:14.960804Z,1697803814960
2.1515235900878906,-0.009272590279579163,-0.7987055778503418,2023-10-20T12:10:14.981762Z,1697803814981
1.8381099700927734,0.023043647408485413,-0.6614997386932373,2023-10-20T12:10:15.001901Z,1697803815001
1.5142107009887695,0.05030745267868042,-0.5228655338287354,2023-10-20T12:10:15.022304Z,1697803815022
1.1995840072631836,0.06913119554519653,-0.3932991027832031,2023-10-20T12:10:15.042356Z,1697803815042
0.9141874313354492,0.07817977666854858,-0.2815277576446533,2023-10-20T12:10:15.062122Z,1697803815062
0.6774387359619141,0.07892477512359619,-0.19384479522705078,2023-10-20T12:10:15.082551Z,1697803815082
0.5034656524658203,0.0754539966583252,-0.13238763809204102,2023-10-20T12:10:15.105917Z,1697803815105
0.3989992141723633,0.07362794876098633,-0.09522318840026855,2023-10-20T12:10:15.122870Z,1697803815122
0.3658437728881836,0.08018350601196289,-0.07814788818359375,2023-10-20T12:10:15.143334Z,1697803815143
0.4008045196533203,0.10126662254333496,-0.0752800703048706,2023-10-20T12:10:15.163894Z,1697803815163
0.49405384063720703,0.14032554626464844,-0.07961618900299072,2023-10-20T12:10:15.184007Z,1697803815183
0.6334428787231445,0.19807028770446777,-0.08448219299316406,2023-10-20T12:10:15.205942Z,1697803815205
0.8054904937744141,0.2725067138671875,-0.08422064781188965,2023-10-20T12:10:15.224611Z,1697803815224
0.9965057373046875,0.3597116470336914,-0.07496422529220581,2023-10-20T12:10:15.244915Z,1697803815244
1.1939916610717773,0.4547901153564453,-0.05506300926208496,2023-10-20T12:10:15.265247Z,1697803815265
1.3842735290527344,0.5515742301940918,-0.02432917058467865,2023-10-20T12:10:15.289571Z,1697803815289
1.554459571838379,0.6436445713043213,0.016051143407821655,2023-10-20T12:10:15.305248Z,1697803815305
1.6941871643066406,0.7252821922302246,0.06365233659744263,2023-10-20T12:10:15.326054Z,1697803815325
1.7974014282226562,0.7923552989959717,0.11519050598144531,2023-10-20T12:10:15.346441Z,1697803815346
1.8625564575195312,0.8426904678344727,0.16672277450561523,2023-10-20T12:10:15.366309Z,1697803815366
1.8925657272338867,0.8766365051269531,0.2145782709121704,2023-10-20T12:10:15.389102Z,1697803815389
1.890878677368164,0.8950366973876953,0.25623178482055664,2023-10-20T12:10:15.406364Z,1697803815406
1.8616743087768555,0.8990802764892578,0.2906506061553955,2023-10-20T12:10:15.426816Z,1697803815426
1.8081207275390625,0.8892302513122559,0.3180510997772217,2023-10-20T12:10:15.447777Z,1697803815447
1.7338600158691406,0.8663058280944824,0.3389706611633301,2023-10-20T12:10:15.467568Z,1697803815467
1.6443958282470703,0.8323588371276855,0.354020357131958,2023-10-20T12:10:15.489170Z,1697803815489
1.5449943542480469,0.7896232604980469,0.3637354373931885,2023-10-20T12:10:15.507912Z,1697803815507
1.4404020309448242,0.7403264045715332,0.36870312690734863,2023-10-20T12:10:15.528631Z,1697803815528
1.3304939270019531,0.6849093437194824,0.3688638210296631,2023-10-20T12:10:15.549145Z,1697803815549
1.2122697830200195,0.6226229667663574,0.3632829189300537,2023-10-20T12:10:15.572541Z,1697803815572
1.0816097259521484,0.5522522926330566,0.35018134117126465,2023-10-20T12:10:15.589395Z,1697803815589
0.9353713989257812,0.4730367660522461,0.32706212997436523,2023-10-20T12:10:15.609540Z,1697803815609
0.7716064453125,0.38497209548950195,0.2909986972808838,2023-10-20T12:10:15.629943Z,1697803815629
0.5882339477539062,0.28826475143432617,0.23869895935058594,2023-10-20T12:10:15.649961Z,1697803815649
0.3839559555053711,0.18390226364135742,0.16717004776000977,2023-10-20T12:10:15.672232Z,1697803815672
0.159332275390625,0.07417821884155273,0.07420110702514648,2023-10-20T12:10:15.690442Z,1697803815690
-0.08335494995117188,-0.03749275207519531,-0.04140615463256836,2023-10-20T12:10:15.710778Z,1697803815710
-0.3410191535949707,-0.1472475528717041,-0.18043947219848633,2023-10-20T12:10:15.731222Z,1697803815731
-0.608400821685791,-0.25026798248291016,-0.3430643081665039,2023-10-20T12:10:15.751030Z,1697803815750
-0.8778519630432129,-0.340604305267334,-0.5289721488952637,2023-10-20T12:10:15.772189Z,1697803815772
-1.1391348838806152,-0.41114330291748047,-0.7362575531005859,2023-10-20T12:10:15.792251Z,1697803815792
-1.3804359436035156,-0.4546229839324951,-0.9606337547302246,2023-10-20T12:10:15.812330Z,1697803815812
-1.5901875495910645,-0.46554458141326904,-1.195645809173584,2023-10-20T12:10:15.832993Z,1697803815832
-1.7579054832458496,-0.44198524951934814,-1.432114601135254,2023-10-20T12:10:15.855176Z,1697803815855
-1.8773846626281738,-0.38678085803985596,-1.6605124473571777,2023-10-20T12:10:15.873236Z,1697803815873
-1.9479889869689941,-0.3065062165260315,-1.8727855682373047,2023-10-20T12:10:15.893337Z,1697803815893
-1.9744443893432617,-0.20988380908966064,-2.0623369216918945,2023-10-20T12:10:15.914052Z,1697803815914
-1.9657535552978516,-0.10617554187774658,-2.224167823791504,2023-10-20T12:10:15.933896Z,1697803815933
-1.9335713386535645,-0.004170372150838375,-2.355501174926758,2023-10-20T12:10:15.955025Z,1697803815954
-1.8904976844787598,0.0890418291091919,-2.4575772285461426,2023-10-20T12:10:15.974353Z,1697803815974
-1.8482015132904053,0.16888728737831116,-2.536965847015381,2023-10-20T12:10:15.994449Z,1697803815994
-1.8157165050506592,0.23259267210960388,-2.6018824577331543,2023-10-20T12:10:16.014486Z,1697803816014
-1.7990500926971436,0.27887457609176636,-2.658696174621582,2023-10-20T12:10:16.034635Z,1697803816034
-1.8009467124938965,0.30796241760253906,-2.7086668014526367,2023-10-20T12:10:16.055187Z,1697803816055
-1.822535514831543,0.3204460144042969,-2.7502102851867676,2023-10-20T12:10:16.075681Z,1697803816075
-1.8630328178405762,0.31666016578674316,-2.779829502105713,2023-10-20T12:10:16.096249Z,1697803816096
-1.9190831184387207,0.29671144485473633,-2.791431427001953,2023-10-20T12:10:16.116322Z,1697803816116
-1.9855926036834717,0.2613808512687683,-2.7775797843933105,2023-10-20T12:10:16.138433Z,1697803816138
-2.056469202041626,0.2119707465171814,-2.731128215789795,2023-10-20T12:10:16.156949Z,1697803816156
-2.125568389892578,0.1502743661403656,-2.646516799926758,2023-10-20T12:10:16.177068Z,1697803816177
-2.1854796409606934,0.07843567430973053,-2.5173277854919434,2023-10-20T12:10:16.197339Z,1697803816197
-2.2266387939453125,9.516444988548756E-4,-2.3376221656799316,2023-10-20T12:10:16.217786Z,1697803816217
-2.2371773719787598,-0.07668747007846832,-2.1038026809692383,2023-10-20T12:10:16.238571Z,1697803816238
-2.204174041748047,-0.14921453595161438,-1.8206310272216797,2023-10-20T12:10:16.258369Z,1697803816258
-2.1143932342529297,-0.21150833368301392,-1.4996399879455566,2023-10-20T12:10:16.278614Z,1697803816278
-1.9553718566894531,-0.2578617334365845,-1.1553244590759277,2023-10-20T12:10:16.298679Z,1697803816298
-1.7085847854614258,-0.279644250869751,-0.8034994602203369,2023-10-20T12:10:16.321986Z,1697803816321
-1.3456292152404785,-0.2634207010269165,-0.46793675422668457,2023-10-20T12:10:16.339038Z,1697803816338
-0.8529911041259766,-0.19619154930114746,-0.1920548677444458,2023-10-20T12:10:16.358980Z,1697803816358
-0.23862934112548828,-0.06421589851379395,-0.024758517742156982,2023-10-20T12:10:16.379982Z,1697803816379
0.4833717346191406,0.15250015258789062,-0.008206486701965332,2023-10-20T12:10:16.399938Z,1697803816399
1.3134374618530273,0.4854874610900879,-0.17807650566101074,2023-10-20T12:10:16.421899Z,1697803816421
2.2287111282348633,0.9590730667114258,-0.5513219833374023,2023-10-20T12:10:16.440227Z,1697803816440
3.172616958618164,1.574690818786621,-1.11234450340271,2023-10-20T12:10:16.460756Z,1697803816460
4.102960109710693,2.324073314666748,-1.8263189792633057,2023-10-20T12:10:16.481131Z,1697803816481
4.991446018218994,3.1957454681396484,-2.660828113555908,2023-10-20T12:10:16.501030Z,1697803816500
5.797937393188477,4.164159774780273,-3.5704240798950195,2023-10-20T12:10:16.521755Z,1697803816521
6.511770248413086,5.196433067321777,-4.5034050941467285,2023-10-20T12:10:16.541580Z,1697803816541
7.125080108642578,6.241973400115967,-5.414401531219482,2023-10-20T12:10:16.561889Z,1697803816561
7.681577682495117,7.253363609313965,-6.275632858276367,2023-10-20T12:10:16.582131Z,1697803816582
8.214503288269043,8.201946258544922,-7.072351932525635,2023-10-20T12:10:16.604949Z,1697803816604
8.709474563598633,9.06623363494873,-7.8031463623046875,2023-10-20T12:10:16.622668Z,1697803816622
9.160008430480957,9.839616775512695,-8.493243217468262,2023-10-20T12:10:16.642910Z,1697803816642
9.570791244506836,10.52412223815918,-9.150323867797852,2023-10-20T12:10:16.663469Z,1697803816663
9.933598518371582,11.120010375976562,-9.760671615600586,2023-10-20T12:10:16.683412Z,1697803816683
10.236740112304688,11.62199878692627,-10.285544395446777,2023-10-20T12:10:16.704908Z,1697803816704
10.484346389770508,12.03061580657959,-10.70051383972168,2023-10-20T12:10:16.723731Z,1697803816723
10.657642364501953,12.350286483764648,-10.99777889251709,2023-10-20T12:10:16.744284Z,1697803816744
10.768513679504395,12.601112365722656,-11.173639297485352,2023-10-20T12:10:16.764729Z,1697803816764
10.796590805053711,12.803019523620605,-11.222630500793457,2023-10-20T12:10:16.787720Z,1697803816787
10.72762680053711,12.945310592651367,-11.123727798461914,2023-10-20T12:10:16.805048Z,1697803816805
10.567909240722656,13.011926651000977,-10.859516143798828,2023-10-20T12:10:16.825583Z,1697803816825
10.307491302490234,12.986918449401855,-10.419109344482422,2023-10-20T12:10:16.845788Z,1697803816845
9.959421157836914,12.852429389953613,-9.809250831604004,2023-10-20T12:10:16.865991Z,1697803816865
9.561406135559082,12.590251922607422,-9.05352783203125,2023-10-20T12:10:16.887786Z,1697803816887
9.146777153015137,12.179826736450195,-8.175386428833008,2023-10-20T12:10:16.906068Z,1697803816906
8.721961975097656,11.615446090698242,-7.2169084548950195,2023-10-20T12:10:16.926629Z,1697803816926
8.284320831298828,10.915193557739258,-6.239899635314941,2023-10-20T12:10:16.946859Z,1697803816946
7.839795112609863,10.106934547424316,-5.284531593322754,2023-10-20T12:10:16.967052Z,1697803816967
7.389705657958984,9.214557647705078,-4.373932838439941,2023-10-20T12:10:16.987569Z,1697803816987
6.938338279724121,8.258127212524414,-3.513033390045166,2023-10-20T12:10:17.007483Z,1697803817007
6.510011672973633,7.276247024536133,-2.7232120037078857,2023-10-20T12:10:17.027968Z,1697803817027
6.109841823577881,6.317425727844238,-2.0324928760528564,2023-10-20T12:10:17.048414Z,1697803817048
5.753694534301758,5.441537857055664,-1.4556682109832764,2023-10-20T12:10:17.071131Z,1697803817071
5.41555118560791,4.681984901428223,-0.9902963638305664,2023-10-20T12:10:17.088201Z,1697803817088
5.077392578125,4.039238929748535,-0.6231546401977539,2023-10-20T12:10:17.108922Z,1697803817108
4.7661848068237305,3.515068531036377,-0.3353474736213684,2023-10-20T12:10:17.129192Z,1697803817129
4.50018310546875,3.102773666381836,-0.100300133228302,2023-10-20T12:10:17.149720Z,1697803817149
4.277074813842773,2.7833709716796875,0.09333354234695435,2023-10-20T12:10:17.171061Z,1697803817171
4.099163055419922,2.538870334625244,0.24703317880630493,2023-10-20T12:10:17.189969Z,1697803817189
3.96063232421875,2.351569175720215,0.35350584983825684,2023-10-20T12:10:17.210053Z,1697803817210
3.835538864135742,2.1996355056762695,0.41039323806762695,2023-10-20T12:10:17.230989Z,1697803817230
3.726588249206543,2.0729007720947266,0.4248330593109131,2023-10-20T12:10:17.254417Z,1697803817254
3.607686996459961,1.9480080604553223,0.40086305141448975,2023-10-20T12:10:17.271285Z,1697803817271
3.495551109313965,1.8174796104431152,0.3464808464050293,2023-10-20T12:10:17.291282Z,1697803817291
3.406466484069824,1.6879844665527344,0.26655030250549316,2023-10-20T12:10:17.311360Z,1697803817311
3.3349056243896484,1.5623340606689453,0.165368914604187,2023-10-20T12:10:17.331882Z,1697803817331
3.293394088745117,1.447443962097168,0.048454493284225464,2023-10-20T12:10:17.354158Z,1697803817354
3.290045738220215,1.3475086688995361,-0.07865315675735474,2023-10-20T12:10:17.372547Z,1697803817372
3.317723274230957,1.2626252174377441,-0.2106497883796692,2023-10-20T12:10:17.393315Z,1697803817393
3.36307430267334,1.192317008972168,-0.3444192409515381,2023-10-20T12:10:17.412778Z,1697803817412
3.41202449798584,1.1337990760803223,-0.4763650894165039,2023-10-20T12:10:17.432975Z,1697803817432
3.4512739181518555,1.081272840499878,-0.6023085117340088,2023-10-20T12:10:17.454276Z,1697803817454
3.4744796752929688,1.0308809280395508,-0.718926191329956,2023-10-20T12:10:17.473918Z,1697803817473
3.476797103881836,0.9812476634979248,-0.8240482807159424,2023-10-20T12:10:17.493991Z,1697803817493
3.457859992980957,0.9327948093414307,-0.91689133644104,2023-10-20T12:10:17.513992Z,1697803817513
3.421738624572754,0.8862826824188232,-0.9978563785552979,2023-10-20T12:10:17.537911Z,1697803817537
3.373621940612793,0.8420155048370361,-1.0677878856658936,2023-10-20T12:10:17.554768Z,1697803817554
3.31826114654541,0.7999560832977295,-1.1273260116577148,2023-10-20T12:10:17.575214Z,1697803817575
3.260519027709961,0.7601284980773926,-1.177530288696289,2023-10-20T12:10:17.595736Z,1697803817595
3.2064027786254883,0.7226498126983643,-1.2202951908111572,2023-10-20T12:10:17.615758Z,1697803817615
3.1602373123168945,0.6875782012939453,-1.257153034210205,2023-10-20T12:10:17.637702Z,1697803817637
3.12247371673584,0.654557466506958,-1.2875659465789795,2023-10-20T12:10:17.656306Z,1697803817656
3.0883169174194336,0.6229205131530762,-1.308609962463379,2023-10-20T12:10:17.676617Z,1697803817676
3.0495080947875977,0.5924105644226074,-1.3160731792449951,2023-10-20T12:10:17.696818Z,1697803817696
2.9981422424316406,0.5631000995635986,-1.307185411453247,2023-10-20T12:10:17.716834Z,1697803817716
2.92989444732666,0.5352268218994141,-1.2810170650482178,2023-10-20T12:10:17.737537Z,1697803817737
2.841128349304199,0.5085898637771606,-1.237624168395996,2023-10-20T12:10:17.757655Z,1697803817757
2.7286996841430664,0.48282182216644287,-1.1774935722351074,2023-10-20T12:10:17.777893Z,1697803817777
2.5901527404785156,0.4574267864227295,-1.1019096374511719,2023-10-20T12:10:17.797929Z,1697803817797
2.426118850708008,0.43215084075927734,-1.0133867263793945,2023-10-20T12:10:17.820732Z,1697803817820
2.2395286560058594,0.40663647651672363,-0.9150385856628418,2023-10-20T12:10:17.838378Z,1697803817838
2.0369176864624023,0.3808104991912842,-0.8113791942596436,2023-10-20T12:10:17.858747Z,1697803817858
1.8278779983520508,0.35496580600738525,-0.7075533866882324,2023-10-20T12:10:17.879200Z,1697803817879
1.6243362426757812,0.3295929431915283,-0.6089107990264893,2023-10-20T12:10:17.899200Z,1697803817899
1.4393577575683594,0.30623412132263184,-0.5200719833374023,2023-10-20T12:10:17.920806Z,1697803817920
1.2807369232177734,0.2864372730255127,-0.44327473640441895,2023-10-20T12:10:17.940205Z,1697803817940
1.1542778015136719,0.2720460891723633,-0.3795187473297119,2023-10-20T12:10:17.960228Z,1697803817960
1.0612220764160156,0.2641267776489258,-0.32799768447875977,2023-10-20T12:10:17.980731Z,1697803817980
1.0005989074707031,0.26314496994018555,-0.28665900230407715,2023-10-20T12:10:18.003859Z,1697803818003
0.9690866470336914,0.2688570022583008,-0.25251030921936035,2023-10-20T12:10:18.021034Z,1697803818020
0.9627971649169922,0.280916690826416,-0.22257089614868164,2023-10-20T12:10:18.041037Z,1697803818040
0.9769210815429688,0.298769474029541,-0.19385218620300293,2023-10-20T12:10:18.061365Z,1697803818061
1.0059070587158203,0.3215179443359375,-0.16377019882202148,2023-10-20T12:10:18.081611Z,1697803818081
1.0422067642211914,0.3473224639892578,-0.1300588846206665,2023-10-20T12:10:18.103813Z,1697803818103
1.074202537536621,0.37223005294799805,-0.09098368883132935,2023-10-20T12:10:18.122099Z,1697803818122
1.0913991928100586,0.3918180465698242,-0.04660800099372864,2023-10-20T12:10:18.142625Z,1697803818142
1.0860223770141602,0.4021470546722412,0.0010821344330906868,2023-10-20T12:10:18.162744Z,1697803818162
1.0574865341186523,0.40193843841552734,0.04882466793060303,2023-10-20T12:10:18.182944Z,1697803818182
1.0085201263427734,0.3916471004486084,0.09314483404159546,2023-10-20T12:10:18.203578Z,1697803818203
0.9430751800537109,0.37285900115966797,0.13124608993530273,2023-10-20T12:10:18.223689Z,1697803818223
0.8638591766357422,0.34697532653808594,0.16100800037384033,2023-10-20T12:10:18.244260Z,1697803818244
0.7758970260620117,0.31615185737609863,0.18146610260009766,2023-10-20T12:10:18.264251Z,1697803818264
0.6861743927001953,0.28317856788635254,0.19323420524597168,2023-10-20T12:10:18.286619Z,1697803818286
0.6017799377441406,0.251004695892334,0.1983344554901123,2023-10-20T12:10:18.304263Z,1697803818304
0.528172492980957,0.22215557098388672,0.19955873489379883,2023-10-20T12:10:18.325008Z,1697803818324
0.4684000015258789,0.1982402801513672,0.19968366622924805,2023-10-20T12:10:18.345279Z,1697803818345
0.42425060272216797,0.1803443431854248,0.20147442817687988,2023-10-20T12:10:18.365112Z,1697803818365
0.39577484130859375,0.16873526573181152,0.20701837539672852,2023-10-20T12:10:18.386763Z,1697803818386
0.3804054260253906,0.16254162788391113,0.2169632911682129,2023-10-20T12:10:18.406290Z,1697803818406
0.3698844909667969,0.15836858749389648,0.22806787490844727,2023-10-20T12:10:18.426352Z,1697803818426
0.35561418533325195,0.15251708030700684,0.2353663444519043,2023-10-20T12:10:18.446839Z,1697803818446
0.32869434356689453,0.14106535911560059,0.2321157455444336,2023-10-20T12:10:18.466596Z,1697803818466
0.28315162658691406,0.12139105796813965,0.21212291717529297,2023-10-20T12:10:18.486805Z,1697803818486
0.21435928344726562,0.09156560897827148,0.16935300827026367,2023-10-20T12:10:18.507136Z,1697803818507
0.11757850646972656,0.04988527297973633,0.09738492965698242,2023-10-20T12:10:18.527947Z,1697803818527
-0.010173320770263672,-0.0042705535888671875,-0.008784770965576172,2023-10-20T12:10:18.547883Z,1697803818547
-0.16971111297607422,-0.07014250755310059,-0.15208053588867188,2023-10-20T12:10:18.570158Z,1697803818570
-0.35855913162231445,-0.1451411247253418,-0.33222484588623047,2023-10-20T12:10:18.588246Z,1697803818588
-0.5702290534973145,-0.22448372840881348,-0.5448346138000488,2023-10-20T12:10:18.608644Z,1697803818608
-0.793668270111084,-0.30087876319885254,-0.77984619140625,2023-10-20T12:10:18.628948Z,1697803818628
-1.0159363746643066,-0.3657388687133789,-1.0228924751281738,2023-10-20T12:10:18.649161Z,1697803818649
-1.2258491516113281,-0.4115840196609497,-1.2589941024780273,2023-10-20T12:10:18.670072Z,1697803818670
-1.4163389205932617,-0.434078574180603,-1.4763460159301758,2023-10-20T12:10:18.689810Z,1697803818689
-1.583643913269043,-0.43339645862579346,-1.6670618057250977,2023-10-20T12:10:18.709812Z,1697803818709
-1.724381923675537,-0.4131143093109131,-1.8235087394714355,2023-10-20T12:10:18.730295Z,1697803818730
-1.8361048698425293,-0.38027870655059814,-1.9387845993041992,2023-10-20T12:10:18.753623Z,1697803818753
-1.917686939239502,-0.3423216938972473,-2.00778865814209,2023-10-20T12:10:18.770522Z,1697803818770
-1.9709968566894531,-0.30589544773101807,-2.029092788696289,2023-10-20T12:10:18.790816Z,1697803818790
-2.000936985015869,-0.2758749723434448,-2.0047831535339355,2023-10-20T12:10:18.811327Z,1697803818811
-2.01334285736084,-0.25617390871047974,-1.939713478088379,2023-10-20T12:10:18.831652Z,1697803818831
-2.0145492553710938,-0.24990719556808472,-1.8418951034545898,2023-10-20T12:10:18.853405Z,1697803818853
-2.0097150802612305,-0.25878238677978516,-1.717606544494629,2023-10-20T12:10:18.872337Z,1697803818872
-1.9983863830566406,-0.2818670868873596,-1.5687708854675293,2023-10-20T12:10:18.892636Z,1697803818892
-1.9749608039855957,-0.3149264454841614,-1.3938345909118652,2023-10-20T12:10:18.912444Z,1697803818912
-1.9299721717834473,-0.35207176208496094,-1.1904120445251465,2023-10-20T12:10:18.936755Z,1697803818936
-1.84944486618042,-0.3854111433029175,-0.957582950592041,2023-10-20T12:10:18.954423Z,1697803818954
-1.707766056060791,-0.4036329984664917,-0.6989383697509766,2023-10-20T12:10:18.973449Z,1697803818973
-1.477797031402588,-0.3942077159881592,-0.4345095157623291,2023-10-20T12:10:18.993520Z,1697803818993
-1.1419219970703125,-0.3452901840209961,-0.19988644123077393,2023-10-20T12:10:19.013781Z,1697803819013
-0.6888742446899414,-0.23890185356140137,-0.03675231337547302,2023-10-20T12:10:19.036740Z,1697803819036
-0.09790420532226562,-0.03934597969055176,0.0069882869720458984,2023-10-20T12:10:19.054249Z,1697803819054
0.6398105621337891,0.2984790802001953,-0.12497031688690186,2023-10-20T12:10:19.074758Z,1697803819074
1.4960393905639648,0.8031125068664551,-0.46901869773864746,2023-10-20T12:10:19.095004Z,1697803819094
2.415379524230957,1.473839282989502,-1.0239908695220947,2023-10-20T12:10:19.115253Z,1697803819115
3.3345813751220703,2.2919411659240723,-1.7594895362854004,2023-10-20T12:10:19.136594Z,1697803819136
4.206817150115967,3.2312631607055664,-2.628404140472412,2023-10-20T12:10:19.155777Z,1697803819155
4.997524261474609,4.26041316986084,-3.5644350051879883,2023-10-20T12:10:19.175449Z,1697803819175
5.705036163330078,5.3379974365234375,-4.507891654968262,2023-10-20T12:10:19.196596Z,1697803819196
6.355039596557617,6.4235148429870605,-5.431081295013428,2023-10-20T12:10:19.219400Z,1697803819219
6.955021381378174,7.473710060119629,-6.316244602203369,2023-10-20T12:10:19.236813Z,1697803819236
7.501446723937988,8.449117660522461,-7.143453598022461,2023-10-20T12:10:19.257387Z,1697803819257
7.982363224029541,9.32097053527832,-7.910133361816406,2023-10-20T12:10:19.277414Z,1697803819277
8.383532524108887,10.073110580444336,-8.617037773132324,2023-10-20T12:10:19.297913Z,1697803819297
8.706809997558594,10.70259952545166,-9.250249862670898,2023-10-20T12:10:19.319473Z,1697803819319
8.969633102416992,11.210756301879883,-9.789804458618164,2023-10-20T12:10:19.337912Z,1697803819337
9.17769718170166,11.605155944824219,-10.219888687133789,2023-10-20T12:10:19.358247Z,1697803819358
9.336453437805176,11.892309188842773,-10.547571182250977,2023-10-20T12:10:19.378317Z,1697803819378
9.440767288208008,12.094514846801758,-10.782350540161133,2023-10-20T12:10:19.398740Z,1697803819398
9.479336738586426,12.227100372314453,-10.904499053955078,2023-10-20T12:10:19.419514Z,1697803819419
9.45785140991211,12.293011665344238,-10.88767147064209,2023-10-20T12:10:19.439535Z,1697803819439
9.372684478759766,12.285381317138672,-10.710735321044922,2023-10-20T12:10:19.459795Z,1697803819459
9.217792510986328,12.200565338134766,-10.36717414855957,2023-10-20T12:10:19.480119Z,1697803819480
8.998645782470703,12.040075302124023,-9.865863800048828,2023-10-20T12:10:19.502736Z,1697803819502
8.731443405151367,11.790786743164062,-9.223569869995117,2023-10-20T12:10:19.520325Z,1697803819520
8.436954498291016,11.42542552947998,-8.455911636352539,2023-10-20T12:10:19.540762Z,1697803819540
8.12287712097168,10.922914505004883,-7.58223295211792,2023-10-20T12:10:19.561097Z,1697803819561
7.778979301452637,10.283269882202148,-6.645694255828857,2023-10-20T12:10:19.581818Z,1697803819581
7.38698673248291,9.52587604522705,-5.686145305633545,2023-10-20T12:10:19.602295Z,1697803819602
6.94325065612793,8.67010498046875,-4.728313446044922,2023-10-20T12:10:19.621244Z,1697803819621
6.4706573486328125,7.736879348754883,-3.7969417572021484,2023-10-20T12:10:19.642327Z,1697803819642
5.992142200469971,6.766436576843262,-2.930596351623535,2023-10-20T12:10:19.662688Z,1697803819662
5.530734062194824,5.806113243103027,-2.177421808242798,2023-10-20T12:10:19.684553Z,1697803819684
5.091274738311768,4.907766342163086,-1.5614287853240967,2023-10-20T12:10:19.702592Z,1697803819702
4.666721343994141,4.103102684020996,-1.0712392330169678,2023-10-20T12:10:19.723008Z,1697803819722
4.2708587646484375,3.4130983352661133,-0.6899434328079224,2023-10-20T12:10:19.743537Z,1697803819743
3.924945831298828,2.8473901748657227,-0.4047973155975342,2023-10-20T12:10:19.763603Z,1697803819763
3.6558876037597656,2.40777587890625,-0.19605106115341187,2023-10-20T12:10:19.785537Z,1697803819785
3.4861087799072266,2.085573673248291,-0.04439006745815277,2023-10-20T12:10:19.804265Z,1697803819804
3.408283233642578,1.8567352294921875,0.0616835355758667,2023-10-20T12:10:19.824097Z,1697803819824
3.3880882263183594,1.6910080909729004,0.12786391377449036,2023-10-20T12:10:19.845407Z,1697803819845
3.402134895324707,1.5643305778503418,0.1578519344329834,2023-10-20T12:10:19.865008Z,1697803819864
3.4333105087280273,1.4613862037658691,0.16206246614456177,2023-10-20T12:10:19.885644Z,1697803819885
3.4737157821655273,1.3674001693725586,0.14931601285934448,2023-10-20T12:10:19.905650Z,1697803819905
3.5176429748535156,1.2728869915008545,0.11787259578704834,2023-10-20T12:10:19.925605Z,1697803819925
3.5430774688720703,1.1713974475860596,0.06401890516281128,2023-10-20T12:10:19.946069Z,1697803819946
3.5461416244506836,1.06541109085083,-0.01100868359208107,2023-10-20T12:10:19.969143Z,1697803819969
3.5343399047851562,0.9589037895202637,-0.10171648859977722,2023-10-20T12:10:19.986684Z,1697803819986
3.5204696655273438,0.8545145988464355,-0.2023109793663025,2023-10-20T12:10:20.006748Z,1697803820006
3.521721839904785,0.757368803024292,-0.30924999713897705,2023-10-20T12:10:20.027596Z,1697803820027
3.5458688735961914,0.6727762222290039,-0.4218888282775879,2023-10-20T12:10:20.047157Z,1697803820047
3.584456443786621,0.6024625301361084,-0.5382117033004761,2023-10-20T12:10:20.069497Z,1697803820069
3.6279449462890625,0.5456891059875488,-0.6554989814758301,2023-10-20T12:10:20.087495Z,1697803820087
3.6738719940185547,0.500741720199585,-0.7737329006195068,2023-10-20T12:10:20.107884Z,1697803820107
3.7231130599975586,0.46692001819610596,-0.893596887588501,2023-10-20T12:10:20.128301Z,1697803820128
3.7692346572875977,0.4438972473144531,-1.013282060623169,2023-10-20T12:10:20.148566Z,1697803820148
3.8004417419433594,0.43045246601104736,-1.127439260482788,2023-10-20T12:10:20.168549Z,1697803820168
3.80303955078125,0.42447352409362793,-1.228445053100586,2023-10-20T12:10:20.189395Z,1697803820189
3.76540470123291,0.42380309104919434,-1.3088667392730713,2023-10-20T12:10:20.209342Z,1697803820209
3.680575370788574,0.4262324571609497,-1.3633537292480469,2023-10-20T12:10:20.230984Z,1697803820230
3.5468521118164062,0.429341197013855,-1.3884294033050537,2023-10-20T12:10:20.252948Z,1697803820252
3.3660736083984375,0.4308929443359375,-1.381502628326416,2023-10-20T12:10:20.270222Z,1697803820270
3.13974666595459,0.4293556213378906,-1.3399407863616943,2023-10-20T12:10:20.290377Z,1697803820290
2.8703699111938477,0.4240291118621826,-1.262371301651001,2023-10-20T12:10:20.310636Z,1697803820310
2.5665483474731445,0.4141117334365845,-1.1522111892700195,2023-10-20T12:10:20.330862Z,1697803820330
2.2444639205932617,0.3992661237716675,-1.01871919631958,2023-10-20T12:10:20.352236Z,1697803820352
1.9248218536376953,0.38086676597595215,-0.874779462814331,2023-10-20T12:10:20.371390Z,1697803820371
1.6274843215942383,0.3611316680908203,-0.7336142063140869,2023-10-20T12:10:20.391903Z,1697803820391
1.3693561553955078,0.3423464298248291,-0.606316328048706,2023-10-20T12:10:20.412649Z,1697803820412
1.1633224487304688,0.3275737762451172,-0.5008971691131592,2023-10-20T12:10:20.435314Z,1697803820435
1.0182676315307617,0.32135748863220215,-0.42185306549072266,2023-10-20T12:10:20.452652Z,1697803820452
0.9395380020141602,0.3298516273498535,-0.3704981803894043,2023-10-20T12:10:20.473642Z,1697803820473
0.9285821914672852,0.3593883514404297,-0.3451054096221924,2023-10-20T12:10:20.493686Z,1697803820493
0.9788713455200195,0.41341638565063477,-0.33986425399780273,2023-10-20T12:10:20.513959Z,1697803820513
1.0758886337280273,0.4908561706542969,-0.34627819061279297,2023-10-20T12:10:20.535306Z,1697803820535
1.2013015747070312,0.5866541862487793,-0.35569024085998535,2023-10-20T12:10:20.554221Z,1697803820554
1.3375368118286133,0.6931266784667969,-0.36132144927978516,2023-10-20T12:10:20.574281Z,1697803820574
1.4720983505249023,0.8025627136230469,-0.3592658042907715,2023-10-20T12:10:20.594838Z,1697803820594
1.595296859741211,0.907351016998291,-0.3474259376525879,2023-10-20T12:10:20.614760Z,1697803820614
1.7003698348999023,1.001136302947998,-0.3250616788864136,2023-10-20T12:10:20.635010Z,1697803820634
1.7825965881347656,1.07924222946167,-0.2926652431488037,2023-10-20T12:10:20.655375Z,1697803820655
1.839980125427246,1.1388235092163086,-0.2517859935760498,2023-10-20T12:10:20.675631Z,1697803820675
1.8742399215698242,1.1795506477355957,-0.20469295978546143,2023-10-20T12:10:20.696328Z,1697803820696
1.8890552520751953,1.2030863761901855,-0.15379095077514648,2023-10-20T12:10:20.717535Z,1697803820717
1.8873558044433594,1.2115683555603027,-0.10116779804229736,2023-10-20T12:10:20.736732Z,1697803820736
1.8696537017822266,1.2061119079589844,-0.048419803380966187,2023-10-20T12:10:20.757138Z,1697803820757
1.8348827362060547,1.1869091987609863,0.003192320466041565,2023-10-20T12:10:20.776945Z,1697803820776
1.7825469970703125,1.1541414260864258,0.05242598056793213,2023-10-20T12:10:20.797595Z,1697803820797
1.7138051986694336,1.1088452339172363,0.09790158271789551,2023-10-20T12:10:20.817820Z,1697803820817
1.6291332244873047,1.051905632019043,0.13827520608901978,2023-10-20T12:10:20.837791Z,1697803820837
1.5266170501708984,0.982668399810791,0.17204952239990234,2023-10-20T12:10:20.857765Z,1697803820857
1.4011144638061523,0.8984208106994629,0.19726991653442383,2023-10-20T12:10:20.878287Z,1697803820878
1.247995376586914,0.7967424392700195,0.21130907535552979,2023-10-20T12:10:20.901845Z,1697803820901
1.067434310913086,0.6780858039855957,0.21155846118927002,2023-10-20T12:10:20.918617Z,1697803820918
0.8632392883300781,0.5451235771179199,0.19625568389892578,2023-10-20T12:10:20.939287Z,1697803820939
0.6389503479003906,0.40059661865234375,0.16415977478027344,2023-10-20T12:10:20.959741Z,1697803820959
0.39778614044189453,0.24717950820922852,0.11430597305297852,2023-10-20T12:10:20.979311Z,1697803820979
0.14281558990478516,0.08776426315307617,0.0456080436706543,2023-10-20T12:10:21.001408Z,1697803821001
-0.12084293365478516,-0.0732269287109375,-0.042725563049316406,2023-10-20T12:10:21.020221Z,1697803821020
-0.3868889808654785,-0.230255126953125,-0.15108227729797363,2023-10-20T12:10:21.040533Z,1697803821040
-0.6478772163391113,-0.376800537109375,-0.27886152267456055,2023-10-20T12:10:21.060843Z,1697803821060
-0.8945717811584473,-0.5053958892822266,-0.4233372211456299,2023-10-20T12:10:21.081018Z,1697803821080
-1.1182150840759277,-0.6096763610839844,-0.5798938274383545,2023-10-20T12:10:21.101152Z,1697803821101
-1.3137459754943848,-0.6867060661315918,-0.7437920570373535,2023-10-20T12:10:21.121855Z,1697803821121
-1.4803199768066406,-0.7371683120727539,-0.9107415676116943,2023-10-20T12:10:21.141507Z,1697803821141
-1.6190500259399414,-0.7631404399871826,-1.0755939483642578,2023-10-20T12:10:21.161732Z,1697803821161
-1.733325481414795,-0.767982006072998,-1.2333645820617676,2023-10-20T12:10:21.184920Z,1697803821184
-1.8282060623168945,-0.7555034160614014,-1.380178451538086,2023-10-20T12:10:21.202424Z,1697803821202
-1.9100127220153809,-0.7300572395324707,-1.51397705078125,2023-10-20T12:10:21.222244Z,1697803821222
-1.9851670265197754,-0.6963255405426025,-1.6341066360473633,2023-10-20T12:10:21.242966Z,1697803821242
-2.059284210205078,-0.6588175296783447,-1.738297939300537,2023-10-20T12:10:21.263249Z,1697803821263
-2.1357579231262207,-0.6209803819656372,-1.8223929405212402,2023-10-20T12:10:21.284728Z,1697803821284
-2.215036392211914,-0.5845566987991333,-1.880732536315918,2023-10-20T12:10:21.303315Z,1697803821303
-2.2942304611206055,-0.54969322681427,-1.9056782722473145,2023-10-20T12:10:21.323619Z,1697803821323
-2.367363452911377,-0.5167622566223145,-1.888831615447998,2023-10-20T12:10:21.344523Z,1697803821344
-2.4264354705810547,-0.48876190185546875,-1.8224050998687744,2023-10-20T12:10:21.367653Z,1697803821367
-2.4607925415039062,-0.47009432315826416,-1.6995668411254883,2023-10-20T12:10:21.384795Z,1697803821384
-2.4550695419311523,-0.46305155754089355,-1.5170929431915283,2023-10-20T12:10:21.404843Z,1697803821404
-2.3919272422790527,-0.46557605266571045,-1.280670166015625,2023-10-20T12:10:21.425770Z,1697803821425
-2.2549362182617188,-0.47180140018463135,-1.0038909912109375,2023-10-20T12:10:21.445798Z,1697803821445
-2.0216307640075684,-0.4689289331436157,-0.7051413059234619,2023-10-20T12:10:21.467477Z,1697803821467
-1.6706085205078125,-0.4382287263870239,-0.41497302055358887,2023-10-20T12:10:21.485862Z,1697803821485
-1.1957569122314453,-0.35923147201538086,-0.17378103733062744,2023-10-20T12:10:21.506415Z,1697803821506
-0.6075372695922852,-0.21106696128845215,-0.024237126111984253,2023-10-20T12:10:21.526711Z,1697803821526
0.0818929672241211,0.03313422203063965,-0.005639135837554932,2023-10-20T12:10:21.546706Z,1697803821546
0.8693714141845703,0.40998411178588867,-0.15560615062713623,2023-10-20T12:10:21.567568Z,1697803821567
1.7300148010253906,0.9448561668395996,-0.49318885803222656,2023-10-20T12:10:21.587220Z,1697803821587
2.6250314712524414,1.638227939605713,-1.0093111991882324,2023-10-20T12:10:21.607729Z,1697803821607
3.519634246826172,2.4742321968078613,-1.6795926094055176,2023-10-20T12:10:21.628263Z,1697803821628
4.396812438964844,3.435418128967285,-2.478161096572876,2023-10-20T12:10:21.650674Z,1697803821650
5.217245101928711,4.487334728240967,-3.3556289672851562,2023-10-20T12:10:21.668485Z,1697803821668
5.977892875671387,5.599920272827148,-4.258073806762695,2023-10-20T12:10:21.688770Z,1697803821688
6.670537948608398,6.725862503051758,-5.134875297546387,2023-10-20T12:10:21.709239Z,1697803821709
7.326991081237793,7.826477527618408,-5.960504531860352,2023-10-20T12:10:21.729537Z,1697803821729
7.960002899169922,8.873580932617188,-6.718883037567139,2023-10-20T12:10:21.751297Z,1697803821751
8.556386947631836,9.842576026916504,-7.408525466918945,2023-10-20T12:10:21.769649Z,1697803821769
9.0979585647583,10.719245910644531,-8.04944133758545,2023-10-20T12:10:21.789682Z,1697803821789
9.563318252563477,11.502792358398438,-8.645036697387695,2023-10-20T12:10:21.810154Z,1697803821810
9.940237998962402,12.19105052947998,-9.18127155303955,2023-10-20T12:10:21.830190Z,1697803821830
10.215880393981934,12.779471397399902,-9.63299560546875,2023-10-20T12:10:21.851207Z,1697803821851
