GYR_X,GYR_Y,GYR_Z,DATE,UNIX_TIMESTAMP
0.001064225216396153,0.0019954221788793802,-0.0022614786867052317,2023-10-20T12:18:09.124680Z,1697804289124
0.004256900865584612,2.6605630409903824E-4,0.0034587320405989885,2023-10-20T12:18:09.145361Z,1697804289145
-0.0014633096288889647,0.0031926757656037807,-0.0019954221788793802,2023-10-20T12:18:09.156447Z,1697804289156
-0.0026605629827827215,0.0018623941577970982,-0.0015963378828018904,2023-10-20T12:18:09.165341Z,1697804289165
0.0022614786867052317,0.0014633096288889647,-5.321126081980765E-4,2023-10-20T12:18:09.174722Z,1697804289174
-0.0019954221788793802,-0.0015963378828018904,0.0011972533538937569,2023-10-20T12:18:09.185967Z,1697804289185
0.0,7.981689414009452E-4,0.0034587320405989885,2023-10-20T12:18:09.195517Z,1697804289195
-1.3302815204951912E-4,0.0015963378828018904,0.0014633096288889647,2023-10-20T12:18:09.206329Z,1697804289206
-0.0029266192577779293,-0.0014633096288889647,0.0031926757656037807,2023-10-20T12:18:09.215517Z,1697804289215
-0.0013302814913913608,0.0029266192577779293,0.0037247883155941963,2023-10-20T12:18:09.226887Z,1697804289226
0.0013302814913913608,-0.0047890134155750275,-0.0013302814913913608,2023-10-20T12:18:09.236286Z,1697804289236
7.981689414009452E-4,-0.004389929119497538,-0.004389929119497538,2023-10-20T12:18:09.247005Z,1697804289246
-0.004655985161662102,-0.0018623941577970982,0.0029266192577779293,2023-10-20T12:18:09.256164Z,1697804289256
-0.0039908443577587605,-0.004922041669487953,0.003059647511690855,2023-10-20T12:18:09.266627Z,1697804289266
-0.0031926757656037807,-0.0023945067077875137,-0.0029266192577779293,2023-10-20T12:18:09.276498Z,1697804289276
-0.0017293660202994943,-0.0029266192577779293,-0.0025275349617004395,2023-10-20T12:18:09.287200Z,1697804289287
-0.0011972533538937569,0.001064225216396153,0.0015963378828018904,2023-10-20T12:18:09.297494Z,1697804289297
-0.0039908443577587605,0.0039908443577587605,-0.0039908443577587605,2023-10-20T12:18:09.307804Z,1697804289307
0.003059647511690855,0.0022614786867052317,-0.0025275349617004395,2023-10-20T12:18:09.317233Z,1697804289317
0.0027935912366956472,0.004655985161662102,-2.6605630409903824E-4,2023-10-20T12:18:09.327950Z,1697804289327
-0.0011972533538937569,3.990844707004726E-4,-0.004655985161662102,2023-10-20T12:18:09.344334Z,1697804289344
-0.0017293660202994943,0.001064225216396153,7.981689414009452E-4,2023-10-20T12:18:09.347958Z,1697804289347
0.0039908443577587605,-0.004655985161662102,0.0011972533538937569,2023-10-20T12:18:09.357115Z,1697804289357
-0.0037247883155941963,-3.990844707004726E-4,0.004389929119497538,2023-10-20T12:18:09.368743Z,1697804289368
0.0039908443577587605,-7.981689414009452E-4,-0.0018623941577970982,2023-10-20T12:18:09.377863Z,1697804289377
-0.0022614786867052317,0.0025275349617004395,-0.004256900865584612,2023-10-20T12:18:09.389741Z,1697804289389
-0.0027935912366956472,0.004522957373410463,1.3302815204951912E-4,2023-10-20T12:18:09.398363Z,1697804289398
-0.004123872611671686,0.0011972533538937569,0.0027935912366956472,2023-10-20T12:18:09.408781Z,1697804289408
0.004256900865584612,-0.0038578163366764784,-0.001064225216396153,2023-10-20T12:18:09.418240Z,1697804289418
-7.981689414009452E-4,0.004256900865584612,-0.0026605629827827215,2023-10-20T12:18:09.428971Z,1697804289428
0.005055069923400879,0.004522957373410463,0.0011972533538937569,2023-10-20T12:18:09.439540Z,1697804289439
0.0039908443577587605,-0.0039908443577587605,0.004522957373410463,2023-10-20T12:18:09.449407Z,1697804289449
0.0035917600616812706,0.004389929119497538,0.004123872611671686,2023-10-20T12:18:09.459050Z,1697804289459
-2.6605630409903824E-4,0.0014633096288889647,0.004123872611671686,2023-10-20T12:18:09.469450Z,1697804289469
-0.0025275349617004395,0.004256900865584612,-0.0026605629827827215,2023-10-20T12:18:09.479560Z,1697804289479
-2.6605630409903824E-4,0.0022614786867052317,0.0014633096288889647,2023-10-20T12:18:09.489887Z,1697804289489
-0.004655985161662102,0.0031926757656037807,0.0011972533538937569,2023-10-20T12:18:09.500048Z,1697804289499
-0.0018623941577970982,-0.002128450432792306,-0.0038578163366764784,2023-10-20T12:18:09.510814Z,1697804289510
0.002128450432792306,0.0014633096288889647,-5.321126081980765E-4,2023-10-20T12:18:09.519721Z,1697804289519
-0.0022614786867052317,-0.0013302814913913608,-5.321126081980765E-4,2023-10-20T12:18:09.530871Z,1697804289530
0.0026605629827827215,0.0018623941577970982,-6.651407456956804E-4,2023-10-20T12:18:09.540123Z,1697804289540
-5.321126081980765E-4,0.0023945067077875137,-1.3302815204951912E-4,2023-10-20T12:18:09.550814Z,1697804289550
0.4669288098812103,0.028201967477798462,-0.11999139189720154,2023-10-20T12:18:09.560616Z,1697804289560
0.4456443190574646,0.02381203882396221,-0.18557427823543549,2023-10-20T12:18:09.574557Z,1697804289574
0.381391704082489,0.004123872611671686,-0.28787291049957275,2023-10-20T12:18:09.581077Z,1697804289581
0.28680869936943054,-0.027403799816966057,-0.4161120653152466,2023-10-20T12:18:09.594617Z,1697804289594
0.18371187150478363,-0.06598196178674698,-0.5551264882087708,2023-10-20T12:18:09.600430Z,1697804289600
0.09032611548900604,-0.11001428216695786,-0.6950721144676208,2023-10-20T12:18:09.611232Z,1697804289611
0.01888999715447426,-0.16202828288078308,-0.8311598896980286,2023-10-20T12:18:09.627648Z,1697804289627
-0.02288084290921688,-0.22468455135822296,-0.9605962634086609,2023-10-20T12:18:09.631943Z,1697804289631
-0.031261615455150604,-0.29651975631713867,-1.0816519260406494,2023-10-20T12:18:09.641374Z,1697804289641
-0.0034587320405989885,-0.3720797300338745,-1.1904689073562622,2023-10-20T12:18:09.652497Z,1697804289652
0.0614590048789978,-0.4440479576587677,-1.2805290222167969,2023-10-20T12:18:09.662019Z,1697804289661
0.15843652188777924,-0.5104290246963501,-1.3494375944137573,2023-10-20T12:18:09.674471Z,1697804289674
0.2760334014892578,-0.5740164518356323,-1.402382731437683,2023-10-20T12:18:09.681737Z,1697804289681
0.4017450213432312,-0.6385351419448853,-1.4462820291519165,2023-10-20T12:18:09.694632Z,1697804289694
0.5253281593322754,-0.7071776390075684,-1.4875208139419556,2023-10-20T12:18:09.702020Z,1697804289701
0.6368057727813721,-0.7865954637527466,-1.534612774848938,2023-10-20T12:18:09.712994Z,1697804289712
0.725934624671936,-0.8870317339897156,-1.5985993146896362,2023-10-20T12:18:09.723224Z,1697804289723
0.7838018536567688,-1.0185965299606323,-1.689191460609436,2023-10-20T12:18:09.733313Z,1697804289733
0.8046873211860657,-1.1876753568649292,-1.8125085830688477,2023-10-20T12:18:09.742740Z,1697804289742
0.7868615388870239,-1.3966625928878784,-1.9708120822906494,2023-10-20T12:18:09.753368Z,1697804289753
0.7265997529029846,-1.651943564414978,-2.169556140899658,2023-10-20T12:18:09.763121Z,1697804289763
0.6128606796264648,-1.97280752658844,-2.424704074859619,2023-10-20T12:18:09.774278Z,1697804289774
0.42409375309944153,-2.391846179962158,-2.7637929916381836,2023-10-20T12:18:09.783329Z,1697804289783
0.13089969754219055,-2.9492342472076416,-3.2204785346984863,2023-10-20T12:18:09.794033Z,1697804289794
-0.2919968068599701,-3.674769639968872,-3.8159124851226807,2023-10-20T12:18:09.806929Z,1697804289806
-0.8471232652664185,-4.567920684814453,-4.5357279777526855,2023-10-20T12:18:09.814153Z,1697804289814
-1.4956355094909668,-5.284277439117432,-5.055202960968018,2023-10-20T12:18:09.823552Z,1697804289823
-2.1738131046295166,-6.153616428375244,-5.679104804992676,2023-10-20T12:18:09.834616Z,1697804289834
-2.802504062652588,-6.911344528198242,-6.147364139556885,2023-10-20T12:18:09.843554Z,1697804289843
-3.315061569213867,-7.487888813018799,-6.398920059204102,2023-10-20T12:18:09.855735Z,1697804289855
-3.676765203475952,-7.857174873352051,-6.417278289794922,2023-10-20T12:18:09.864549Z,1697804289864
-3.8829586505889893,-8.028382301330566,-6.22092866897583,2023-10-20T12:18:09.875197Z,1697804289875
-3.9441516399383545,-8.024125099182129,-5.843793869018555,2023-10-20T12:18:09.884623Z,1697804289884
-3.8800320625305176,-7.872074127197266,-5.32777738571167,2023-10-20T12:18:09.895366Z,1697804289895
-3.7146780490875244,-7.598301887512207,-4.717311382293701,2023-10-20T12:18:09.906648Z,1697804289906
-3.4744293689727783,-7.229281902313232,-4.0554962158203125,2023-10-20T12:18:09.915723Z,1697804289915
-3.1822993755340576,-6.787761688232422,-3.3794472217559814,2023-10-20T12:18:09.925059Z,1697804289925
-2.8583757877349854,-6.292763710021973,-2.71989369392395,2023-10-20T12:18:09.936144Z,1697804289936
-2.5227458477020264,-5.76517391204834,-2.1026430130004883,2023-10-20T12:18:09.945753Z,1697804289945
-2.1935012340545654,-5.227341175079346,-1.546053171157837,2023-10-20T12:18:09.957390Z,1697804289957
-1.897247552871704,-4.9102020263671875,-1.0611655712127686,2023-10-20T12:18:09.965686Z,1697804289965
-1.6081773042678833,-4.351616859436035,-0.6425259709358215,2023-10-20T12:18:09.977Z,1697804289976
-1.349969744682312,-3.8437154293060303,-0.29346010088920593,2023-10-20T12:18:09.985800Z,1697804289985
-1.1235557794570923,-3.386896848678589,-0.009311970323324203,2023-10-20T12:18:09.996745Z,1697804289996
-0.9274722933769226,-2.9785003662109375,0.2163037806749344,2023-10-20T12:18:10.006709Z,1697804290006
-0.7571962475776672,-2.6149344444274902,0.392300009727478,2023-10-20T12:18:10.016915Z,1697804290016
-0.60820472240448,-2.292208194732666,0.5281217694282532,2023-10-20T12:18:10.026031Z,1697804290025
-0.4786352813243866,-2.0059316158294678,0.6304203867912292,2023-10-20T12:18:10.040085Z,1697804290040
-0.36742374300956726,-1.7499853372573853,0.7046501040458679,2023-10-20T12:18:10.046672Z,1697804290046
-0.27137744426727295,-1.516387939453125,0.7562650442123413,2023-10-20T12:18:10.057818Z,1697804290057
-0.18637244403362274,-1.3007493019104004,0.7869945764541626,2023-10-20T12:18:10.066688Z,1697804290066
-0.1097482219338417,-1.102803349494934,0.7940450310707092,2023-10-20T12:18:10.078206Z,1697804290078
-0.041903868317604065,-0.9254768490791321,0.7738247513771057,2023-10-20T12:18:10.090150Z,1697804290090
-0.00944499857723713,-0.7808752655982971,0.7011913657188416,2023-10-20T12:18:10.098208Z,1697804290098
0.042835064232349396,-0.6458516716957092,0.6316176652908325,2023-10-20T12:18:10.107003Z,1697804290106
0.11107850819826126,-0.5245299935340881,0.5635072588920593,2023-10-20T12:18:10.118250Z,1697804290118
0.13848230242729187,-0.44378191232681274,0.4477727711200714,2023-10-20T12:18:10.127283Z,1697804290127
0.15564294159412384,-0.39216700196266174,0.32073086500167847,2023-10-20T12:18:10.140426Z,1697804290140
0.1646888554096222,-0.3664925694465637,0.19289082288742065,2023-10-20T12:18:10.148290Z,1697804290148
0.16774849593639374,-0.3599741756916046,0.07343153655529022,2023-10-20T12:18:10.158958Z,1697804290158
0.16562004387378693,-0.367290735244751,-0.033390067517757416,2023-10-20T12:18:10.167999Z,1697804290167
0.15870258212089539,-0.38618072867393494,-0.12690885365009308,2023-10-20T12:18:10.179098Z,1697804290179
0.14885850250720978,-0.41584599018096924,-0.20991842448711395,2023-10-20T12:18:10.189968Z,1697804290189
0.1378171592950821,-0.45482325553894043,-0.28627657890319824,2023-10-20T12:18:10.199383Z,1697804290199
0.12611068785190582,-0.4988555610179901,-0.3585108816623688,2023-10-20T12:18:10.208558Z,1697804290208
0.11493632197380066,-0.5403603315353394,-0.42781853675842285,2023-10-20T12:18:10.223540Z,1697804290223
0.10655555129051208,-0.5674980878829956,-0.4961950182914734,2023-10-20T12:18:10.229130Z,1697804290229
0.1042940691113472,-0.5712229013442993,-0.5674980878829956,2023-10-20T12:18:10.240364Z,1697804290240
0.10788583010435104,-0.5531310439109802,-0.6466498374938965,2023-10-20T12:18:10.249554Z,1697804290249
0.11520238220691681,-0.5255942344665527,-0.7361778020858765,2023-10-20T12:18:10.260206Z,1697804290260
0.1213216781616211,-0.5044427514076233,-0.8391416072845459,2023-10-20T12:18:10.273652Z,1697804290273
0.12251892685890198,-0.5016491413116455,-0.959665060043335,2023-10-20T12:18:10.280498Z,1697804290280
0.11573449522256851,-0.5266584753990173,-1.1001428365707397,2023-10-20T12:18:10.289910Z,1697804290289
0.09963808953762054,-0.5849247574806213,-1.2549875974655151,2023-10-20T12:18:10.300949Z,1697804290300
0.07635816186666489,-0.6685994863510132,-1.4073047637939453,2023-10-20T12:18:10.310100Z,1697804290310
0.05108281224966049,-0.755998969078064,-1.5352778434753418,2023-10-20T12:18:10.324539Z,1697804290324
0.02953225001692772,-0.8193203806877136,-1.6224113702774048,2023-10-20T12:18:10.330162Z,1697804290330
0.016096405684947968,-0.8402057886123657,-1.663383960723877,2023-10-20T12:18:10.341448Z,1697804290341
0.011174364946782589,-0.8158616423606873,-1.6603243350982666,2023-10-20T12:18:10.350558Z,1697804290350
0.013169786892831326,-0.7538705468177795,-1.6174893379211426,2023-10-20T12:18:10.362110Z,1697804290362
0.019555138424038887,-0.6682004332542419,-1.544589877128601,2023-10-20T12:18:10.373513Z,1697804290373
0.027802884578704834,-0.5740164518356323,-1.4571903944015503,2023-10-20T12:18:10.382201Z,1697804290382
0.034986402839422226,-0.4872821271419525,-1.3715202808380127,2023-10-20T12:18:10.390906Z,1697804290390
0.038445137441158295,-0.4209010601043701,-1.29768967628479,2023-10-20T12:18:10.401943Z,1697804290401
0.036848798394203186,-0.3819238245487213,-1.2395563125610352,2023-10-20T12:18:10.410977Z,1697804290410
0.029399221763014793,-0.37061643600463867,-1.196987271308899,2023-10-20T12:18:10.424081Z,1697804290424
0.016761546954512596,-0.3825889527797699,-1.1674550771713257,2023-10-20T12:18:10.431509Z,1697804290431
6.651407456956804E-4,-0.41079092025756836,-1.1471017599105835,2023-10-20T12:18:10.442554Z,1697804290442
-0.016495490446686745,-0.4473736882209778,-1.1320695877075195,2023-10-20T12:18:10.451886Z,1697804290451
-0.034055206924676895,-0.48541972041130066,-1.1192988157272339,2023-10-20T12:18:10.463206Z,1697804290463
-0.052280064672231674,-0.5197409987449646,-1.1061290502548218,2023-10-20T12:18:10.473098Z,1697804290473
-0.07196822762489319,-0.5467457175254822,-1.090032696723938,2023-10-20T12:18:10.483086Z,1697804290483
-0.09298668056726456,-0.5651035904884338,-1.0698124170303345,2023-10-20T12:18:10.492085Z,1697804290492
-0.11427118629217148,-0.5753467679023743,-1.0450692176818848,2023-10-20T12:18:10.506911Z,1697804290506
-0.13515660166740417,-0.5794706344604492,-1.0152708292007446,2023-10-20T12:18:10.512303Z,1697804290512
-0.15511082112789154,-0.5793375968933105,-0.9798853397369385,2023-10-20T12:18:10.523724Z,1697804290523
-0.1740008294582367,-0.5757458209991455,-0.9391787648200989,2023-10-20T12:18:10.533028Z,1697804290532
-0.19089539349079132,-0.5674980878829956,-0.8947473764419556,2023-10-20T12:18:10.543553Z,1697804290543
-0.20539546012878418,-0.5533971190452576,-0.8497838377952576,2023-10-20T12:18:10.556513Z,1697804290556
-0.2184322327375412,-0.5342410802841187,-0.8082790374755859,2023-10-20T12:18:10.564332Z,1697804290564
-0.23133595287799835,-0.5133556127548218,-0.7734256982803345,2023-10-20T12:18:10.573207Z,1697804290573
-0.24503785371780396,-0.49486473202705383,-0.7468200325965881,2023-10-20T12:18:10.584224Z,1697804290584
-0.259537935256958,-0.48275917768478394,-0.7277970314025879,2023-10-20T12:18:10.593560Z,1697804290593
-0.2739049792289734,-0.4800986051559448,-0.7144942283630371,2023-10-20T12:18:10.606739Z,1697804290606
-0.2870747447013855,-0.48927754163742065,-0.7050492167472839,2023-10-20T12:18:10.613603Z,1697804290613
-0.29838213324546814,-0.5112271904945374,-0.6975996494293213,2023-10-20T12:18:10.624617Z,1697804290624
-0.3068959414958954,-0.5435530543327332,-0.6908152103424072,2023-10-20T12:18:10.633828Z,1697804290633
-0.31141889095306396,-0.582264244556427,-0.6837646961212158,2023-10-20T12:18:10.644977Z,1697804290644
-0.3122170865535736,-0.623236894607544,-0.6764481663703918,2023-10-20T12:18:10.656551Z,1697804290656
-0.31101980805397034,-0.6642095446586609,-0.6699298024177551,2023-10-20T12:18:10.665632Z,1697804290665
-0.30982255935668945,-0.7046501040458679,-0.6652737855911255,2023-10-20T12:18:10.675015Z,1697804290674
-0.30968955159187317,-0.7436273694038391,-0.6634113788604736,2023-10-20T12:18:10.685573Z,1697804290685
-0.3100886344909668,-0.7798110246658325,-0.6643425822257996,2023-10-20T12:18:10.695120Z,1697804290695
-0.3102216422557831,-0.8110726475715637,-0.6668701171875,2023-10-20T12:18:10.706571Z,1697804290706
-0.30968955159187317,-0.8347516655921936,-0.6699298024177551,2023-10-20T12:18:10.715578Z,1697804290715
-0.3074280619621277,-0.8493847250938416,-0.6729894280433655,2023-10-20T12:18:10.726414Z,1697804290726
-0.30410236120224,-0.855504035949707,-0.6776453852653503,2023-10-20T12:18:10.735364Z,1697804290735
-0.3018408715724945,-0.856435239315033,-0.6864252686500549,2023-10-20T12:18:10.746728Z,1697804290746
-0.30383628606796265,-0.8571003675460815,-0.7014574408531189,2023-10-20T12:18:10.756636Z,1697804290756
-0.31088680028915405,-0.8606921434402466,-0.7219437956809998,2023-10-20T12:18:10.766795Z,1697804290766
-0.3209969401359558,-0.8670774698257446,-0.7449576258659363,2023-10-20T12:18:10.775956Z,1697804290775
-0.3313731253147125,-0.8739949464797974,-0.7663751840591431,2023-10-20T12:18:10.790354Z,1697804290790
-0.3390887677669525,-0.8777197599411011,-0.7820724844932556,2023-10-20T12:18:10.796250Z,1697804290796
-0.3425475060939789,-0.875059187412262,-0.7871275544166565,2023-10-20T12:18:10.807250Z,1697804290807
-0.3401529788970947,-0.8626875877380371,-0.7767513990402222,2023-10-20T12:18:10.816441Z,1697804290816
-0.3315061628818512,-0.8391416072845459,-0.748283326625824,2023-10-20T12:18:10.827615Z,1697804290827
-0.3178042471408844,-0.8078799843788147,-0.7050492167472839,2023-10-20T12:18:10.839655Z,1697804290839
-0.3013087511062622,-0.774622917175293,-0.6547645926475525,2023-10-20T12:18:10.848069Z,1697804290848
-0.2838820815086365,-0.7468200325965881,-0.60820472240448,2023-10-20T12:18:10.857246Z,1697804290857
-0.2672535479068756,-0.7313888072967529,-0.5746816396713257,2023-10-20T12:18:10.867945Z,1697804290867
-0.25275349617004395,-0.7341823577880859,-0.559516429901123,2023-10-20T12:18:10.877711Z,1697804290877
-0.2403818666934967,-0.7577283382415771,-0.5629751682281494,2023-10-20T12:18:10.890092Z,1697804290890
-0.2293405383825302,-0.7983019351959229,-0.5790715217590332,2023-10-20T12:18:10.897787Z,1697804290897
-0.21776708960533142,-0.8488526344299316,-0.5994248390197754,2023-10-20T12:18:10.908989Z,1697804290908
-0.20393215119838715,-0.8983390927314758,-0.614590048789978,2023-10-20T12:18:10.917952Z,1697804290917
-0.18530821800231934,-0.9358530640602112,-0.6163194179534912,2023-10-20T12:18:10.928892Z,1697804290928
-0.16056497395038605,-0.9552751779556274,-0.6006221175193787,2023-10-20T12:18:10.939573Z,1697804290939
-0.13156484067440033,-0.9578027129173279,-0.5690944194793701,2023-10-20T12:18:10.949380Z,1697804290949
-0.10243167728185654,-0.9520824551582336,-0.5291860103607178,2023-10-20T12:18:10.958788Z,1697804290958
-0.07649118453264236,-0.9471604228019714,-0.48994266986846924,2023-10-20T12:18:10.969041Z,1697804290969
-0.055738795548677444,-0.9492889046669006,-0.45908015966415405,2023-10-20T12:18:10.978629Z,1697804290978
-0.04137175530195236,-0.9629908204078674,-0.441387414932251,2023-10-20T12:18:10.989826Z,1697804290989
-0.03352309390902519,-0.989197313785553,-0.4368644654750824,2023-10-20T12:18:10.998854Z,1697804290998
-0.03166069835424423,-1.0249818563461304,-0.4417864978313446,2023-10-20T12:18:11.010127Z,1697804291010
-0.033124011009931564,-1.062761902809143,-0.44976818561553955,2023-10-20T12:18:11.022839Z,1697804291022
-0.03578457236289978,-1.0944225788116455,-0.4549562931060791,2023-10-20T12:18:11.030676Z,1697804291030
-0.03964238986372948,-1.1157071590423584,-0.45415809750556946,2023-10-20T12:18:11.039487Z,1697804291039
-0.04576168581843376,-1.1262162923812866,-0.44697460532188416,2023-10-20T12:18:11.050670Z,1697804291050
-0.054807599633932114,-1.1287438869476318,-0.4351350963115692,2023-10-20T12:18:11.059966Z,1697804291059
-0.06664710491895676,-1.1279456615447998,-0.4209010601043701,2023-10-20T12:18:11.073300Z,1697804291073
-0.08074808865785599,-1.1280786991119385,-0.4068000912666321,2023-10-20T12:18:11.080376Z,1697804291080
-0.09671146422624588,-1.1319365501403809,-0.3941624164581299,2023-10-20T12:18:11.091170Z,1697804291091
-0.11440420895814896,-1.1409825086593628,-0.3835201561450958,2023-10-20T12:18:11.100597Z,1697804291100
-0.13236300647258759,-1.1534870862960815,-0.3727448880672455,2023-10-20T12:18:11.111661Z,1697804291111
-0.14965666830539703,-1.1657257080078125,-0.3585108816623688,2023-10-20T12:18:11.122779Z,1697804291122
-0.16748245060443878,-1.1725101470947266,-0.33829060196876526,2023-10-20T12:18:11.131531Z,1697804291131
-0.18889997899532318,-1.1698495149612427,-0.31141889095306396,2023-10-20T12:18:11.140902Z,1697804291140
-0.21723496913909912,-1.155881643295288,-0.2800242602825165,2023-10-20T12:18:11.151732Z,1697804291151
-0.25434982776641846,-1.1307393312454224,-0.2475653886795044,2023-10-20T12:18:11.161195Z,1697804291161
-0.30037757754325867,-1.096817135810852,-0.21723496913909912,2023-10-20T12:18:11.173065Z,1697804291173
-0.35438698530197144,-1.059569239616394,-0.19102843105793,2023-10-20T12:18:11.181432Z,1697804291181
-0.4155799448490143,-1.0260461568832397,-0.1690787822008133,2023-10-20T12:18:11.192303Z,1697804291192
-0.4823600649833679,-1.000504732131958,-0.1509869545698166,2023-10-20T12:18:11.201452Z,1697804291201
-0.5519338250160217,-0.9838762283325195,-0.1355556845664978,2023-10-20T12:18:11.212577Z,1697804291212
-0.6220396161079407,-0.9753624200820923,-0.12198681384325027,2023-10-20T12:18:11.222392Z,1697804291222
-0.6910812258720398,-0.9723027348518372,-0.1086840033531189,2023-10-20T12:18:11.232670Z,1697804291232
-0.7583934664726257,-0.9712385535240173,-0.09405090659856796,2023-10-20T12:18:11.242115Z,1697804291242
-0.8246415257453918,-0.9693761467933655,-0.07702329754829407,2023-10-20T12:18:11.256183Z,1697804291256
-0.8900913596153259,-0.966449499130249,-0.056669991463422775,2023-10-20T12:18:11.262725Z,1697804291262
-0.9538118243217468,-0.9616605043411255,-0.03285795450210571,2023-10-20T12:18:11.273720Z,1697804291273
-1.0134084224700928,-0.9550091028213501,-0.004922041669487953,2023-10-20T12:18:11.283016Z,1697804291282
-1.0667527914047241,-0.9492889046669006,0.026605630293488503,2023-10-20T12:18:11.293735Z,1697804291293
-1.1126474142074585,-0.9479585886001587,0.05999569594860077,2023-10-20T12:18:11.305960Z,1697804291305
-1.1505604982376099,-0.9543439745903015,0.09325273334980011,2023-10-20T12:18:11.314261Z,1697804291314
-1.1804918050765991,-0.9703073501586914,0.12544554471969604,2023-10-20T12:18:11.323247Z,1697804291323
-1.2032396793365479,-0.9966469407081604,0.15564294159412384,2023-10-20T12:18:11.334551Z,1697804291334
-1.2202672958374023,-1.0321654081344604,0.1827806830406189,2023-10-20T12:18:11.343348Z,1697804291343
-1.2333040237426758,-1.0757986307144165,0.2052624374628067,2023-10-20T12:18:11.356579Z,1697804291356
-1.2447444200515747,-1.1270145177841187,0.22162489593029022,2023-10-20T12:18:11.364257Z,1697804291364
-1.2556527853012085,-1.1843496561050415,0.23186807334423065,2023-10-20T12:18:11.374943Z,1697804291374
-1.2666940689086914,-1.2463407516479492,0.2371891885995865,2023-10-20T12:18:11.384019Z,1697804291383
-1.2781344652175903,-1.3107264041900635,0.2393176406621933,2023-10-20T12:18:11.395341Z,1697804291395
-1.288643717765808,-1.3727174997329712,0.23998278379440308,2023-10-20T12:18:11.405939Z,1697804291405
-1.2962262630462646,-1.4273921251296997,0.24157913029193878,2023-10-20T12:18:11.415188Z,1697804291415
-1.300882339477539,-1.4739519357681274,0.24623510241508484,2023-10-20T12:18:11.424598Z,1697804291424
-1.3039419651031494,-1.5138603448867798,0.2552810311317444,2023-10-20T12:18:11.434946Z,1697804291434
-1.306868553161621,-1.5489797592163086,0.2683177888393402,2023-10-20T12:18:11.445253Z,1697804291445
-1.3097951412200928,-1.5795762538909912,0.2832169234752655,2023-10-20T12:18:11.456285Z,1697804291456
-1.3137860298156738,-1.6085764169692993,0.29598763585090637,2023-10-20T12:18:11.464948Z,1697804291464
-1.3212356567382812,-1.6399710178375244,0.30370327830314636,2023-10-20T12:18:11.476271Z,1697804291476
-1.3328090906143188,-1.6738932132720947,0.30649685859680176,2023-10-20T12:18:11.485092Z,1697804291485
-1.3475751876831055,-1.7075493335723877,0.30756109952926636,2023-10-20T12:18:11.496284Z,1697804291496
-1.3635385036468506,-1.737480640411377,0.3102216422557831,2023-10-20T12:18:11.505965Z,1697804291505
-1.3789697885513306,-1.7614257335662842,0.31580883264541626,2023-10-20T12:18:11.516471Z,1697804291516
-1.39240562915802,-1.7777882814407349,0.32405656576156616,2023-10-20T12:18:11.525920Z,1697804291525
-1.4041121006011963,-1.7881643772125244,0.3348318636417389,2023-10-20T12:18:11.539540Z,1697804291539
-1.4162176847457886,-1.7966781854629517,0.34600621461868286,2023-10-20T12:18:11.546202Z,1697804291546
-1.430052638053894,-1.805990219116211,0.35478606820106506,2023-10-20T12:18:11.556985Z,1697804291556
-1.4469472169876099,-1.8166323900222778,0.35930904746055603,2023-10-20T12:18:11.565791Z,1697804291565
-1.4678326845169067,-1.8268755674362183,0.36130446195602417,2023-10-20T12:18:11.576943Z,1697804291576
-1.4931080341339111,-1.8333940505981445,0.3667586147785187,2023-10-20T12:18:11.587690Z,1697804291587
-1.5242365598678589,-1.8348573446273804,0.38112565875053406,2023-10-20T12:18:11.597948Z,1697804291597
-1.561883568763733,-1.830999493598938,0.4065340459346771,2023-10-20T12:18:11.606775Z,1697804291606
-1.6048516035079956,-1.821953535079956,0.44152042269706726,2023-10-20T12:18:11.617779Z,1697804291617
-1.6512784957885742,-1.8093159198760986,0.4819609820842743,2023-10-20T12:18:11.627252Z,1697804291627
-1.6995676755905151,-1.796545147895813,0.5230666995048523,2023-10-20T12:18:11.639391Z,1697804291639
-1.7485220432281494,-1.7860360145568848,0.5621769428253174,2023-10-20T12:18:11.647786Z,1697804291647
-1.7962791919708252,-1.7769900560379028,0.5999569892883301,2023-10-20T12:18:11.658452Z,1697804291658
-1.843770146369934,-1.7694073915481567,0.6410626769065857,2023-10-20T12:18:11.667671Z,1697804291667
-1.8937888145446777,-1.7631551027297974,0.6930766701698303,2023-10-20T12:18:11.678905Z,1697804291678
-1.948729395866394,-1.756104588508606,0.7643797397613525,2023-10-20T12:18:11.688908Z,1697804291688
-2.0116517543792725,-1.7455954551696777,0.8610912561416626,2023-10-20T12:18:11.698655Z,1697804291698
-2.0848171710968018,-1.7289669513702393,0.9820138216018677,2023-10-20T12:18:11.708148Z,1697804291708
-2.167959690093994,-1.7043566703796387,1.120097041130066,2023-10-20T12:18:11.718574Z,1697804291718
-2.25895094871521,-1.671365737915039,1.264033555984497,2023-10-20T12:18:11.729040Z,1697804291728
-2.3560616970062256,-1.6318563222885132,1.4031809568405151,2023-10-20T12:18:11.739302Z,1697804291739
-2.456098794937134,-1.5887552499771118,1.530621886253357,2023-10-20T12:18:11.749020Z,1697804291748
-2.5552046298980713,-1.5427274703979492,1.6428977251052856,2023-10-20T12:18:11.760093Z,1697804291760
-2.651118040084839,-1.4955024719238281,1.7404073476791382,2023-10-20T12:18:11.772018Z,1697804291771
-2.7429075241088867,-1.4481444358825684,1.8264765739440918,2023-10-20T12:18:11.779953Z,1697804291779
-2.828843593597412,-1.4007863998413086,1.9056283235549927,2023-10-20T12:18:11.789554Z,1697804291789
-2.9059998989105225,-1.3524972200393677,1.9806561470031738,2023-10-20T12:18:11.800129Z,1697804291800
-2.972647190093994,-1.3035428524017334,2.050229787826538,2023-10-20T12:18:11.809630Z,1697804291809
-3.0285189151763916,-1.2552536725997925,2.111156702041626,2023-10-20T12:18:11.822655Z,1697804291822
-3.0745465755462646,-1.2084277868270874,2.162106513977051,2023-10-20T12:18:11.830100Z,1697804291830
-3.1121935844421387,-1.1635972261428833,2.205207586288452,2023-10-20T12:18:11.840321Z,1697804291840
-3.1430561542510986,-1.120097041130066,2.2439188957214355,2023-10-20T12:18:11.850119Z,1697804291850
-3.1679325103759766,-1.0760647058486938,2.2812998294830322,2023-10-20T12:18:11.860845Z,1697804291860
-3.1900150775909424,-1.0275094509124756,2.3192129135131836,2023-10-20T12:18:11.872221Z,1697804291872
-3.213827133178711,-0.9688440561294556,2.3589882850646973,2023-10-20T12:18:11.881257Z,1697804291881
-3.240964889526367,-0.8954125046730042,2.400758981704712,2023-10-20T12:18:11.890657Z,1697804291890
-3.2696988582611084,-0.8069487810134888,2.4422638416290283,2023-10-20T12:18:11.901215Z,1697804291901
-3.298699140548706,-0.7066455483436584,2.4781813621520996,2023-10-20T12:18:11.910741Z,1697804291910
-3.3278322219848633,-0.5979615449905396,2.5030577182769775,2023-10-20T12:18:11.922365Z,1697804291922
-3.353639602661133,-0.4851536750793457,2.514897108078003,2023-10-20T12:18:11.931016Z,1697804291930
-3.3702683448791504,-0.37287789583206177,2.516094446182251,2023-10-20T12:18:11.941729Z,1697804291941
-3.372795820236206,-0.26645538210868835,2.5111725330352783,2023-10-20T12:18:11.951182Z,1697804291951
-3.3597590923309326,-0.17027603089809418,2.506117343902588,2023-10-20T12:18:11.962287Z,1697804291962
-3.3326213359832764,-0.08859674632549286,2.5078468322753906,2023-10-20T12:18:11.972086Z,1697804291972
-3.2952404022216797,-0.025674432516098022,2.5234110355377197,2023-10-20T12:18:11.982546Z,1697804291982
-3.2508089542388916,0.013701899908483028,2.5595946311950684,2023-10-20T12:18:11.991841Z,1697804291991
-3.2027857303619385,0.024876264855265617,2.6211867332458496,2023-10-20T12:18:12.005736Z,1697804292005
-3.154629707336426,0.006784435827285051,2.7093844413757324,2023-10-20T12:18:12.012460Z,1697804292012
-3.1074047088623047,-0.037247881293296814,2.8213939666748047,2023-10-20T12:18:12.023211Z,1697804292023
-3.059115409851074,-0.09870688617229462,2.9509634971618652,2023-10-20T12:18:12.032508Z,1697804292032
-3.009895086288452,-0.1646888554096222,3.089179754257202,2023-10-20T12:18:12.043015Z,1697804292042
-2.9633350372314453,-0.21976250410079956,3.2260656356811523,2023-10-20T12:18:12.055466Z,1697804292055
-2.9215643405914307,-0.2530195415019989,3.352043390274048,2023-10-20T12:18:12.063624Z,1697804292063
-2.881788969039917,-0.26219847798347473,3.459796190261841,2023-10-20T12:18:12.073013Z,1697804292072
-2.839219808578491,-0.2512901723384857,3.5449342727661133,2023-10-20T12:18:12.083875Z,1697804292083
-2.7914626598358154,-0.22614786028862,3.6067922115325928,2023-10-20T12:18:12.092894Z,1697804292092
-2.740778923034668,-0.19089539349079132,3.6477649211883545,2023-10-20T12:18:12.105968Z,1697804292105
-2.690760374069214,-0.14806033670902252,3.6730403900146484,2023-10-20T12:18:12.113613Z,1697804292113
-2.644333600997925,-0.10083533823490143,3.6894028186798096,2023-10-20T12:18:12.124320Z,1697804292124
-2.6012325286865234,-0.05467456951737404,3.7039027214050293,2023-10-20T12:18:12.133601Z,1697804292133
-2.558929443359375,-0.015431265346705914,3.721196413040161,2023-10-20T12:18:12.144467Z,1697804292144
-2.514897108078003,0.011706477031111717,3.740485668182373,2023-10-20T12:18:12.155065Z,1697804292154
-2.4682042598724365,0.023146897554397583,3.7559168338775635,2023-10-20T12:18:12.165176Z,1697804292165
-2.4169886112213135,0.014500068500638008,3.7608389854431152,2023-10-20T12:18:12.174589Z,1697804292174
-2.35978627204895,-0.018091829493641853,3.750196695327759,2023-10-20T12:18:12.188949Z,1697804292188
-2.2972631454467773,-0.07316548377275467,3.7235910892486572,2023-10-20T12:18:12.194717Z,1697804292194
-2.231680393218994,-0.14180800318717957,3.684746742248535,2023-10-20T12:18:12.206319Z,1697804292206
-2.166363477706909,-0.21204687654972076,3.643907070159912,2023-10-20T12:18:12.214609Z,1697804292214
-2.1049044132232666,-0.2755013108253479,3.6133105754852295,2023-10-20T12:18:12.226078Z,1697804292226
-2.05102801322937,-0.3386896848678589,3.5988106727600098,2023-10-20T12:18:12.238422Z,1697804292238
-2.0059316158294678,-0.4268873333930969,3.5940215587615967,2023-10-20T12:18:12.246250Z,1697804292246
-1.9685505628585815,-0.5698925852775574,3.5808517932891846,2023-10-20T12:18:12.255283Z,1697804292255
-1.9388853311538696,-0.7803431153297424,3.5400121212005615,2023-10-20T12:18:12.266490Z,1697804292266
-1.91826593875885,-1.056775689125061,3.457002639770508,2023-10-20T12:18:12.275285Z,1697804292275
-1.91108238697052,-1.3962634801864624,3.326369047164917,2023-10-20T12:18:12.289026Z,1697804292289
-1.9215916395187378,-1.7816460132598877,3.154097557067871,2023-10-20T12:18:12.295987Z,1697804292295
-1.94912850856781,-2.1734139919281006,2.955885648727417,2023-10-20T12:18:12.306801Z,1697804292306
-1.9879727363586426,-2.527268886566162,2.7510221004486084,2023-10-20T12:18:12.315979Z,1697804292315
-2.0321381092071533,-2.813678503036499,2.5542736053466797,2023-10-20T12:18:12.327022Z,1697804292326
-2.0792300701141357,-3.022000551223755,2.370295524597168,2023-10-20T12:18:12.338365Z,1697804292338
-2.128317356109619,-3.15010666847229,2.197226047515869,2023-10-20T12:18:12.347828Z,1697804292347
-2.177670955657959,-3.196932554244995,2.0296106338500977,2023-10-20T12:18:12.356713Z,1697804292356
-2.225693941116333,-3.1659369468688965,1.8637243509292603,2023-10-20T12:18:12.367308Z,1697804292367
-2.2722537517547607,-3.0706887245178223,1.7002328634262085,2023-10-20T12:18:12.377043Z,1697804292376
-2.32067608833313,-2.9359312057495117,1.5420622825622559,2023-10-20T12:18:12.388745Z,1697804292388
-2.377079963684082,-2.7861416339874268,1.3953323364257812,2023-10-20T12:18:12.397096Z,1697804292397
-2.4482500553131104,-2.640209674835205,1.2639005184173584,2023-10-20T12:18:12.408121Z,1697804292408
-2.5412368774414062,-2.518488883972168,1.1432439088821411,2023-10-20T12:18:12.417038Z,1697804292417
-2.6604299545288086,-2.428828001022339,1.024582862854004,2023-10-20T12:18:12.428363Z,1697804292428
-2.8022379875183105,-2.355130434036255,0.9002014994621277,2023-10-20T12:18:12.438403Z,1697804292438
-2.955087423324585,-2.272120952606201,0.7587925791740417,2023-10-20T12:18:12.448390Z,1697804292448
-3.1038129329681396,-2.150400161743164,0.5798696875572205,2023-10-20T12:18:12.458087Z,1697804292458
-3.23857045173645,-1.9599037170410156,0.34174931049346924,2023-10-20T12:18:12.472225Z,1697804292472
-3.3649470806121826,-1.6830722093582153,0.029931334778666496,2023-10-20T12:18:12.478578Z,1697804292478
-3.498640298843384,-1.3264236450195312,-0.3594420552253723,2023-10-20T12:18:12.488918Z,1697804292488
-3.640315294265747,-0.9189584851264954,-0.8082790374755859,2023-10-20T12:18:12.498595Z,1697804292498
-3.762568235397339,-0.4922041594982147,-1.2838547229766846,2023-10-20T12:18:12.509571Z,1697804292509
-3.8172428607940674,-0.07742238789796829,-1.7675451040267944,2023-10-20T12:18:12.521769Z,1697804292521
-3.76456356048584,0.2986482083797455,-2.276111602783203,2023-10-20T12:18:12.529663Z,1697804292529
-3.5968151092529297,0.6253653168678284,-2.8378896713256836,2023-10-20T12:18:12.538861Z,1697804292538
-3.331956148147583,0.9071189761161804,-3.4730989933013916,2023-10-20T12:18:12.549972Z,1697804292549
-2.9956610202789307,1.1662578582763672,-4.2036895751953125,2023-10-20T12:18:12.559397Z,1697804292559
-2.5991039276123047,1.4349746704101562,-5.048551559448242,2023-10-20T12:18:12.571958Z,1697804292571
-2.138028383255005,1.6954437494277954,-5.610063076019287,2023-10-20T12:18:12.579473Z,1697804292579
-1.7148659229278564,1.9024356603622437,-6.294360160827637,2023-10-20T12:18:12.590381Z,1697804292590
-1.3498367071151733,1.975201964378357,-6.710605144500732,2023-10-20T12:18:12.599902Z,1697804292599
-1.051986575126648,1.8726372718811035,-6.736545562744141,2023-10-20T12:18:12.610704Z,1697804292610
-0.8189213275909424,1.5970029830932617,-6.339988708496094,2023-10-20T12:18:12.621805Z,1697804292621
-0.6902830600738525,1.158675193786621,-5.572017192840576,2023-10-20T12:18:12.631091Z,1697804292631
-0.7357786893844604,0.5910440683364868,-4.747907638549805,2023-10-20T12:18:12.640241Z,1697804292640
-0.5568558573722839,-0.04868830367922783,-3.7303755283355713,2023-10-20T12:18:12.651127Z,1697804292651
-0.12877124547958374,-0.6942739486694336,-2.9745094776153564,2023-10-20T12:18:12.661161Z,1697804292661
-0.433671772480011,-1.023119568824768,-2.3232035636901855,2023-10-20T12:18:12.672258Z,1697804292672
-1.453332543373108,-1.0422755479812622,-1.7648844718933105,2023-10-20T12:18:12.681231Z,1697804292681
-2.532589912414551,-1.0525187253952026,-1.2811940908432007,2023-10-20T12:18:12.691714Z,1697804292691
-3.4915900230407715,-1.0616977214813232,-0.8560361862182617,2023-10-20T12:18:12.705161Z,1697804292705
-3.295506477355957,-1.078592300415039,-0.012770703062415123,2023-10-20T12:18:12.712088Z,1697804292712
-2.832435369491577,-1.0880372524261475,1.1231566667556763,2023-10-20T12:18:12.721475Z,1697804292721
-2.996326208114624,-1.100408911705017,2.0027387142181396,2023-10-20T12:18:12.732262Z,1697804292732
-3.0376977920532227,-1.1310054063796997,2.7649900913238525,2023-10-20T12:18:12.741284Z,1697804292741
-3.1928086280822754,-1.1667898893356323,3.642310857772827,2023-10-20T12:18:12.755190Z,1697804292755
-2.6884989738464355,-1.2061662673950195,5.00465202331543,2023-10-20T12:18:12.762045Z,1697804292762
-1.5455210208892822,-1.2400884628295898,6.800798416137695,2023-10-20T12:18:12.773382Z,1697804292773
-0.6458516716957092,-1.2684234380722046,9.58427906036377,2023-10-20T12:18:12.782178Z,1697804292782
-2.0645968914031982,-1.1610697507858276,10.603009223937988,2023-10-20T12:18:12.792914Z,1697804292792
-5.112404823303223,-0.9269401431083679,10.444306373596191,2023-10-20T12:18:12.804672Z,1697804292804
-7.010716438293457,-0.6350764036178589,10.529311180114746,2023-10-20T12:18:12.813297Z,1697804292813
-7.976767063140869,-0.24357454478740692,9.696821212768555,2023-10-20T12:18:12.822793Z,1697804292822
-8.320777893066406,0.1942211091518402,8.474691390991211,2023-10-20T12:18:12.833521Z,1697804292833
-8.26477336883545,0.6247001886367798,7.154786109924316,2023-10-20T12:18:12.842633Z,1697804292842
-7.957478046417236,1.0176653861999512,5.8866286277771,2023-10-20T12:18:12.855138Z,1697804292855
-7.496535301208496,1.3630064725875854,4.741788387298584,2023-10-20T12:18:12.863533Z,1697804292863
-6.941009998321533,1.6604573726654053,3.7471370697021484,2023-10-20T12:18:12.874479Z,1697804292874
-6.327484130859375,1.9126787185668945,2.9040045738220215,2023-10-20T12:18:12.883517Z,1697804292883
-5.6800360679626465,2.125656843185425,2.19922137260437,2023-10-20T12:18:12.894835Z,1697804292894
-5.017289638519287,2.3047127723693848,1.6134984493255615,2023-10-20T12:18:12.904729Z,1697804292904
-4.521493911743164,2.48323655128479,1.1292760372161865,2023-10-20T12:18:12.914634Z,1697804292914
-3.8092610836029053,2.608948230743408,0.719150185585022,2023-10-20T12:18:12.923925Z,1697804292923
-3.142124891281128,2.7117788791656494,0.37394213676452637,2023-10-20T12:18:12.938481Z,1697804292938
-2.5231449604034424,2.80130672454834,0.08154625445604324,2023-10-20T12:18:12.944652Z,1697804292944
-1.9525872468948364,2.887376070022583,-0.16548702120780945,2023-10-20T12:18:12.955661Z,1697804292955
-1.4283232688903809,2.979830503463745,-0.37128156423568726,2023-10-20T12:18:12.964471Z,1697804292964
-0.9431695938110352,3.088913679122925,-0.5398282408714294,2023-10-20T12:18:12.975784Z,1697804292975
-0.4911399483680725,3.2187492847442627,-0.674984872341156,2023-10-20T12:18:12.988214Z,1697804292988
-0.07170217484235764,3.3638827800750732,-0.7802101373672485,2023-10-20T12:18:12.995956Z,1697804292995
0.3144785463809967,3.5139386653900146,-0.8584306836128235,2023-10-20T12:18:13.005335Z,1697804293005
0.6707279682159424,3.6629302501678467,-0.9135043025016785,2023-10-20T12:18:13.016421Z,1697804293016
1.0043625831604004,3.8111236095428467,-0.9483577013015747,2023-10-20T12:18:13.025586Z,1697804293025
1.3193732500076294,3.956789255142212,-0.9639219641685486,2023-10-20T12:18:13.038464Z,1697804293038
1.6134984493255615,4.094606399536133,-0.9595320820808411,2023-10-20T12:18:13.045708Z,1697804293045
1.8835456371307373,4.219254016876221,-0.9354539513587952,2023-10-20T12:18:13.056664Z,1697804293056
2.12712025642395,4.326607704162598,-0.8947473764419556,2023-10-20T12:18:13.066115Z,1697804293066
2.3428919315338135,4.413208961486816,-0.8419351577758789,2023-10-20T12:18:13.076412Z,1697804293076
2.5303285121917725,4.476796627044678,-0.7822055220603943,2023-10-20T12:18:13.087791Z,1697804293087
2.6892971992492676,4.517104148864746,-0.7198153138160706,2023-10-20T12:18:13.097016Z,1697804293096
2.8219261169433594,4.536925315856934,-0.6572921276092529,2023-10-20T12:18:13.106253Z,1697804293106
2.931807518005371,4.538122177124023,-0.5949019193649292,2023-10-20T12:18:13.117290Z,1697804293117
3.017477512359619,4.516971111297607,-0.5310483574867249,2023-10-20T12:18:13.126773Z,1697804293126
3.0757439136505127,4.46735143661499,-0.4638691544532776,2023-10-20T12:18:13.138387Z,1697804293138
3.105276107788086,4.387800693511963,-0.392300009727478,2023-10-20T12:18:13.146878Z,1697804293146
3.109266996383667,4.282442092895508,-0.315010666847229,2023-10-20T12:18:13.157953Z,1697804293157
3.091574192047119,4.155400276184082,-0.23133595287799835,2023-10-20T12:18:13.166722Z,1697804293166
3.0533952713012695,4.006807804107666,-0.14114287495613098,2023-10-20T12:18:13.178192Z,1697804293178
2.997523307800293,3.8381283283233643,-0.04522957280278206,2023-10-20T12:18:13.187682Z,1697804293187
2.9276835918426514,3.6513566970825195,0.055073656141757965,2023-10-20T12:18:13.198156Z,1697804293198
2.848930835723877,3.4487547874450684,0.15870258212089539,2023-10-20T12:18:13.207878Z,1697804293207
2.765655279159546,3.2328500747680664,0.26273059844970703,2023-10-20T12:18:13.221623Z,1697804293221
2.681581497192383,3.00710129737854,0.3623686730861664,2023-10-20T12:18:13.228351Z,1697804293228
2.6012325286865234,2.7777607440948486,0.45256176590919495,2023-10-20T12:18:13.238791Z,1697804293238
2.5285990238189697,2.5528101921081543,0.5302501916885376,2023-10-20T12:18:13.248498Z,1697804293248
2.465277671813965,2.338634967803955,0.5943697690963745,2023-10-20T12:18:13.259349Z,1697804293259
2.4098050594329834,2.1394917964935303,0.6466498374938965,2023-10-20T12:18:13.270856Z,1697804293270
2.359520435333252,1.9575092792510986,0.6904160976409912,2023-10-20T12:18:13.279451Z,1697804293279
2.3126943111419678,1.7920222282409668,0.7305905818939209,2023-10-20T12:18:13.289027Z,1697804293288
2.2658684253692627,1.63837468624115,0.7724944949150085,2023-10-20T12:18:13.299629Z,1697804293299
2.218510389328003,1.487387776374817,0.8193203806877136,2023-10-20T12:18:13.309122Z,1697804293309
2.176473617553711,1.3285521268844604,0.870536208152771,2023-10-20T12:18:13.321414Z,1697804293321
2.1465423107147217,1.1488311290740967,0.9217520952224731,2023-10-20T12:18:13.329842Z,1697804293329
2.1331064701080322,0.9362521171569824,0.9669816493988037,2023-10-20T12:18:13.340406Z,1697804293340
2.140821933746338,0.6876225471496582,0.9970459938049316,2023-10-20T12:18:13.349140Z,1697804293349
2.1762075424194336,0.4089285433292389,1.000504732131958,2023-10-20T12:18:13.360275Z,1697804293360
2.2407262325286865,0.11453723907470703,0.9667155742645264,2023-10-20T12:18:13.370884Z,1697804293370
2.325864315032959,-0.17932194471359253,0.8898252844810486,2023-10-20T12:18:13.380498Z,1697804293380
2.4165894985198975,-0.4512314796447754,0.7697008848190308,2023-10-20T12:18:13.390135Z,1697804293390
2.500796318054199,-0.6780444979667664,0.6108652949333191,2023-10-20T12:18:13.400683Z,1697804293400
2.5707690715789795,-0.8412700295448303,0.4215662181377411,2023-10-20T12:18:13.410906Z,1697804293410
2.6217188835144043,-0.9306649565696716,0.2129780650138855,2023-10-20T12:18:13.421497Z,1697804293421
2.6488566398620605,-0.9478256106376648,-5.321126081980765E-4,2023-10-20T12:18:13.430756Z,1697804293430
2.646195888519287,-0.9028620719909668,-0.20206975936889648,2023-10-20T12:18:13.441865Z,1697804293441
2.609746217727661,-0.8133341073989868,-0.3760705888271332,2023-10-20T12:18:13.454724Z,1697804293454
2.539374351501465,-0.697333574295044,-0.5108280777931213,2023-10-20T12:18:13.461744Z,1697804293461
2.4382729530334473,-0.5722870826721191,-0.6015533208847046,2023-10-20T12:18:13.471356Z,1697804293471
2.309102773666382,-0.45522233843803406,-0.6479801535606384,2023-10-20T12:18:13.482277Z,1697804293482
2.154390811920166,-0.35970813035964966,-0.6546315550804138,2023-10-20T12:18:13.491355Z,1697804293491
1.9830507040023804,-0.2897353172302246,-0.6333470344543457,2023-10-20T12:18:13.505104Z,1697804293505
1.8107792139053345,-0.23785433173179626,-0.6010211706161499,2023-10-20T12:18:13.511798Z,1697804293511
1.6490169763565063,-0.19621652364730835,-0.5704247355461121,2023-10-20T12:18:13.522450Z,1697804293522
1.4990942478179932,-0.16269342601299286,-0.5442181825637817,2023-10-20T12:18:13.531776Z,1697804293531
1.3535614013671875,-0.13967956602573395,-0.5176125168800354,2023-10-20T12:18:13.542586Z,1697804293542
1.2024414539337158,-0.13089969754219055,-0.4819609820842743,2023-10-20T12:18:13.554080Z,1697804293554
1.0420094728469849,-0.12078956514596939,-0.42728641629219055,2023-10-20T12:18:13.563365Z,1697804293563
0.8757243156433105,-0.13528962433338165,-0.36795586347579956,2023-10-20T12:18:13.572134Z,1697804293572
0.7089070081710815,-0.16508793830871582,-0.30822622776031494,2023-10-20T12:18:13.583239Z,1697804293583
0.5443512201309204,-0.17519807815551758,-0.24051490426063538,2023-10-20T12:18:13.593017Z,1697804293592
0.38232290744781494,-0.18291370570659637,-0.1734687089920044,2023-10-20T12:18:13.604647Z,1697804293604
0.22295518219470978,-0.1882348358631134,-0.10748674720525742,2023-10-20T12:18:13.612863Z,1697804293612
0.06518379598855972,-0.1931568831205368,-0.04070661589503288,2023-10-20T12:18:13.623864Z,1697804293623
-0.09378484636545181,-0.20127159357070923,0.030596474185585976,2023-10-20T12:18:13.633518Z,1697804293633
-0.2530195415019989,-0.2129780650138855,0.10602343827486038,2023-10-20T12:18:13.644276Z,1697804293644
-0.4054698050022125,-0.2233542650938034,0.17985406517982483,2023-10-20T12:18:13.654202Z,1697804293654
-0.5422227382659912,-0.22601483762264252,0.24357454478740692,2023-10-20T12:18:13.664476Z,1697804293664
-0.6608838438987732,-0.21976250410079956,0.2942582666873932,2023-10-20T12:18:13.674069Z,1697804293674
-0.7679715156555176,-0.21084962785243988,0.3369603157043457,2023-10-20T12:18:13.688783Z,1697804293688
-0.8700041174888611,-0.205794557929039,0.3792632520198822,2023-10-20T12:18:13.694368Z,1697804293694
-0.9679128527641296,-0.2073908895254135,0.42409375309944153,2023-10-20T12:18:13.705267Z,1697804293705
-1.0577068328857422,-0.21523955464363098,0.46905726194381714,2023-10-20T12:18:13.714169Z,1697804293714
-1.137656807899475,-0.2305377870798111,0.5093647837638855,2023-10-20T12:18:13.725113Z,1697804293725
-1.204969048500061,-0.2535516619682312,0.5388970375061035,2023-10-20T12:18:13.737759Z,1697804293737
-1.2552536725997925,-0.2809554636478424,0.5506035089492798,2023-10-20T12:18:13.745190Z,1697804293745
-1.2849189043045044,-0.30769410729408264,0.5398282408714294,2023-10-20T12:18:13.754466Z,1697804293754
-1.2942309379577637,-0.3303089141845703,0.5056400299072266,2023-10-20T12:18:13.765378Z,1697804293765
-1.2870473861694336,-0.3480016589164734,0.45309388637542725,2023-10-20T12:18:13.775198Z,1697804293775
-1.2685564756393433,-0.3632998764514923,0.38990551233291626,2023-10-20T12:18:13.788153Z,1697804293788
-1.2476710081100464,-0.3836531937122345,0.32791438698768616,2023-10-20T12:18:13.795512Z,1697804293795
-1.234634280204773,-0.4165111482143402,0.27842792868614197,2023-10-20T12:18:13.806508Z,1697804293806
-1.234634280204773,-0.46347007155418396,0.24676722288131714,2023-10-20T12:18:13.815508Z,1697804293815
-1.2475379705429077,-0.5216034054756165,0.23120293021202087,2023-10-20T12:18:13.826786Z,1697804293826
-1.2685564756393433,-0.5845257043838501,0.2249506115913391,2023-10-20T12:18:13.837645Z,1697804293837
-1.2931666374206543,-0.6462507843971252,0.2217579334974289,2023-10-20T12:18:13.847095Z,1697804293847
-1.3220337629318237,-0.7055813074111938,0.22202397882938385,2023-10-20T12:18:13.856280Z,1697804293856
-1.3643367290496826,-0.7700999975204468,0.23399652540683746,2023-10-20T12:18:13.866979Z,1697804293866
-1.43045175075531,-0.8512471318244934,0.2671205401420593,2023-10-20T12:18:13.876981Z,1697804293876
-1.5178512334823608,-0.9498209953308105,0.3221941888332367,2023-10-20T12:18:13.887839Z,1697804293887
-1.6152278184890747,-1.0574407577514648,0.392965167760849,2023-10-20T12:18:13.896980Z,1697804293896
-1.7157970666885376,-1.1686522960662842,0.4749104976654053,2023-10-20T12:18:13.907876Z,1697804293907
-1.8192930221557617,-1.2823914289474487,0.5644384622573853,2023-10-20T12:18:13.920911Z,1697804293920
-1.9218577146530151,-1.3933368921279907,0.6531682014465332,2023-10-20T12:18:13.928132Z,1697804293928
-2.011385679244995,-1.4880529642105103,0.7269988656044006,2023-10-20T12:18:13.937494Z,1697804293937
-2.0760374069213867,-1.5544339418411255,0.7738247513771057,2023-10-20T12:18:13.948559Z,1697804293948
-2.1114227771759033,-1.5888882875442505,0.7909854054450989,2023-10-20T12:18:13.957920Z,1697804293957
-2.1240603923797607,-1.599131464958191,0.7861963510513306,2023-10-20T12:18:13.971263Z,1697804293971
-2.128317356109619,-1.601126790046692,0.7731596231460571,2023-10-20T12:18:13.978055Z,1697804293978
-2.1349687576293945,-1.6065809726715088,0.7635815739631653,2023-10-20T12:18:13.988575Z,1697804293988
-2.145611047744751,-1.616957187652588,0.7623843550682068,2023-10-20T12:18:13.998276Z,1697804293998
-2.1557211875915527,-1.6274664402008057,0.7691687941551208,2023-10-20T12:18:14.008996Z,1697804294008
-2.1613082885742188,-1.6327875852584839,0.7811412811279297,2023-10-20T12:18:14.020856Z,1697804294020
-2.16117525100708,-1.630526065826416,0.7940450310707092,2023-10-20T12:18:14.029402Z,1697804294029
-2.155189037322998,-1.6189526319503784,0.8014945983886719,2023-10-20T12:18:14.038568Z,1697804294038
-2.141221046447754,-1.5950075387954712,0.7963064908981323,2023-10-20T12:18:14.049677Z,1697804294049
-2.1156797409057617,-1.5541678667068481,0.7723614573478699,2023-10-20T12:18:14.058451Z,1697804294058
-2.0736427307128906,-1.4912456274032593,0.72553551197052,2023-10-20T12:18:14.071208Z,1697804294071
-2.014578342437744,-1.4061075448989868,0.6567599773406982,2023-10-20T12:18:14.079645Z,1697804294079
-1.9431421756744385,-1.30287766456604,0.5705577731132507,2023-10-20T12:18:14.089903Z,1697804294089
-1.862793207168579,-1.1854138374328613,0.4719838798046112,2023-10-20T12:18:14.099344Z,1697804294099
-1.7732652425765991,-1.0553122758865356,0.3644971251487732,2023-10-20T12:18:14.110428Z,1697804294110
-1.6734941005706787,-0.9129722118377686,0.252088338136673,2023-10-20T12:18:14.120779Z,1697804294120
-1.5662734508514404,-0.762783408164978,0.14074379205703735,2023-10-20T12:18:14.130694Z,1697804294130
-1.4585206508636475,-0.6139249205589294,0.035651545971632004,2023-10-20T12:18:14.139745Z,1697804294139
-1.355556845664978,-0.4758417010307312,-0.061325978487730026,2023-10-20T12:18:14.150490Z,1697804294150
-1.2596435546875,-0.3546530604362488,-0.14965666830539703,2023-10-20T12:18:14.160277Z,1697804294160
-1.1715788841247559,-0.25275349617004395,-0.22907447814941406,2023-10-20T12:18:14.171188Z,1697804294171
-1.0913629531860352,-0.17040906846523285,-0.2990472912788391,2023-10-20T12:18:14.180906Z,1697804294180
-1.0196608304977417,-0.10788583010435104,-0.3611714243888855,2023-10-20T12:18:14.191671Z,1697804294191
-0.956871509552002,-0.06451865285634995,-0.4166441857814789,2023-10-20T12:18:14.203656Z,1697804294203
-0.9033941626548767,-0.038711193948984146,-0.4654655158519745,2023-10-20T12:18:14.211868Z,1697804294211
-0.8592288494110107,-0.026871686801314354,-0.5069702863693237,2023-10-20T12:18:14.220984Z,1697804294220
-0.8206506967544556,-0.020220279693603516,-0.5419566631317139,2023-10-20T12:18:14.232275Z,1697804294232
-0.7798110246658325,-0.004123872611671686,-0.5740164518356323,2023-10-20T12:18:14.241319Z,1697804294241
-0.7285951972007751,0.038445137441158295,-0.6066083908081055,2023-10-20T12:18:14.254536Z,1697804294254
-0.6628792881965637,0.11772991716861725,-0.6402645111083984,2023-10-20T12:18:14.261506Z,1697804294261
-0.5830624103546143,0.23585891723632812,-0.6729894280433655,2023-10-20T12:18:14.272182Z,1697804294272
-0.4912729561328888,0.39096975326538086,-0.7015904784202576,2023-10-20T12:18:14.281788Z,1697804294281
-0.3897724747657776,0.5800027251243591,-0.7232740521430969,2023-10-20T12:18:14.292414Z,1697804294292
-0.2820196747779846,0.7967056035995483,-0.7360447645187378,2023-10-20T12:18:14.303964Z,1697804294303
-0.17466595768928528,1.0280416011810303,-0.7371090054512024,2023-10-20T12:18:14.312863Z,1697804294312
-0.07489485293626785,1.2587124109268188,-0.7244713306427002,2023-10-20T12:18:14.321876Z,1697804294321
0.014899153262376785,1.4804702997207642,-0.6981317400932312,2023-10-20T12:18:14.337140Z,1697804294337
0.09431695938110352,1.6907877922058105,-0.659553587436676,2023-10-20T12:18:14.342463Z,1697804294342
0.16096405684947968,1.8842107057571411,-0.6095349788665771,2023-10-20T12:18:14.354059Z,1697804294354
0.20845511555671692,2.0507619380950928,-0.549140214920044,2023-10-20T12:18:14.363282Z,1697804294363
0.23200109601020813,2.1817946434020996,-0.4808967709541321,2023-10-20T12:18:14.373624Z,1697804294373
0.23040476441383362,2.270923614501953,-0.4083964228630066,2023-10-20T12:18:14.382377Z,1697804294382
0.205794557929039,2.313758611679077,-0.3354969918727875,2023-10-20T12:18:14.394412Z,1697804294394
0.16375765204429626,2.3120293617248535,-0.26645538210868835,2023-10-20T12:18:14.403607Z,1697804294403
0.11560146510601044,2.2791712284088135,-0.20592758059501648,2023-10-20T12:18:14.414450Z,1697804294414
0.07582604885101318,2.2385976314544678,-0.16003286838531494,2023-10-20T12:18:14.423628Z,1697804294423
0.05467456951737404,2.20853328704834,-0.1350235790014267,2023-10-20T12:18:14.437400Z,1697804294437
0.05400943011045456,2.193634271621704,-0.1350235790014267,2023-10-20T12:18:14.444113Z,1697804294444
0.06771133095026016,2.1871159076690674,-0.16016589105129242,2023-10-20T12:18:14.454458Z,1697804294454
0.08966097235679626,2.180863618850708,-0.20566152036190033,2023-10-20T12:18:14.464374Z,1697804294464
0.11573449522256851,2.170088291168213,-0.2639278471469879,2023-10-20T12:18:14.475012Z,1697804294474
0.14061075448989868,2.1441478729248047,-0.3249877691268921,2023-10-20T12:18:14.486863Z,1697804294486
0.15444567799568176,2.0836198329925537,-0.37966233491897583,2023-10-20T12:18:14.495779Z,1697804294495
0.14792729914188385,1.970945119857788,-0.4209010601043701,2023-10-20T12:18:14.504545Z,1697804294504
0.1185280829668045,1.8049259185791016,-0.4444470703601837,2023-10-20T12:18:14.515151Z,1697804294515
0.07156914472579956,1.6043195724487305,-0.4495021402835846,2023-10-20T12:18:14.525453Z,1697804294525
0.014367040246725082,1.3940019607543945,-0.43766263127326965,2023-10-20T12:18:14.538190Z,1697804294538
-0.04895436018705368,1.193129539489746,-0.41025882959365845,2023-10-20T12:18:14.544775Z,1697804294544
-0.11666569113731384,1.0106148719787598,-0.367290735244751,2023-10-20T12:18:14.555845Z,1697804294555
-0.18836785852909088,0.849118709564209,-0.3088913559913635,2023-10-20T12:18:14.565013Z,1697804294564
-0.26312968134880066,0.7093061208724976,-0.23732222616672516,2023-10-20T12:18:14.576193Z,1697804294576
-0.34041905403137207,0.5865211486816406,-0.1553768813610077,2023-10-20T12:18:14.587585Z,1697804294587
-0.4194377660751343,0.47238296270370483,-0.0658489316701889,2023-10-20T12:18:14.596469Z,1697804294596
-0.4951307773590088,0.36077234148979187,0.025009293109178543,2023-10-20T12:18:14.605778Z,1697804294605
-0.5592503547668457,0.252088338136673,0.10788583010435104,2023-10-20T12:18:14.621118Z,1697804294621
-0.603681743144989,0.15111997723579407,0.17426687479019165,2023-10-20T12:18:14.626317Z,1697804294626
-0.625498354434967,0.05893146991729736,0.22056066989898682,2023-10-20T12:18:14.637502Z,1697804294637
-0.6277598738670349,-0.027403799816966057,0.24690024554729462,2023-10-20T12:18:14.646326Z,1697804294646
-0.6148561239242554,-0.10988125205039978,0.25554707646369934,2023-10-20T12:18:14.657811Z,1697804294657
-0.5903789401054382,-0.18530821800231934,0.24982686340808868,2023-10-20T12:18:14.670440Z,1697804294670
-0.5572549104690552,-0.24849659204483032,0.2338634878396988,2023-10-20T12:18:14.678108Z,1697804294678
-0.5197409987449646,-0.29598763585090637,0.21098265051841736,2023-10-20T12:18:14.686836Z,1697804294686
-0.48049768805503845,-0.3255198895931244,0.18251462280750275,2023-10-20T12:18:14.698120Z,1697804294698
-0.4270203709602356,-0.31101980805397034,0.15484477579593658,2023-10-20T12:18:14.707090Z,1697804294707
-0.38325411081314087,-0.3078271448612213,0.11427118629217148,2023-10-20T12:18:14.720526Z,1697804294720
-0.3457401692867279,-0.3050335645675659,0.0795508325099945,2023-10-20T12:18:14.727828Z,1697804294727
-0.2946573495864868,-0.28574445843696594,0.028334995731711388,2023-10-20T12:18:14.738574Z,1697804294738
-0.2447717934846878,-0.2793591320514679,-0.04323415085673332,2023-10-20T12:18:14.747596Z,1697804294747
-0.19302384555339813,-0.2579415738582611,-0.09737660735845566,2023-10-20T12:18:14.758683Z,1697804294758
-0.14300526678562164,-0.23905159533023834,-0.15218420326709747,2023-10-20T12:18:14.770208Z,1697804294770
-0.09644541144371033,-0.22375334799289703,-0.20512941479682922,2023-10-20T12:18:14.779445Z,1697804294779
-0.05374337360262871,-0.2124459594488144,-0.2546158730983734,2023-10-20T12:18:14.788173Z,1697804294788
-0.014367040246725082,-0.20446427166461945,-0.30051058530807495,2023-10-20T12:18:14.799632Z,1697804294799
0.022348729893565178,-0.2014046162366867,-0.34334567189216614,2023-10-20T12:18:14.808666Z,1697804294808
0.05613787844777107,-0.20699180662631989,-0.3836531937122345,2023-10-20T12:18:14.820674Z,1697804294820
0.0867343544960022,-0.2244184911251068,-0.42183226346969604,2023-10-20T12:18:14.828898Z,1697804294828
0.1146702691912651,-0.2530195415019989,-0.45854803919792175,2023-10-20T12:18:14.839512Z,1697804294839
0.14127589762210846,-0.2898683547973633,-0.4944656491279602,2023-10-20T12:18:14.849356Z,1697804294849
0.16748245060443878,-0.3324373662471771,-0.5307823419570923,2023-10-20T12:18:14.860268Z,1697804294860
0.1943541318178177,-0.3791302442550659,-0.5685623288154602,2023-10-20T12:18:14.870222Z,1697804294870
0.22401940822601318,-0.42569008469581604,-0.6100671291351318,2023-10-20T12:18:14.880499Z,1697804294880
0.259537935256958,-0.4625388979911804,-0.6592875123023987,2023-10-20T12:18:14.889760Z,1697804294889
0.30223995447158813,-0.4791674017906189,-0.7207465171813965,2023-10-20T12:18:14.904076Z,1697804294904
0.3507952392101288,-0.466396689414978,-0.7984349727630615,2023-10-20T12:18:14.909962Z,1697804294909
0.40427255630493164,-0.4153138995170593,-0.8928849697113037,2023-10-20T12:18:14.921072Z,1697804294921
0.4621398150920868,-0.3171391189098358,-1.0006377696990967,2023-10-20T12:18:14.930431Z,1697804294930
0.5239979028701782,-0.16389068961143494,-1.1159731149673462,2023-10-20T12:18:14.940956Z,1697804294940
0.5875853300094604,0.04230295121669769,-1.2302443981170654,2023-10-20T12:18:14.954091Z,1697804294954
0.6485122442245483,0.28667566180229187,-1.3332080841064453,2023-10-20T12:18:14.961452Z,1697804294961
0.7019895315170288,0.5424888134002686,-1.4140892028808594,2023-10-20T12:18:14.970695Z,1697804294970
0.7438934445381165,0.7798110246658325,-1.4651720523834229,2023-10-20T12:18:14.981828Z,1697804294981
0.7712972164154053,0.9728348851203918,-1.4839290380477905,2023-10-20T12:18:14.990807Z,1697804294990
0.7834028005599976,1.1045327186584473,-1.4711583852767944,2023-10-20T12:18:15.003610Z,1697804295003
0.7819395065307617,1.1710468530654907,-1.4317820072174072,2023-10-20T12:18:15.011301Z,1697804295011
0.770499050617218,1.1807578802108765,-1.3727174997329712,2023-10-20T12:18:15.022062Z,1697804295022
0.7520081400871277,1.1500283479690552,-1.3010153770446777,2023-10-20T12:18:15.031499Z,1697804295031
0.7275309562683105,1.0926932096481323,-1.2226617336273193,2023-10-20T12:18:15.042401Z,1697804295042
0.697333574295044,1.0170001983642578,-1.1411155462265015,2023-10-20T12:18:15.053422Z,1697804295053
0.6623471975326538,0.9288025498390198,-1.0578398704528809,2023-10-20T12:18:15.062458Z,1697804295062
0.6229708194732666,0.8307608366012573,-0.9719036817550659,2023-10-20T12:18:15.071869Z,1697804295071
0.5778743028640747,0.7220768332481384,-0.8807793855667114,2023-10-20T12:18:15.082649Z,1697804295082
0.5132226347923279,0.6163194179534912,-0.7726275324821472,2023-10-20T12:18:15.091931Z,1697804295091
0.4512314796447754,0.47624078392982483,-0.6658058762550354,2023-10-20T12:18:15.103766Z,1697804295103
0.3881761431694031,0.3025060296058655,-0.5593833923339844,2023-10-20T12:18:15.112640Z,1697804295112
0.30210694670677185,0.1327620893716812,-0.43779563903808594,2023-10-20T12:18:15.123195Z,1697804295123
0.21590469777584076,-0.036848798394203186,-0.32232722640037537,2023-10-20T12:18:15.132553Z,1697804295132
0.1416749805212021,-0.18291370570659637,-0.22534969449043274,2023-10-20T12:18:15.143788Z,1697804295143
0.09006005525588989,-0.2885380685329437,-0.1580374389886856,2023-10-20T12:18:15.153139Z,1697804295153
0.0653168261051178,-0.3527906537055969,-0.12557858228683472,2023-10-20T12:18:15.163976Z,1697804295163
0.06438562273979187,-0.38950642943382263,-0.12398223578929901,2023-10-20T12:18:15.173906Z,1697804295173
0.07928477972745895,-0.41345149278640747,-0.14433553814888,2023-10-20T12:18:15.186839Z,1697804295186
0.0993720293045044,-0.4384607970714569,-0.17519807815551758,2023-10-20T12:18:15.193674Z,1697804295193
0.11320696026086807,-0.4808967709541321,-0.2052624374628067,2023-10-20T12:18:15.204769Z,1697804295204
0.11280786991119385,-0.5549934506416321,-0.22574877738952637,2023-10-20T12:18:15.213885Z,1697804295213
0.0960463285446167,-0.6638104915618896,-0.23240017890930176,2023-10-20T12:18:15.224912Z,1697804295224
0.06678013503551483,-0.7979028820991516,-0.22574877738952637,2023-10-20T12:18:15.236522Z,1697804295236
0.028201967477798462,-0.9516834020614624,-0.20925328135490417,2023-10-20T12:18:15.245255Z,1697804295245
-0.017958801239728928,-1.1255512237548828,-0.18650546669960022,2023-10-20T12:18:15.254211Z,1697804295254
-0.0691746398806572,-1.3131208419799805,-0.15989984571933746,2023-10-20T12:18:15.265363Z,1697804295265
-0.1213216781616211,-1.4992272853851318,-0.1311657577753067,2023-10-20T12:18:15.274518Z,1697804295274
-0.17200540006160736,-1.6693702936172485,-0.10056928545236588,2023-10-20T12:18:15.287187Z,1697804295287
-0.22042764723300934,-1.8154351711273193,-0.06904160976409912,2023-10-20T12:18:15.295200Z,1697804295295
-0.26579025387763977,-1.932898998260498,-0.038445137441158295,2023-10-20T12:18:15.305992Z,1697804295305
-0.30716201663017273,-2.0261518955230713,-0.012105561792850494,2023-10-20T12:18:15.315345Z,1697804295315
-0.34268051385879517,-2.107564926147461,0.006917464081197977,2023-10-20T12:18:15.326565Z,1697804295326
-0.37074947357177734,-2.190840721130371,0.017426688224077225,2023-10-20T12:18:15.336403Z,1697804295336
-0.3897724747657776,-2.2815659046173096,0.019954223185777664,2023-10-20T12:18:15.346579Z,1697804295346
-0.3990844488143921,-2.3812038898468018,0.016495490446686745,2023-10-20T12:18:15.355759Z,1697804295355
-0.4005477726459503,-2.4949429035186768,0.008779858238995075,2023-10-20T12:18:15.366239Z,1697804295366
-0.3972220718860626,-2.622649908065796,-9.311970788985491E-4,2023-10-20T12:18:15.376121Z,1697804295376
-0.3924330472946167,-2.7544808387756348,-0.011307393200695515,2023-10-20T12:18:15.387405Z,1697804295387
-0.3875110149383545,-2.870614528656006,-0.02168358862400055,2023-10-20T12:18:15.396716Z,1697804295396
-0.38338714838027954,-2.9553534984588623,-0.03285795450210571,2023-10-20T12:18:15.407323Z,1697804295407
-0.3809926211833954,-3.0056381225585938,-0.044697459787130356,2023-10-20T12:18:15.419852Z,1697804295419
-0.38179078698158264,-3.023995876312256,-0.056403934955596924,2023-10-20T12:18:15.427883Z,1697804295427
-0.3857816457748413,-3.0125555992126465,-0.06651407480239868,2023-10-20T12:18:15.436750Z,1697804295436
-0.3919009268283844,-2.9707846641540527,-0.0746287927031517,2023-10-20T12:18:15.447867Z,1697804295447
-0.39988261461257935,-2.9016101360321045,-0.08114717155694962,2023-10-20T12:18:15.457091Z,1697804295457
-0.4099927544593811,-2.8071601390838623,-0.08713343739509583,2023-10-20T12:18:15.470462Z,1697804295470
-0.42169925570487976,-2.6857054233551025,-0.09232153743505478,2023-10-20T12:18:15.477174Z,1697804295477
-0.4361993074417114,-2.538177251815796,-0.09431695938110352,2023-10-20T12:18:15.488197Z,1697804295488
-0.45482325553894043,-2.3672358989715576,-0.08979400247335434,2023-10-20T12:18:15.497390Z,1697804295497
-0.47836923599243164,-2.172349691390991,-0.07808752357959747,2023-10-20T12:18:15.508230Z,1697804295508
-0.5063051581382751,-1.9499266147613525,-0.05999569594860077,2023-10-20T12:18:15.519635Z,1697804295519
-0.5382319092750549,-1.69704008102417,-0.03551851585507393,2023-10-20T12:18:15.528714Z,1697804295528
-0.574149489402771,-1.4167498350143433,-0.0029266192577779293,2023-10-20T12:18:15.538080Z,1697804295538
-0.6153882145881653,-1.117835521697998,0.0389772467315197,2023-10-20T12:18:15.552738Z,1697804295552
-0.6635444164276123,-0.8136001825332642,0.08912885934114456,2023-10-20T12:18:15.558405Z,1697804295558
-0.7192832231521606,-0.5126904845237732,0.14446857571601868,2023-10-20T12:18:15.569991Z,1697804295569
-0.7808752655982971,-0.21617074310779572,0.20206975936889648,2023-10-20T12:18:15.578940Z,1697804295578
-0.8468571901321411,0.07715632766485214,0.25980398058891296,2023-10-20T12:18:15.589429Z,1697804295589
-0.9160318374633789,0.36423107981681824,0.3160748779773712,2023-10-20T12:18:15.598650Z,1697804295598
-0.9876009821891785,0.6399984359741211,0.36848798394203186,2023-10-20T12:18:15.610248Z,1697804295610
-1.0603673458099365,0.8975409269332886,0.4137175381183624,2023-10-20T12:18:15.619617Z,1697804295619
-1.1322026252746582,1.1276795864105225,0.4483048617839813,2023-10-20T12:18:15.630062Z,1697804295630
-1.1997809410095215,1.322698950767517,0.4691902995109558,2023-10-20T12:18:15.639205Z,1697804295639
-1.2589784860610962,1.4772776365280151,0.47291508316993713,2023-10-20T12:18:15.653570Z,1697804295653
-1.3052722215652466,1.5879570245742798,0.4550893008708954,2023-10-20T12:18:15.660140Z,1697804295660
-1.3349374532699585,1.6535398960113525,0.411190003156662,2023-10-20T12:18:15.670943Z,1697804295670
-1.3447816371917725,1.6768198013305664,0.33842360973358154,2023-10-20T12:18:15.680637Z,1697804295680
-1.3326760530471802,1.6628519296646118,0.2377213090658188,2023-10-20T12:18:15.691245Z,1697804295691
-1.2990199327468872,1.6168241500854492,0.11400512605905533,2023-10-20T12:18:15.703034Z,1697804295702
-1.2462077140808105,1.5443238019943237,-0.025940489023923874,2023-10-20T12:18:15.711367Z,1697804295711
-1.1786293983459473,1.45107102394104,-0.17280356585979462,2023-10-20T12:18:15.720690Z,1697804295720
-1.102404236793518,1.3415888547897339,-0.3171391189098358,2023-10-20T12:18:15.731837Z,1697804295731
-1.024183750152588,1.219602108001709,-0.4488369822502136,2023-10-20T12:18:15.740561Z,1697804295740
-0.9490228295326233,1.0893675088882446,-0.5593833923339844,2023-10-20T12:18:15.753417Z,1697804295753
-0.8807793855667114,0.9550091028213501,-0.6433241367340088,2023-10-20T12:18:15.761500Z,1697804295761
-0.8217148780822754,0.8199855089187622,-0.6979987025260925,2023-10-20T12:18:15.772035Z,1697804295772
-0.7728935480117798,0.6878885626792908,-0.7238062024116516,2023-10-20T12:18:15.781330Z,1697804295781
-0.7333841919898987,0.5629751682281494,-0.722342848777771,2023-10-20T12:18:15.791937Z,1697804295791
-0.7018565535545349,0.4496351480484009,-0.696402370929718,2023-10-20T12:18:15.803263Z,1697804295803
-0.677778422832489,0.34893283247947693,-0.6494434475898743,2023-10-20T12:18:15.812367Z,1697804295812
-0.6606178283691406,0.25767552852630615,-0.586388111114502,2023-10-20T12:18:15.821842Z,1697804295821
-0.6501085758209229,0.16921180486679077,-0.5118923187255859,2023-10-20T12:18:15.832484Z,1697804295832
-0.6443883776664734,0.07994992285966873,-0.4302130341529846,2023-10-20T12:18:15.841968Z,1697804295841
-0.6406635642051697,-0.007715632673352957,-0.34334567189216614,2023-10-20T12:18:15.853785Z,1697804295853
-0.6362736225128174,-0.08939491957426071,-0.25434982776641846,2023-10-20T12:18:15.862310Z,1697804295862
-0.6285580396652222,-0.16442279517650604,-0.16867969930171967,2023-10-20T12:18:15.873680Z,1697804295873
-0.6165854930877686,-0.23506075143814087,-0.09378484636545181,2023-10-20T12:18:15.886489Z,1697804295886
-0.600089967250824,-0.3029051125049591,-0.03538548946380615,2023-10-20T12:18:15.893673Z,1697804295893
-0.5800027251243591,-0.3660934865474701,0.0031926757656037807,2023-10-20T12:18:15.903509Z,1697804295903
-0.5576540231704712,-0.4203689694404602,0.0219496451318264,2023-10-20T12:18:15.914167Z,1697804295914
-0.5345070958137512,-0.4614746570587158,0.02474323660135269,2023-10-20T12:18:15.923132Z,1697804295923
-0.5124244689941406,-0.48821333050727844,0.018357884138822556,2023-10-20T12:18:15.936942Z,1697804295936
-0.4928693175315857,-0.5019152164459229,0.010775280185043812,2023-10-20T12:18:15.943655Z,1697804295943
-0.4765068292617798,-0.5061721205711365,0.008912886492908001,2023-10-20T12:18:15.954207Z,1697804295954
-0.46293798089027405,-0.5068372488021851,0.016229433938860893,2023-10-20T12:18:15.963644Z,1697804295963
-0.4496351480484009,-0.5105620622634888,0.03285795450210571,2023-10-20T12:18:15.974729Z,1697804295974
-0.4331396520137787,-0.5214703679084778,0.054807599633932114,2023-10-20T12:18:15.985680Z,1697804295985
-0.41079092025756836,-0.5410255193710327,0.07662421464920044,2023-10-20T12:18:15.995110Z,1697804295995
-0.381391704082489,-0.5692274570465088,0.09139034152030945,2023-10-20T12:18:16.004241Z,1697804296004
-0.344542920589447,-0.603681743144989,0.09365181624889374,2023-10-20T12:18:16.014582Z,1697804296014
-0.3009096682071686,-0.6406635642051697,0.08194534480571747,2023-10-20T12:18:16.024323Z,1697804296024
-0.25115716457366943,-0.6773793697357178,0.05680302157998085,2023-10-20T12:18:16.036354Z,1697804296036
-0.19714772701263428,-0.7160905599594116,0.020885419100522995,2023-10-20T12:18:16.044973Z,1697804296044
-0.1404777318239212,-0.7619852423667908,-0.022481758147478104,2023-10-20T12:18:16.055541Z,1697804296055
-0.08354167640209198,-0.8165267705917358,-0.06997280567884445,2023-10-20T12:18:16.064713Z,1697804296064
-0.028334995731711388,-0.8766555190086365,-0.11906019598245621,2023-10-20T12:18:16.076049Z,1697804296076
0.022481758147478104,-0.9367842674255371,-0.16841363906860352,2023-10-20T12:18:16.086054Z,1697804296085
0.06744527071714401,-0.9911927580833435,-0.21656982600688934,2023-10-20T12:18:16.095939Z,1697804296095
0.10495921224355698,-1.0354911088943481,-0.2606021463871002,2023-10-20T12:18:16.105142Z,1697804296105
0.1332942098379135,-1.0680830478668213,-0.29718488454818726,2023-10-20T12:18:16.119468Z,1697804296119
0.15205118060112,-1.0912299156188965,-0.32246023416519165,2023-10-20T12:18:16.125355Z,1697804296125
0.16282646358013153,-1.1081244945526123,-0.3313731253147125,2023-10-20T12:18:16.136517Z,1697804296136
0.16921180486679077,-1.1220924854278564,-0.3176712393760681,2023-10-20T12:18:16.146040Z,1697804296146
0.17373476922512054,-1.1367255449295044,-0.2770976424217224,2023-10-20T12:18:16.156653Z,1697804296156
0.1778586357831955,-1.154152274131775,-0.2101844847202301,2023-10-20T12:18:16.169125Z,1697804296169
0.18145039677619934,-1.1735743284225464,-0.12251892685890198,2023-10-20T12:18:16.177235Z,1697804296177
0.18397793173789978,-1.1915332078933716,-0.02288084290921688,2023-10-20T12:18:16.186535Z,1697804296186
0.18464307487010956,-1.2051020860671997,0.07968386262655258,2023-10-20T12:18:16.197820Z,1697804296197
0.18291370570659637,-1.212418556213379,0.17745955288410187,2023-10-20T12:18:16.206599Z,1697804296206
0.17852377891540527,-1.2104231119155884,0.2645930051803589,2023-10-20T12:18:16.219462Z,1697804296219
0.17134025692939758,-1.1963222026824951,0.33789151906967163,2023-10-20T12:18:16.227103Z,1697804296227
0.16123011708259583,-1.17011559009552,0.39642390608787537,2023-10-20T12:18:16.238307Z,1697804296238
0.14845941960811615,-1.133266806602478,0.44218558073043823,2023-10-20T12:18:16.247586Z,1697804296247
0.13409237563610077,-1.087239146232605,0.47823619842529297,2023-10-20T12:18:16.258670Z,1697804296258
0.11972533911466599,-1.034959077835083,0.5068372488021851,2023-10-20T12:18:16.268906Z,1697804296268
0.10615646839141846,-0.9806835651397705,0.529585063457489,2023-10-20T12:18:16.278656Z,1697804296278
0.09418392926454544,-0.9289355874061584,0.5467457175254822,2023-10-20T12:18:16.287955Z,1697804296287
0.08473893254995346,-0.8831738829612732,0.5592503547668457,2023-10-20T12:18:16.298589Z,1697804296298
0.07755541056394577,-0.8465911746025085,0.5672320127487183,2023-10-20T12:18:16.308270Z,1697804296308
0.07223428785800934,-0.8221139907836914,0.5714889168739319,2023-10-20T12:18:16.319515Z,1697804296319
0.0686425268650055,-0.8102744817733765,0.5737504363059998,2023-10-20T12:18:16.328261Z,1697804296328
0.06717921793460846,-0.8082790374755859,0.5761449337005615,2023-10-20T12:18:16.339393Z,1697804296339
0.06811041384935379,-0.8137332201004028,0.5809339284896851,2023-10-20T12:18:16.352447Z,1697804296352
0.07063794881105423,-0.8271690607070923,0.588649570941925,2023-10-20T12:18:16.359741Z,1697804296359
0.07383062690496445,-0.8503159284591675,0.5984936356544495,2023-10-20T12:18:16.368993Z,1697804296368
0.07689027488231659,-0.8831738829612732,0.6092689633369446,2023-10-20T12:18:16.380004Z,1697804296379
0.07994992285966873,-0.9229493141174316,0.6201772689819336,2023-10-20T12:18:16.389625Z,1697804296389
0.08247745782136917,-0.9655183553695679,0.630021333694458,2023-10-20T12:18:16.403005Z,1697804296402
0.0839407667517662,-1.0071561336517334,0.6366727352142334,2023-10-20T12:18:16.409912Z,1697804296409
0.08247745782136917,-1.0454682111740112,0.637736976146698,2023-10-20T12:18:16.420117Z,1697804296420
0.07662421464920044,-1.0789912939071655,0.6318837404251099,2023-10-20T12:18:16.430171Z,1697804296430
0.06544984877109528,-1.1051979064941406,0.6188469529151917,2023-10-20T12:18:16.441273Z,1697804296441
0.049752529710531235,-1.120496153831482,0.6003560423851013,2023-10-20T12:18:16.452592Z,1697804296452
0.03046344593167305,-1.1224915981292725,0.5784063935279846,2023-10-20T12:18:16.461078Z,1697804296461
0.009045914746820927,-1.111051082611084,0.5551264882087708,2023-10-20T12:18:16.470190Z,1697804296470
-0.013568871654570103,-1.087372064590454,0.5330438017845154,2023-10-20T12:18:16.481290Z,1697804296481
-0.036582741886377335,-1.0545141696929932,0.5140208005905151,2023-10-20T12:18:16.490567Z,1697804296490
-0.059463582932949066,-1.016335129737854,0.4989885985851288,2023-10-20T12:18:16.502945Z,1697804296502
-0.08141323179006577,-0.9765596389770508,0.4874151349067688,2023-10-20T12:18:16.511448Z,1697804296511
-0.1015004813671112,-0.936917245388031,0.477970153093338,2023-10-20T12:18:16.522170Z,1697804296522
-0.11972533911466599,-0.8999354243278503,0.4679930508136749,2023-10-20T12:18:16.531003Z,1697804296530
-0.1367529332637787,-0.8676096200942993,0.4549562931060791,2023-10-20T12:18:16.542653Z,1697804296542
-0.15351448953151703,-0.8404718637466431,0.4369974732398987,2023-10-20T12:18:16.552486Z,1697804296552
-0.16974392533302307,-0.8162607550621033,0.4138505756855011,2023-10-20T12:18:16.562157Z,1697804296562
-0.18477609753608704,-0.7925817370414734,0.3868458569049835,2023-10-20T12:18:16.572274Z,1697804296572
-0.19887708127498627,-0.7694348096847534,0.35811179876327515,2023-10-20T12:18:16.586171Z,1697804296586
-0.21257898211479187,-0.748283326625824,0.33124008774757385,2023-10-20T12:18:16.592336Z,1697804296592
-0.22588180005550385,-0.7308566570281982,0.3094234764575958,2023-10-20T12:18:16.603230Z,1697804296603
-0.2375882863998413,-0.7166226506233215,0.2951894700527191,2023-10-20T12:18:16.612312Z,1697804296612
-0.24596905708312988,-0.7025216817855835,0.28960227966308594,2023-10-20T12:18:16.622843Z,1697804296622
-0.24982686340808868,-0.685494065284729,0.2921298146247864,2023-10-20T12:18:16.635596Z,1697804296635
-0.25009292364120483,-0.6640765070915222,0.30051058530807495,2023-10-20T12:18:16.643683Z,1697804296643
-0.2480975091457367,-0.636406660079956,0.3118179738521576,2023-10-20T12:18:16.652837Z,1697804296652
-0.24490483105182648,-0.6012872457504272,0.3231253921985626,2023-10-20T12:18:16.663925Z,1697804296663
-0.24157913029193878,-0.559117317199707,0.3315061628818512,2023-10-20T12:18:16.673141Z,1697804296673
-0.23958370089530945,-0.5138877630233765,0.33336853981018066,2023-10-20T12:18:16.686031Z,1697804296686
-0.24011582136154175,-0.4735802114009857,0.32578593492507935,2023-10-20T12:18:16.693424Z,1697804296693
-0.24237729609012604,-0.4468415677547455,0.3090243935585022,2023-10-20T12:18:16.703972Z,1697804296703
-0.24437271058559418,-0.43819472193717957,0.28840503096580505,2023-10-20T12:18:16.713660Z,1697804296713
-0.24410666525363922,-0.4463094472885132,0.27084532380104065,2023-10-20T12:18:16.724493Z,1697804296724
-0.2414460927248001,-0.4681260585784912,0.25820764899253845,2023-10-20T12:18:16.735629Z,1697804296735
-0.23745524883270264,-0.5024473071098328,0.2463681399822235,2023-10-20T12:18:16.745003Z,1697804296744
-0.23226715624332428,-0.5478099584579468,0.23027172684669495,2023-10-20T12:18:16.754184Z,1697804296754
-0.22481757402420044,-0.6006221175193787,0.2085881382226944,2023-10-20T12:18:16.764936Z,1697804296764
-0.21497349441051483,-0.6576911807060242,0.18198251724243164,2023-10-20T12:18:16.774538Z,1697804296774
-0.20393215119838715,-0.718218982219696,0.14992272853851318,2023-10-20T12:18:16.785814Z,1697804296785
-0.1936889886856079,-0.7830036878585815,0.1086840033531189,2023-10-20T12:18:16.794668Z,1697804296794
-0.1861063838005066,-0.8539077043533325,0.05361034348607063,2023-10-20T12:18:16.805526Z,1697804296805
-0.18251462280750275,-0.930531919002533,-0.016894575208425522,2023-10-20T12:18:16.814620Z,1697804296814
-0.18304674327373505,-1.0092846155166626,-0.0971105545759201,2023-10-20T12:18:16.825734Z,1697804296825
-0.1859733611345291,-1.086840033531189,-0.1766613870859146,2023-10-20T12:18:16.835582Z,1697804296835
-0.18836785852909088,-1.1618678569793701,-0.2480975091457367,2023-10-20T12:18:16.845838Z,1697804296845
-0.18743667006492615,-1.233170986175537,-0.30875834822654724,2023-10-20T12:18:16.855062Z,1697804296855
-0.18145039677619934,-1.2966253757476807,-0.3574466407299042,2023-10-20T12:18:16.869261Z,1697804296869
-0.1701430082321167,-1.3453136682510376,-0.3907036781311035,2023-10-20T12:18:16.875803Z,1697804296875
-0.15298236906528473,-1.3729835748672485,-0.40254318714141846,2023-10-20T12:18:16.886933Z,1697804296886
-0.13076667487621307,-1.3761762380599976,-0.39096975326538086,2023-10-20T12:18:16.896227Z,1697804296896
-0.1053582951426506,-1.355955958366394,-0.3599741756916046,2023-10-20T12:18:16.906841Z,1697804296906
-0.07928477972745895,-1.3169786930084229,-0.3166069984436035,2023-10-20T12:18:16.918837Z,1697804296918
-0.05361034348607063,-1.2653638124465942,-0.266588419675827,2023-10-20T12:18:16.926918Z,1697804296926
-0.027669856324791908,-1.2090928554534912,-0.21337716281414032,2023-10-20T12:18:16.936569Z,1697804296936
-5.321126081980765E-4,-1.1553494930267334,-0.15950074791908264,2023-10-20T12:18:16.947675Z,1697804296947
0.026871686801314354,-1.1093217134475708,-0.10788583010435104,2023-10-20T12:18:16.957205Z,1697804296957
0.0521470345556736,-1.0726059675216675,-0.061059921979904175,2023-10-20T12:18:16.968526Z,1697804296968
0.07276640087366104,-1.0438718795776367,-0.019555138424038887,2023-10-20T12:18:16.977317Z,1697804296977
0.08806463330984116,-1.0196608304977417,0.01849091239273548,2023-10-20T12:18:16.987837Z,1697804296987
0.10003717243671417,-0.992789089679718,0.05720210447907448,2023-10-20T12:18:16.997342Z,1697804296997
0.11041336506605148,-0.9574036002159119,0.10030322521924973,2023-10-20T12:18:17.007801Z,1697804297007
0.12012442201375961,-0.9136373400688171,0.14832639694213867,2023-10-20T12:18:17.018694Z,1697804297018
0.12863822281360626,-0.8658802509307861,0.19821195304393768,2023-10-20T12:18:17.028428Z,1697804297028
0.1355556845664978,-0.819187343120575,0.2442396879196167,2023-10-20T12:18:17.038106Z,1697804297038
0.13967956602573395,-0.7770174145698547,0.281620591878891,2023-10-20T12:18:17.048319Z,1697804297048
0.13848230242729187,-0.7426961660385132,0.30756109952926636,2023-10-20T12:18:17.058165Z,1697804297058
0.13050061464309692,-0.7192832231521606,0.32232722640037537,2023-10-20T12:18:17.068954Z,1697804297068
0.11560146510601044,-0.7061134576797485,0.32751530408859253,2023-10-20T12:18:17.078169Z,1697804297078
0.09484907239675522,-0.6998611092567444,0.3244556486606598,2023-10-20T12:18:17.089369Z,1697804297089
0.0686425268650055,-0.6978656649589539,0.3135473430156708,2023-10-20T12:18:17.102526Z,1697804297102
0.03671576827764511,-0.6991959810256958,0.2942582666873932,2023-10-20T12:18:17.109399Z,1697804297109
-0.0014633096288889647,-0.7059804201126099,0.26645538210868835,2023-10-20T12:18:17.118702Z,1697804297118
-0.04616076871752739,-0.7204804420471191,0.23040476441383362,2023-10-20T12:18:17.129710Z,1697804297129
-0.09671146422624588,-0.7425631284713745,0.18623940646648407,2023-10-20T12:18:17.138935Z,1697804297138
-0.15245026350021362,-0.7702329754829407,0.133427232503891,2023-10-20T12:18:17.152212Z,1697804297152
-0.21257898211479187,-0.8008294701576233,0.07289943099021912,2023-10-20T12:18:17.159285Z,1697804297159
-0.2770976424217224,-0.8330222964286804,0.008380773477256298,2023-10-20T12:18:17.169796Z,1697804297169
-0.34547412395477295,-0.8638848066329956,-0.05520668253302574,2023-10-20T12:18:17.179671Z,1697804297179
-0.4161120653152466,-0.8883619904518127,-0.1136060431599617,2023-10-20T12:18:17.190815Z,1697804297190
-0.4890114963054657,-0.9028620719909668,-0.1641567349433899,2023-10-20T12:18:17.201516Z,1697804297201
-0.5647044777870178,-0.9052565693855286,-0.20486335456371307,2023-10-20T12:18:17.211043Z,1697804297211
-0.6427920460700989,-0.8947473764419556,-0.23426257073879242,2023-10-20T12:18:17.219594Z,1697804297219
-0.7218107581138611,-0.8704031705856323,-0.25168925523757935,2023-10-20T12:18:17.231227Z,1697804297231
-0.7998982667922974,-0.8335543870925903,-0.2586067318916321,2023-10-20T12:18:17.240350Z,1697804297240
-0.8763894438743591,-0.7905862927436829,-0.2590058147907257,2023-10-20T12:18:17.251700Z,1697804297251
-0.9518164396286011,-0.7502787709236145,-0.25767552852630615,2023-10-20T12:18:17.260746Z,1697804297260
-1.0260461568832397,-0.7200813889503479,-0.2579415738582611,2023-10-20T12:18:17.271341Z,1697804297271
-1.0985465049743652,-0.7030537724494934,-0.2606021463871002,2023-10-20T12:18:17.280780Z,1697804297280
-1.1682531833648682,-0.6978656649589539,-0.26485905051231384,2023-10-20T12:18:17.291509Z,1697804297291
-1.234634280204773,-0.7015904784202576,-0.2673865854740143,2023-10-20T12:18:17.301443Z,1697804297301
-1.296492338180542,-0.7106363773345947,-0.26379483938217163,2023-10-20T12:18:17.311918Z,1697804297311
-1.353162407875061,-0.7200813889503479,-0.24982686340808868,2023-10-20T12:18:17.321538Z,1697804297321
-1.4039790630340576,-0.7265997529029846,-0.22322124242782593,2023-10-20T12:18:17.335277Z,1697804297335
-1.448676586151123,-0.7292603254318237,-0.18477609753608704,2023-10-20T12:18:17.341607Z,1697804297341
-1.4869886636734009,-0.730457603931427,-0.13808321952819824,2023-10-20T12:18:17.352813Z,1697804297352
-1.5202456712722778,-0.7367098927497864,-0.09032611548900604,2023-10-20T12:18:17.361818Z,1697804297361
-1.5507091283798218,-0.7548017501831055,-0.04961949959397316,2023-10-20T12:18:17.372874Z,1697804297372
-1.5797092914581299,-0.7880587577819824,-0.022082673385739326,2023-10-20T12:18:17.384919Z,1697804297384
-1.6068470478057861,-0.8350176811218262,-0.009178942069411278,2023-10-20T12:18:17.392776Z,1697804297392
-1.6321223974227905,-0.893284022808075,-0.009311970323324203,2023-10-20T12:18:17.402337Z,1697804297402
-1.6575307846069336,-0.9621925950050354,-0.019555138424038887,2023-10-20T12:18:17.413204Z,1697804297413
-1.6836042404174805,-1.0389498472213745,-0.03605062887072563,2023-10-20T12:18:17.422340Z,1697804297422
-1.709677815437317,-1.1191658973693848,-0.05520668253302574,2023-10-20T12:18:17.435261Z,1697804297435
-1.7345540523529053,-1.1985836029052734,-0.0740966796875,2023-10-20T12:18:17.442929Z,1697804297442
-1.757301926612854,-1.2744096517562866,-0.0911242812871933,2023-10-20T12:18:17.454289Z,1697804297454
-1.7776552438735962,-1.3471760749816895,-0.10522526502609253,2023-10-20T12:18:17.463080Z,1697804297463
-1.794549822807312,-1.4166167974472046,-0.11653266102075577,2023-10-20T12:18:17.474494Z,1697804297474
-1.8067883253097534,-1.4811354875564575,-0.12531252205371857,2023-10-20T12:18:17.484781Z,1697804297484
-1.8134397268295288,-1.5396678447723389,-0.13249604403972626,2023-10-20T12:18:17.494283Z,1697804297494
-1.8161003589630127,-1.5935442447662354,-0.1399456113576889,2023-10-20T12:18:17.503538Z,1697804297503
-1.8171645402908325,-1.6454252004623413,-0.14952364563941956,2023-10-20T12:18:17.514762Z,1697804297514
-1.8168984651565552,-1.6939804553985596,-0.16096405684947968,2023-10-20T12:18:17.523783Z,1697804297523
-1.8139718770980835,-1.7340220212936401,-0.17213842272758484,2023-10-20T12:18:17.535133Z,1697804297535
-1.8086507320404053,-1.7642194032669067,-0.1811843365430832,2023-10-20T12:18:17.544290Z,1697804297544
-1.8021323680877686,-1.7863019704818726,-0.18743667006492615,2023-10-20T12:18:17.555859Z,1697804297555
-1.794150710105896,-1.8019993305206299,-0.19023025035858154,2023-10-20T12:18:17.564210Z,1697804297564
-1.783774495124817,-1.8121094703674316,-0.18916603922843933,2023-10-20T12:18:17.575633Z,1697804297575
-1.7704716920852661,-1.8176966905593872,-0.18464307487010956,2023-10-20T12:18:17.585071Z,1697804297585
-1.7543752193450928,-1.8200911283493042,-0.17852377891540527,2023-10-20T12:18:17.595627Z,1697804297595
-1.7358843088150024,-1.8208893537521362,-0.17320264875888824,2023-10-20T12:18:17.605218Z,1697804297605
-1.7159301042556763,-1.821421504020691,-0.16987694799900055,2023-10-20T12:18:17.619004Z,1697804297618
-1.695044755935669,-1.8216874599456787,-0.16748245060443878,2023-10-20T12:18:17.625723Z,1697804297625
-1.6744253635406494,-1.8206232786178589,-0.16442279517650604,2023-10-20T12:18:17.636559Z,1697804297636
-1.6564666032791138,-1.8188939094543457,-0.15936772525310516,2023-10-20T12:18:17.645818Z,1697804297645
-1.6426316499710083,-1.8179627656936646,-0.15165209770202637,2023-10-20T12:18:17.656142Z,1697804297656
-1.6329206228256226,-1.8175636529922485,-0.14247314631938934,2023-10-20T12:18:17.669161Z,1697804297669
-1.6334526538848877,-1.825146198272705,-0.13582174479961395,2023-10-20T12:18:17.676668Z,1697804297676
-1.6568655967712402,-1.8566739559173584,-0.13595476746559143,2023-10-20T12:18:17.686027Z,1697804297685
-1.7079484462738037,-1.9177337884902954,-0.14087681472301483,2023-10-20T12:18:17.697221Z,1697804297697
-1.7785863876342773,-1.9952892065048218,-0.1415419578552246,2023-10-20T12:18:17.705966Z,1697804297705
-1.8566739559173584,-2.0692529678344727,-0.12863822281360626,2023-10-20T12:18:17.719041Z,1697804297719
-1.9380871057510376,-2.130046844482422,-0.09697752445936203,2023-10-20T12:18:17.727092Z,1697804297727
-2.0240232944488525,-2.1766066551208496,-0.043500207364559174,2023-10-20T12:18:17.738063Z,1697804297738
-2.115945816040039,-2.209597587585449,0.032192811369895935,2023-10-20T12:18:17.746622Z,1697804297746
-2.21571683883667,-2.231015205383301,0.1267758309841156,2023-10-20T12:18:17.758389Z,1697804297758
-2.3237357139587402,-2.2415244579315186,0.2337304651737213,2023-10-20T12:18:17.768575Z,1697804297768
-2.439204216003418,-2.2407262325286865,0.34760257601737976,2023-10-20T12:18:17.778216Z,1697804297778
-2.5602598190307617,-2.2274234294891357,0.46519944071769714,2023-10-20T12:18:17.787161Z,1697804297787
-2.68597149848938,-2.200019598007202,0.5843926668167114,2023-10-20T12:18:17.797876Z,1697804297797
-2.816072940826416,-2.157982587814331,0.7046501040458679,2023-10-20T12:18:17.807241Z,1697804297807
-2.950564384460449,-2.104372262954712,0.8261048197746277,2023-10-20T12:18:17.818701Z,1697804297818
-3.087184429168701,-2.0433123111724854,0.9494219422340393,2023-10-20T12:18:17.827742Z,1697804297827
-3.2192811965942383,-1.9766652584075928,1.073803186416626,2023-10-20T12:18:17.838945Z,1697804297838
-3.3384745121002197,-1.9064264297485352,1.1965882778167725,2023-10-20T12:18:17.851383Z,1697804297851
-3.437713623046875,-1.8359215259552002,1.3149832487106323,2023-10-20T12:18:17.859550Z,1697804297859
-3.5163331031799316,-1.7675451040267944,1.4280571937561035,2023-10-20T12:18:17.868032Z,1697804297867
-3.58031964302063,-1.7008979320526123,1.5376724004745483,2023-10-20T12:18:17.879258Z,1697804297879
-3.639517307281494,-1.6319893598556519,1.6498150825500488,2023-10-20T12:18:17.888759Z,1697804297888
-3.7039027214050293,-1.5545669794082642,1.7743295431137085,2023-10-20T12:18:17.901701Z,1697804297901
-3.7815911769866943,-1.463708758354187,1.922921895980835,2023-10-20T12:18:17.909181Z,1697804297909
-3.8777706623077393,-1.3571531772613525,2.104771375656128,2023-10-20T12:18:17.919988Z,1697804297919
-3.9919087886810303,-1.2390241622924805,2.3209421634674072,2023-10-20T12:18:17.929447Z,1697804297929
-4.116689205169678,-1.11863374710083,2.564649820327759,2023-10-20T12:18:17.939866Z,1697804297939
-4.2385430335998535,-1.0080872774124146,2.823256492614746,2023-10-20T12:18:17.951179Z,1697804297951
-4.343235969543457,-0.9169630408287048,3.0829274654388428,2023-10-20T12:18:17.960181Z,1697804297960
-4.4195942878723145,-0.8507150411605835,3.330359697341919,2023-10-20T12:18:17.969955Z,1697804297969
-4.464291572570801,-0.810939610004425,3.5545122623443604,2023-10-20T12:18:17.984679Z,1697804297984
-4.481452465057373,-0.7961735129356384,3.7499306201934814,2023-10-20T12:18:17.990195Z,1697804297990
-4.476796627044678,-0.8022927641868591,3.9168808460235596,2023-10-20T12:18:18.001703Z,1697804298001
-4.453117370605469,-0.8238433599472046,4.0594868659973145,2023-10-20T12:18:18.009855Z,1697804298009
-4.413341999053955,-0.8544397950172424,4.183070182800293,2023-10-20T12:18:18.021292Z,1697804298021
-4.361860275268555,-0.8908895254135132,4.291355133056641,2023-10-20T12:18:18.030227Z,1697804298030
-4.3006672859191895,-0.9334585666656494,4.386869430541992,2023-10-20T12:18:18.041822Z,1697804298041
-4.230295181274414,-0.9821468591690063,4.469480037689209,2023-10-20T12:18:18.051217Z,1697804298051
-4.153538227081299,-1.0317662954330444,4.538388252258301,2023-10-20T12:18:18.061834Z,1697804298061
-4.075982570648193,-1.071009635925293,4.591599464416504,2023-10-20T12:18:18.070851Z,1697804298070
-4.001486778259277,-1.089633584022522,4.626452922821045,2023-10-20T12:18:18.084827Z,1697804298084
-3.928720474243164,-1.081784963607788,4.640021800994873,2023-10-20T12:18:18.091601Z,1697804298091
-3.8540916442871094,-1.044137954711914,4.630044937133789,2023-10-20T12:18:18.102663Z,1697804298102
-3.7750728130340576,-0.9778899550437927,4.596122741699219,2023-10-20T12:18:18.111864Z,1697804298111
-3.6894028186798096,-0.8894262313842773,4.53945255279541,2023-10-20T12:18:18.122665Z,1697804298122
-3.5960171222686768,-0.7892560362815857,4.462695598602295,2023-10-20T12:18:18.134376Z,1697804298134
-3.4959797859191895,-0.6864252686500549,4.371038913726807,2023-10-20T12:18:18.142910Z,1697804298142
-3.391552686691284,-0.5885165333747864,4.273263454437256,2023-10-20T12:18:18.151492Z,1697804298151
-3.285130262374878,-0.5055069923400879,4.179345607757568,2023-10-20T12:18:18.163112Z,1697804298163
-3.177776575088501,-0.45628654956817627,4.0955376625061035,2023-10-20T12:18:18.172235Z,1697804298172
-3.072019100189209,-0.46307098865509033,4.023303508758545,2023-10-20T12:18:18.184736Z,1697804298184
-2.969454526901245,-0.5419566631317139,3.9585187435150146,2023-10-20T12:18:18.192703Z,1697804298192
-2.8707475662231445,-0.6938748359680176,3.895064353942871,2023-10-20T12:18:18.203463Z,1697804298203
-2.7753663063049316,-0.8990042805671692,3.8268208503723145,2023-10-20T12:18:18.212685Z,1697804298212
-2.681182384490967,-1.1315374374389648,3.747668981552124,2023-10-20T12:18:18.224055Z,1697804298224
-2.5859341621398926,-1.3600798845291138,3.6557466983795166,2023-10-20T12:18:18.234575Z,1697804298234
-2.489621877670288,-1.550576090812683,3.556640625,2023-10-20T12:18:18.244020Z,1697804298244
-2.394240617752075,-1.6722968816757202,3.4643192291259766,2023-10-20T12:18:18.253263Z,1697804298253
-2.3000566959381104,-1.7123383283615112,3.3906214237213135,2023-10-20T12:18:18.267966Z,1697804298267
-2.2058727741241455,-1.693847417831421,3.330359697341919,2023-10-20T12:18:18.274192Z,1697804298274
-2.1122210025787354,-1.6599252223968506,3.2627813816070557,2023-10-20T12:18:18.284688Z,1697804298284
-2.022294044494629,-1.654604196548462,3.161015033721924,2023-10-20T12:18:18.294217Z,1697804298294
-1.9412797689437866,-1.7024942636489868,3.007899522781372,2023-10-20T12:18:18.305473Z,1697804298305
-1.875430941581726,-1.8026645183563232,2.8027701377868652,2023-10-20T12:18:18.317878Z,1697804298317
-1.8304673433303833,-1.9430091381072998,2.5548057556152344,2023-10-20T12:18:18.324657Z,1697804298324
-1.8110452890396118,-2.109161376953125,2.2771759033203125,2023-10-20T12:18:18.334742Z,1697804298334
-1.8200911283493042,-2.2880842685699463,1.982385516166687,2023-10-20T12:18:18.345655Z,1697804298345
-1.8585363626480103,-2.466341972351074,1.6861318349838257,2023-10-20T12:18:18.355017Z,1697804298354
-1.9250503778457642,-2.6324942111968994,1.405442476272583,2023-10-20T12:18:18.368196Z,1697804298368
-2.017904043197632,-2.7822837829589844,1.1502944231033325,2023-10-20T12:18:18.375266Z,1697804298375
-2.1369643211364746,-2.918238639831543,0.9170960783958435,2023-10-20T12:18:18.385981Z,1697804298385
-2.2805016040802,-3.046477794647217,0.6908152103424072,2023-10-20T12:18:18.395680Z,1697804298395
-2.4441261291503906,-3.1651387214660645,0.45908015966415405,2023-10-20T12:18:18.406310Z,1697804298406
-2.6209206581115723,-3.250276803970337,0.21364320814609528,2023-10-20T12:18:18.417774Z,1697804298417
-2.8067610263824463,-3.2704970836639404,-0.06265626102685928,2023-10-20T12:18:18.426843Z,1697804298426
-3.0056381225585938,-3.1983959674835205,-0.39815324544906616,2023-10-20T12:18:18.435606Z,1697804298435
-3.2227399349212646,-3.0108261108398438,-0.808678150177002,2023-10-20T12:18:18.446604Z,1697804298446
-3.4482226371765137,-2.6986091136932373,-1.2704188823699951,2023-10-20T12:18:18.455684Z,1697804298455
-3.6525540351867676,-2.289015293121338,-1.7495862245559692,2023-10-20T12:18:18.468320Z,1697804298468
-3.7894399166107178,-1.8365867137908936,-2.236602306365967,2023-10-20T12:18:18.476927Z,1697804298476
-3.8172428607940674,-1.376442313194275,-2.7413110733032227,2023-10-20T12:18:18.487088Z,1697804298487
-3.7210633754730225,-1.1884734630584717,-3.278611898422241,2023-10-20T12:18:18.496541Z,1697804298496
-3.5132734775543213,-0.9825459122657776,-3.861408233642578,2023-10-20T12:18:18.507500Z,1697804298507
-3.218616247177124,-0.5035115480422974,-4.499011993408203,2023-10-20T12:18:18.517658Z,1697804298517
-2.861036539077759,-0.03644971549510956,-5.178918838500977,2023-10-20T12:18:18.527756Z,1697804298527
-2.4554336071014404,0.41451573371887207,-5.506168365478516,2023-10-20T12:18:18.537377Z,1697804298537
-2.1421523094177246,0.7820724844932556,-5.95553731918335,2023-10-20T12:18:18.551796Z,1697804298551
-1.9290412664413452,0.9829450249671936,-6.171841144561768,2023-10-20T12:18:18.558150Z,1697804298558
-1.815568208694458,0.9691100716590881,-6.048656940460205,2023-10-20T12:18:18.568152Z,1697804298568
-1.7671459913253784,0.7187511324882507,-5.552861213684082,2023-10-20T12:18:18.577487Z,1697804298577
-1.781512975692749,0.21869827806949615,-4.958358287811279,2023-10-20T12:18:18.588267Z,1697804298588
-1.8548115491867065,-0.47890135645866394,-3.8692567348480225,2023-10-20T12:18:18.601596Z,1697804298601
-1.6128332614898682,-1.2533912658691406,-2.9103899002075195,2023-10-20T12:18:18.608580Z,1697804298608
-1.0561105012893677,-1.9798580408096313,-2.1518633365631104,2023-10-20T12:18:18.618146Z,1697804298618
-0.5592503547668457,-2.5803470611572266,-1.4879199266433716,2023-10-20T12:18:18.629236Z,1697804298629
-0.6929436326026917,-2.6569712162017822,-0.8966097235679626,2023-10-20T12:18:18.638297Z,1697804298638
-1.4301856756210327,-2.3237357139587402,-0.34760257601737976,2023-10-20T12:18:18.651004Z,1697804298650
-2.1116888523101807,-2.0661933422088623,0.1810513138771057,2023-10-20T12:18:18.658526Z,1697804298658
-1.9807891845703125,-1.8693115711212158,0.8601600527763367,2023-10-20T12:18:18.670222Z,1697804298670
-1.1464365720748901,-1.7020951509475708,1.6684390306472778,2023-10-20T12:18:18.678915Z,1697804298678
-0.9611284136772156,-1.45413076877594,2.422442674636841,2023-10-20T12:18:18.690026Z,1697804298689
-1.326955795288086,-1.2673592567443848,3.1467809677124023,2023-10-20T12:18:18.701040Z,1697804298701
-1.666975736618042,-1.231042504310608,3.885885238647461,2023-10-20T12:18:18.710574Z,1697804298710
-1.3410568237304688,-1.207363486289978,4.699751377105713,2023-10-20T12:18:18.719598Z,1697804298719
-1.28225839138031,-0.7666412591934204,5.340947151184082,2023-10-20T12:18:18.730230Z,1697804298730
-2.2805016040802,-0.011174364946782589,6.260837078094482,2023-10-20T12:18:18.739643Z,1697804298739
-3.501434087753296,0.5148189663887024,7.207066059112549,2023-10-20T12:18:18.751269Z,1697804298751
-4.865238666534424,0.7921826243400574,8.015345573425293,2023-10-20T12:18:18.760282Z,1697804298760
-6.192859649658203,0.8706692457199097,8.484003067016602,2023-10-20T12:18:18.771011Z,1697804298770
-7.28821325302124,0.8431324362754822,8.494246482849121,2023-10-20T12:18:18.780098Z,1697804298780
-8.031973838806152,0.7987010478973389,8.075607299804688,2023-10-20T12:18:18.790898Z,1697804298790
-8.401525497436523,0.7981688976287842,7.367897033691406,2023-10-20T12:18:18.801231Z,1697804298801
-8.439970970153809,0.8719995617866516,6.532347202301025,2023-10-20T12:18:18.811502Z,1697804298811
-8.219011306762695,1.0261791944503784,5.688017845153809,2023-10-20T12:18:18.820949Z,1697804298820
-7.809683799743652,1.247404932975769,4.89556884765625,2023-10-20T12:18:18.835047Z,1697804298835
-7.267460823059082,1.5108007192611694,4.171097755432129,2023-10-20T12:18:18.841351Z,1697804298841
-6.633315563201904,1.7902928590774536,3.5132734775543213,2023-10-20T12:18:18.851832Z,1697804298851
-5.942234516143799,2.063133716583252,2.9127843379974365,2023-10-20T12:18:18.861569Z,1697804298861
-5.223882675170898,2.314290761947632,2.3564605712890625,2023-10-20T12:18:18.872207Z,1697804298872
-4.686980724334717,2.571035146713257,1.8461647033691406,2023-10-20T12:18:18.884842Z,1697804298884
-3.9085001945495605,2.7758984565734863,1.3445155620574951,2023-10-20T12:18:18.892469Z,1697804298892
-3.179372787475586,2.9636011123657227,0.8819766640663147,2023-10-20T12:18:18.901889Z,1697804298901
-2.498534679412842,3.146514892578125,0.46626368165016174,2023-10-20T12:18:18.912685Z,1697804298912
-1.863857388496399,3.3342175483703613,0.10456012934446335,2023-10-20T12:18:18.921927Z,1697804298921
-1.277868390083313,3.526177167892456,-0.1986110359430313,2023-10-20T12:18:18.934756Z,1697804298934
-0.7425631284713745,3.7178707122802734,-0.4440479576587677,2023-10-20T12:18:18.942002Z,1697804298941
-0.25607919692993164,3.905573606491089,-0.6369388103485107,2023-10-20T12:18:18.953559Z,1697804298953
0.18145039677619934,4.081569671630859,-0.7851321697235107,2023-10-20T12:18:18.962419Z,1697804298962
0.5710898637771606,4.2389421463012695,-0.8986051678657532,2023-10-20T12:18:18.974244Z,1697804298974
0.9145685434341431,4.373167514801025,-0.9866697788238525,2023-10-20T12:18:18.984197Z,1697804298984
1.213748812675476,4.481851577758789,-1.056376576423645,2023-10-20T12:18:18.993815Z,1697804298993
1.467699646949768,4.560737133026123,-1.1098538637161255,2023-10-20T12:18:19.003226Z,1697804299003
1.6651133298873901,4.589471340179443,-1.144707202911377,2023-10-20T12:18:19.017933Z,1697804299017
1.790558934211731,4.541049003601074,-1.1564136743545532,2023-10-20T12:18:19.023283Z,1697804299023
1.8429720401763916,4.4092183113098145,-1.1436430215835571,2023-10-20T12:18:19.034451Z,1697804299034
1.8431050777435303,4.220717430114746,-1.1091886758804321,2023-10-20T12:18:19.043526Z,1697804299043
1.819159984588623,4.01359224319458,-1.0577068328857422,2023-10-20T12:18:19.054520Z,1697804299054
1.7861690521240234,3.8064675331115723,-0.9929221272468567,2023-10-20T12:18:19.066758Z,1697804299066
1.7462605237960815,3.598677635192871,-0.9173621535301208,2023-10-20T12:18:19.074836Z,1697804299074
1.6991685628890991,3.386896848678589,-0.8346186280250549,2023-10-20T12:18:19.084091Z,1697804299084
1.6466224193572998,3.1707260608673096,-0.7478842735290527,2023-10-20T12:18:19.095059Z,1697804299095
1.5915488004684448,2.9541561603546143,-0.6603517532348633,2023-10-20T12:18:19.104378Z,1697804299104
1.5358099937438965,2.7415771484375,-0.5749476552009583,2023-10-20T12:18:19.117461Z,1697804299117
1.4792730808258057,2.5349843502044678,-0.49380049109458923,2023-10-20T12:18:19.124629Z,1697804299124
1.4208736419677734,2.3341119289398193,-0.4182405173778534,2023-10-20T12:18:19.135571Z,1697804299135
1.361011028289795,2.1405560970306396,-0.3495979905128479,2023-10-20T12:18:19.145359Z,1697804299145
1.3012813329696655,1.9584404230117798,-0.289336234331131,2023-10-20T12:18:19.156159Z,1697804299156
1.2431480884552002,1.7904258966445923,-0.2382534146308899,2023-10-20T12:18:19.166550Z,1697804299166
1.1870101690292358,1.6363792419433594,-0.19568441808223724,2023-10-20T12:18:19.176575Z,1697804299176
1.1327346563339233,1.4932409524917603,-0.15830349922180176,2023-10-20T12:18:19.185411Z,1697804299185
1.0793904066085815,1.3567540645599365,-0.12198681384325027,2023-10-20T12:18:19.196580Z,1697804299196
1.0268442630767822,1.2221295833587646,-0.08300956338644028,2023-10-20T12:18:19.205870Z,1697804299205
0.9748302698135376,1.0843124389648438,-0.038445137441158295,2023-10-20T12:18:19.217128Z,1697804299217
0.9234814047813416,0.9393118023872375,0.013302815146744251,2023-10-20T12:18:19.225924Z,1697804299225
0.8742610216140747,0.7852652072906494,0.07263337075710297,2023-10-20T12:18:19.237524Z,1697804299237
0.8290314674377441,0.6219066381454468,0.1394135057926178,2023-10-20T12:18:19.246266Z,1697804299246
0.7885909080505371,0.4473736882209778,0.21430835127830505,2023-10-20T12:18:19.257855Z,1697804299257
0.7516090869903564,0.25647827982902527,0.29997849464416504,2023-10-20T12:18:19.266775Z,1697804299266
0.7154253721237183,0.04270203784108162,0.3994835317134857,2023-10-20T12:18:19.277854Z,1697804299277
0.6793747544288635,-0.19634954631328583,0.5117592811584473,2023-10-20T12:18:19.287268Z,1697804299287
0.645053505897522,-0.45735079050064087,0.6312185525894165,2023-10-20T12:18:19.300703Z,1697804299300
0.6157873272895813,-0.7324529886245728,0.7461549043655396,2023-10-20T12:18:19.307416Z,1697804299307
0.5926403999328613,-1.0135414600372314,0.8433985114097595,2023-10-20T12:18:19.318307Z,1697804299318
0.5737504363059998,-1.2915703058242798,0.9096465110778809,2023-10-20T12:18:19.327614Z,1697804299327
0.5553925633430481,-1.5562963485717773,0.9354539513587952,2023-10-20T12:18:19.338277Z,1697804299338
0.5306493043899536,-1.7982745170593262,0.9213529825210571,2023-10-20T12:18:19.350483Z,1697804299350
0.49193811416625977,-2.0103213787078857,0.8759903907775879,2023-10-20T12:18:19.358289Z,1697804299358
0.4364653527736664,-2.18485426902771,0.8116047382354736,2023-10-20T12:18:19.367471Z,1697804299367
0.3671576976776123,-2.314955949783325,0.7387053370475769,2023-10-20T12:18:19.378799Z,1697804299378
0.28614354133605957,-2.3996949195861816,0.6679343581199646,2023-10-20T12:18:19.388254Z,1697804299388
0.19195961952209473,-2.4478509426116943,0.6104661822319031,2023-10-20T12:18:19.400512Z,1697804299400
0.08327562361955643,-2.4731264114379883,0.5753467679023743,2023-10-20T12:18:19.408542Z,1697804299408
-0.036848798394203186,-2.4861631393432617,0.5660347938537598,2023-10-20T12:18:19.419488Z,1697804299419
-0.1646888554096222,-2.496805429458618,0.5825302600860596,2023-10-20T12:18:19.428802Z,1697804299428
-0.2991803288459778,-2.5155622959136963,0.6245671510696411,2023-10-20T12:18:19.440260Z,1697804299440
-0.437529593706131,-2.546158790588379,0.6868243217468262,2023-10-20T12:18:19.449947Z,1697804299449
-0.5748146176338196,-2.585003137588501,0.7586595416069031,2023-10-20T12:18:19.460102Z,1697804299460
-0.7070446014404297,-2.6265077590942383,0.8281002640724182,2023-10-20T12:18:19.469489Z,1697804299469
-0.8310268521308899,-2.667081356048584,0.8841050863265991,2023-10-20T12:18:19.484044Z,1697804299484
-0.9438347220420837,-2.703132152557373,0.919623613357544,2023-10-20T12:18:19.489762Z,1697804299489
-1.0430737733840942,-2.7305357456207275,0.9311970472335815,2023-10-20T12:18:19.500439Z,1697804299500
-1.1310054063796997,-2.7508890628814697,0.9237474799156189,2023-10-20T12:18:19.510013Z,1697804299509
-1.2126846313476562,-2.769646167755127,0.9059216976165771,2023-10-20T12:18:19.520918Z,1697804299520
-1.2914372682571411,-2.7894673347473145,0.8888941407203674,2023-10-20T12:18:19.533290Z,1697804299533
-1.3668642044067383,-2.806494951248169,0.8813115358352661,2023-10-20T12:18:19.540880Z,1697804299540
-1.433644413948059,-2.8079581260681152,0.8871647715568542,2023-10-20T12:18:19.550720Z,1697804299550
-1.4871217012405396,-2.7817516326904297,0.9059216976165771,2023-10-20T12:18:19.561590Z,1697804299561
-1.5266311168670654,-2.725480794906616,0.9349218606948853,2023-10-20T12:18:19.570587Z,1697804299570
-1.5541678667068481,-2.644599676132202,0.9719036817550659,2023-10-20T12:18:19.583841Z,1697804299583
-1.57146155834198,-2.5492184162139893,1.0139405727386475,2023-10-20T12:18:19.591074Z,1697804299591
-1.5809065103530884,-2.4510436058044434,1.0586379766464233,2023-10-20T12:18:19.601641Z,1697804299601
-1.5862276554107666,-2.364309310913086,1.1041336059570312,2023-10-20T12:18:19.611342Z,1697804299611
-1.5902185440063477,-2.3015201091766357,1.149097204208374,2023-10-20T12:18:19.622412Z,1697804299622
-1.5954066514968872,-2.2702584266662598,1.195124864578247,2023-10-20T12:18:19.634128Z,1697804299634
-1.6012598276138306,-2.2694602012634277,1.2455426454544067,2023-10-20T12:18:19.642374Z,1697804299642
-1.6037874221801758,-2.2876851558685303,1.302345633506775,2023-10-20T12:18:19.651853Z,1697804299651
-1.5975351333618164,-2.309102773666382,1.3654009103775024,2023-10-20T12:18:19.662560Z,1697804299662
-1.5787781476974487,-2.319079875946045,1.432314157485962,2023-10-20T12:18:19.671943Z,1697804299671
-1.5463192462921143,-2.308171510696411,1.4993603229522705,2023-10-20T12:18:19.683416Z,1697804299683
-1.501355767250061,-2.271721839904785,1.5598881244659424,2023-10-20T12:18:19.692639Z,1697804299692
-1.4485435485839844,-2.2127902507781982,1.6080442667007446,2023-10-20T12:18:19.703122Z,1697804299703
-1.395066261291504,-2.1398909091949463,1.639704942703247,2023-10-20T12:18:19.712167Z,1697804299712
-1.346377968788147,-2.061537265777588,1.6520766019821167,2023-10-20T12:18:19.723421Z,1697804299723
-1.3058043718338013,-1.9846470355987549,1.6446270942687988,2023-10-20T12:18:19.733299Z,1697804299733
-1.2737445831298828,-1.914275050163269,1.618686556816101,2023-10-20T12:18:19.743949Z,1697804299743
-1.2491343021392822,-1.8536142110824585,1.5793101787567139,2023-10-20T12:18:19.753012Z,1697804299752
-1.2298452854156494,-1.8021323680877686,1.5315531492233276,2023-10-20T12:18:19.767061Z,1697804299767
-1.2130837440490723,-1.7534440755844116,1.479140043258667,2023-10-20T12:18:19.773238Z,1697804299773
-1.1979185342788696,-1.7012970447540283,1.4259287118911743,2023-10-20T12:18:19.783969Z,1697804299783
-1.1836844682693481,-1.6403701305389404,1.3744468688964844,2023-10-20T12:18:19.793343Z,1697804299793
-1.1683862209320068,-1.56427800655365,1.3242952823638916,2023-10-20T12:18:19.804089Z,1697804299804
-1.14949631690979,-1.46650230884552,1.2717491388320923,2023-10-20T12:18:19.816280Z,1697804299816
-1.1259503364562988,-1.3429192304611206,1.2134828567504883,2023-10-20T12:18:19.824408Z,1697804299824
-1.0978813171386719,-1.196987271308899,1.1496292352676392,2023-10-20T12:18:19.834427Z,1697804299834
-1.0652894973754883,-1.0358902215957642,1.0844454765319824,2023-10-20T12:18:19.845317Z,1697804299845
-1.027376413345337,-0.8672105073928833,1.0217891931533813,2023-10-20T12:18:19.854296Z,1697804299854
-0.9842752814292908,-0.6974666118621826,0.9631237983703613,2023-10-20T12:18:19.866639Z,1697804299866
-0.9374493956565857,-0.530915379524231,0.909114420413971,2023-10-20T12:18:19.874588Z,1697804299874
-0.8868986964225769,-0.37035036087036133,0.8614903092384338,2023-10-20T12:18:19.885745Z,1697804299885
-0.8318250179290771,-0.21590469777584076,0.8225130438804626,2023-10-20T12:18:19.894505Z,1697804299894
-0.7716963291168213,-0.06731224805116653,0.7919166088104248,2023-10-20T12:18:19.906540Z,1697804299906
-0.7081088423728943,0.07502787560224533,0.7685036063194275,2023-10-20T12:18:19.916339Z,1697804299916
-0.6425259709358215,0.2101844847202301,0.7502787709236145,2023-10-20T12:18:19.925739Z,1697804299925
-0.5750806927680969,0.33935481309890747,0.7356456518173218,2023-10-20T12:18:19.935123Z,1697804299935
-0.5057730078697205,0.463204026222229,0.7231410145759583,2023-10-20T12:18:19.946032Z,1697804299946
-0.43713051080703735,0.5801357626914978,0.7123657464981079,2023-10-20T12:18:19.955180Z,1697804299955
-0.37301093339920044,0.6869573593139648,0.7026547193527222,2023-10-20T12:18:19.966853Z,1697804299966
-0.3151437044143677,0.7820724844932556,0.6924115419387817,2023-10-20T12:18:19.975877Z,1697804299975
-0.2624645531177521,0.8676096200942993,0.6779114603996277,2023-10-20T12:18:19.988869Z,1697804299988
-0.2119138389825821,0.9459632039070129,0.6564939022064209,2023-10-20T12:18:19.999634Z,1697804299999
-0.16335856914520264,1.0158029794692993,0.6274937987327576,2023-10-20T12:18:20.006202Z,1697804300006
-0.12105561792850494,1.0707435607910156,0.5919752717018127,2023-10-20T12:18:20.016243Z,1697804300016
-0.09019308537244797,1.1030694246292114,0.5511356592178345,2023-10-20T12:18:20.027070Z,1697804300027
-0.07343153655529022,1.1103860139846802,0.5044427514076233,2023-10-20T12:18:20.036907Z,1697804300036
-0.0691746398806572,1.0974822044372559,0.4499012231826782,2023-10-20T12:18:20.050627Z,1697804300050
-0.07436273992061615,1.0712757110595703,0.3864467740058899,2023-10-20T12:18:20.057140Z,1697804300057
-0.08567012846469879,1.0384176969528198,0.3160748779773712,2023-10-20T12:18:20.067748Z,1697804300067
-0.09644541144371033,1.0103487968444824,0.24290940165519714,2023-10-20T12:18:20.077423Z,1697804300077
-0.09750963747501373,1.0030322074890137,0.17306962609291077,2023-10-20T12:18:20.088236Z,1697804300088
-0.08101414144039154,1.0312342643737793,0.1125418171286583,2023-10-20T12:18:20.099575Z,1697804300099
-0.042835064232349396,1.1017391681671143,0.06811041384935379,2023-10-20T12:18:20.107932Z,1697804300107
0.017426688224077225,1.213748812675476,0.04522957280278206,2023-10-20T12:18:20.117270Z,1697804300117
0.09830780327320099,1.3640706539154053,0.04642682522535324,2023-10-20T12:18:20.128618Z,1697804300128
0.1942211091518402,1.542860507965088,0.07010583579540253,2023-10-20T12:18:20.137370Z,1697804300137
0.29612067341804504,1.7333568334579468,0.11041336506605148,2023-10-20T12:18:20.150107Z,1697804300150
0.39269909262657166,1.9160044193267822,0.1585695594549179,2023-10-20T12:18:20.158485Z,1697804300158
0.4754426181316376,2.0761704444885254,0.20539546012878418,2023-10-20T12:18:20.169095Z,1697804300169
0.5400943160057068,2.2042765617370605,0.2431754618883133,2023-10-20T12:18:20.178410Z,1697804300178
0.5835945010185242,2.2924740314483643,0.266854465007782,2023-10-20T12:18:20.189148Z,1697804300189
0.6052780747413635,2.3371715545654297,0.2740379869937897,2023-10-20T12:18:20.199227Z,1697804300199
0.6075395941734314,2.341827630996704,0.26432693004608154,2023-10-20T12:18:20.209618Z,1697804300209
0.5960991382598877,2.315355062484741,0.2382534146308899,2023-10-20T12:18:20.219011Z,1697804300218
0.5760118961334229,2.2654693126678467,0.19581744074821472,2023-10-20T12:18:20.233059Z,1697804300233
0.549140214920044,2.196560859680176,0.13741807639598846,2023-10-20T12:18:20.239528Z,1697804300239
0.5165483355522156,2.1122210025787354,0.06425260007381439,2023-10-20T12:18:20.250199Z,1697804300250
0.47943344712257385,2.0176379680633545,-0.02261478640139103,2023-10-20T12:18:20.259579Z,1697804300259
0.4401901662349701,1.9187980890274048,-0.12145470082759857,2023-10-20T12:18:20.270801Z,1697804300270
0.4013459384441376,1.8200911283493042,-0.2277441918849945,2023-10-20T12:18:20.282570Z,1697804300282
0.3632998764514923,1.7227145433425903,-0.3348318636417389,2023-10-20T12:18:20.290481Z,1697804300290
0.3248547613620758,1.6258701086044312,-0.43540114164352417,2023-10-20T12:18:20.299924Z,1697804300299
0.28468024730682373,1.5294246673583984,-0.5250621438026428,2023-10-20T12:18:20.310754Z,1697804300310
0.24290940165519714,1.4345755577087402,-0.6010211706161499,2023-10-20T12:18:20.319924Z,1697804300319
0.20047342777252197,1.3415888547897339,-0.6616820096969604,2023-10-20T12:18:20.332578Z,1697804300332
0.15723927319049835,1.2487353086471558,-0.7055813074111938,2023-10-20T12:18:20.340820Z,1697804300340
0.11267484724521637,1.1549503803253174,-0.733650267124176,2023-10-20T12:18:20.351919Z,1697804300351
0.06877555698156357,1.0610325336456299,-0.7478842735290527,2023-10-20T12:18:20.360846Z,1697804300360
0.027669856324791908,0.9675137400627136,-0.7506778836250305,2023-10-20T12:18:20.371589Z,1697804300371
-0.009844083338975906,0.8729307055473328,-0.7434943318367004,2023-10-20T12:18:20.382660Z,1697804300382
-0.04562865570187569,0.7744898796081543,-0.7277970314025879,2023-10-20T12:18:20.391753Z,1697804300391
-0.08101414144039154,0.671393096446991,-0.7050492167472839,2023-10-20T12:18:20.401423Z,1697804300401
-0.09139034152030945,0.5736173987388611,-0.6414617300033569,2023-10-20T12:18:20.411939Z,1697804300411
-0.12863822281360626,0.46506643295288086,-0.6161863803863525,2023-10-20T12:18:20.421266Z,1697804300421
-0.18836785852909088,0.348400741815567,-0.6217736005783081,2023-10-20T12:18:20.432935Z,1697804300432
-0.21936342120170593,0.24078094959259033,-0.5802688002586365,2023-10-20T12:18:20.442108Z,1697804300442
-0.2502259612083435,0.13196392357349396,-0.5334429144859314,2023-10-20T12:18:20.452571Z,1697804300452
-0.28015729784965515,0.02101844735443592,-0.48116281628608704,2023-10-20T12:18:20.461458Z,1697804300461
-0.30915743112564087,-0.0949821025133133,-0.42515796422958374,2023-10-20T12:18:20.473272Z,1697804300473
-0.3376254439353943,-0.2179001122713089,-0.36808890104293823,2023-10-20T12:18:20.482738Z,1697804300482
-0.3650292456150055,-0.34707045555114746,-0.3140794634819031,2023-10-20T12:18:20.493095Z,1697804300493
-0.3903045952320099,-0.47717198729515076,-0.26871687173843384,2023-10-20T12:18:20.502469Z,1697804300502
-0.41291937232017517,-0.6022184491157532,-0.23785433173179626,2023-10-20T12:18:20.516626Z,1697804300516
-0.4335387349128723,-0.7163565754890442,-0.22548271715641022,2023-10-20T12:18:20.523019Z,1697804300522
-0.4540250897407532,-0.8169258832931519,-0.23293229937553406,2023-10-20T12:18:20.533725Z,1697804300533
-0.4765068292617798,-0.9044584035873413,-0.25873976945877075,2023-10-20T12:18:20.543212Z,1697804300543
-0.5012500882148743,-0.97868812084198,-0.29944637417793274,2023-10-20T12:18:20.554274Z,1697804300554
-0.5262593626976013,-1.0378856658935547,-0.3506622016429901,2023-10-20T12:18:20.565822Z,1697804300565
-0.5495392680168152,-1.0803216695785522,-0.40799733996391296,2023-10-20T12:18:20.574626Z,1697804300574
-0.5704247355461121,-1.1075923442840576,-0.4674609303474426,2023-10-20T12:18:20.583306Z,1697804300583
-0.5898468494415283,-1.123289704322815,-0.5269244909286499,2023-10-20T12:18:20.594846Z,1697804300594
-0.607805609703064,-1.1303402185440063,-0.5857229828834534,2023-10-20T12:18:20.603813Z,1697804300603
-0.6250993013381958,-1.1314043998718262,-0.6443883776664734,2023-10-20T12:18:20.616491Z,1697804300616
-0.6419938802719116,-1.1275466680526733,-0.7035859227180481,2023-10-20T12:18:20.624665Z,1697804300624
-0.6584893465042114,-1.121028184890747,-0.7635815739631653,2023-10-20T12:18:20.635305Z,1697804300635
-0.6748518347740173,-1.1149089336395264,-0.8246415257453918,2023-10-20T12:18:20.644724Z,1697804300644
-0.6913473010063171,-1.1117162704467773,-0.8862335681915283,2023-10-20T12:18:20.655693Z,1697804300655
-0.7074437141418457,-1.112248420715332,-0.9462292194366455,2023-10-20T12:18:20.666075Z,1697804300666
-0.7226089239120483,-1.1167713403701782,-1.000903844833374,2023-10-20T12:18:20.675776Z,1697804300675
-0.7360447645187378,-1.1256842613220215,-1.0466655492782593,2023-10-20T12:18:20.685143Z,1697804300685
-0.7465540170669556,-1.1395190954208374,-1.0812528133392334,2023-10-20T12:18:20.695467Z,1697804300695
-0.7529393434524536,-1.1596064567565918,-1.1045327186584473,2023-10-20T12:18:20.705875Z,1697804300705
-0.7546687126159668,-1.1874092817306519,-1.1175694465637207,2023-10-20T12:18:20.716730Z,1697804300716
-0.7514760494232178,-1.223193883895874,-1.1220924854278564,2023-10-20T12:18:20.725658Z,1697804300725
-0.7452237010002136,-1.2661619186401367,-1.1192988157272339,2023-10-20T12:18:20.736943Z,1697804300736
-0.7380402088165283,-1.314717173576355,-1.1097208261489868,2023-10-20T12:18:20.749300Z,1697804300749
-0.7312557697296143,-1.3655339479446411,-1.0941565036773682,2023-10-20T12:18:20.756916Z,1697804300756
-0.7240722179412842,-1.4126259088516235,-1.0743353366851807,2023-10-20T12:18:20.765962Z,1697804300765
-0.7152923941612244,-1.4500068426132202,-1.0518536567687988,2023-10-20T12:18:20.776760Z,1697804300776
-0.7051822543144226,-1.4744840860366821,-1.0280416011810303,2023-10-20T12:18:20.786002Z,1697804300785
-0.6945399641990662,-1.4857914447784424,-1.0034313201904297,2023-10-20T12:18:20.799408Z,1697804300799
-0.6834986209869385,-1.4868556261062622,-0.9774908423423767,2023-10-20T12:18:20.806692Z,1697804300806
-0.6720582246780396,-1.4820666313171387,-0.9499540328979492,2023-10-20T12:18:20.818110Z,1697804300818
-0.6599526405334473,-1.475149154663086,-0.9212199449539185,2023-10-20T12:18:20.826971Z,1697804300826
-0.6467828750610352,-1.46650230884552,-0.8910225629806519,2023-10-20T12:18:20.837757Z,1697804300837
-0.6308194994926453,-1.4557271003723145,-0.8572334051132202,2023-10-20T12:18:20.848993Z,1697804300848
-0.6103331446647644,-1.4426902532577515,-0.8170589208602905,2023-10-20T12:18:20.857831Z,1697804300857
-0.5841265916824341,-1.4276580810546875,-0.7686366438865662,2023-10-20T12:18:20.867273Z,1697804300867
-0.5521998405456543,-1.4100984334945679,-0.7130308747291565,2023-10-20T12:18:20.878019Z,1697804300878
-0.5164152979850769,-1.3880157470703125,-0.652237057685852,2023-10-20T12:18:20.887335Z,1697804300887
-0.47996556758880615,-1.3603458404541016,-0.589181661605835,2023-10-20T12:18:20.899341Z,1697804300899
-0.4463094472885132,-1.3270888328552246,-0.5281217694282532,2023-10-20T12:18:20.908280Z,1697804300908
-0.4181074798107147,-1.2903730869293213,-0.47397929430007935,2023-10-20T12:18:20.919095Z,1697804300919
-0.39602482318878174,-1.2559187412261963,-0.4319424033164978,2023-10-20T12:18:20.927735Z,1697804300927
-0.3787311613559723,-1.2302443981170654,-0.4050707221031189,2023-10-20T12:18:20.939144Z,1697804300939
-0.3629007935523987,-1.2182718515396118,-0.39096975326538086,2023-10-20T12:18:20.949490Z,1697804300949
-0.3446759283542633,-1.2222626209259033,-0.38378623127937317,2023-10-20T12:18:20.959139Z,1697804300959
-0.32086390256881714,-1.2396893501281738,-0.3742081820964813,2023-10-20T12:18:20.968367Z,1697804300968
-0.29013440012931824,-1.2633683681488037,-0.3551851511001587,2023-10-20T12:18:20.982774Z,1697804300982
-0.25341862440109253,-1.2815932035446167,-0.32192811369895935,2023-10-20T12:18:20.989303Z,1697804300989
-0.2135101854801178,-1.2842538356781006,-0.2723086178302765,2023-10-20T12:18:21.000223Z,1697804301000
-0.1745329350233078,-1.2677582502365112,-0.20765694975852966,2023-10-20T12:18:21.010162Z,1697804301010
-0.1399456113576889,-1.2322397232055664,-0.13236300647258759,2023-10-20T12:18:21.020405Z,1697804301020
-0.11081244796514511,-1.1806248426437378,-0.0526791475713253,2023-10-20T12:18:21.033284Z,1697804301033
-0.08606921136379242,-1.1166383028030396,0.0260735172778368,2023-10-20T12:18:21.040641Z,1697804301040
-0.06411956995725632,-1.0457342863082886,0.10216562449932098,2023-10-20T12:18:21.050243Z,1697804301050
-0.04323415085673332,-0.9735000133514404,0.1755971610546112,2023-10-20T12:18:21.061130Z,1697804301061
-0.023412954062223434,-0.9044584035873413,0.2453039139509201,2023-10-20T12:18:21.069919Z,1697804301069
-0.005853238515555859,-0.8412700295448303,0.30862531065940857,2023-10-20T12:18:21.083001Z,1697804301082
0.008247745223343372,-0.7843340039253235,0.3638319969177246,2023-10-20T12:18:21.090422Z,1697804301090
0.01755971647799015,-0.7324529886245728,0.411589115858078,2023-10-20T12:18:21.101457Z,1697804301101
