ACC_X,ACC_Y,ACC_Z,DATE,UNIX_TIMESTAMP
-0.02476048469543457,-0.016220569610595703,-0.05910015106201172,2023-10-20T12:18:09.144635Z,1697804289144
-0.030557632446289062,-0.02050161361694336,-0.07410526275634766,2023-10-20T12:18:09.164905Z,1697804289164
-0.0497281551361084,-0.03186798095703125,-0.1194295883178711,2023-10-20T12:18:09.184882Z,1697804289184
-0.05092358589172363,-0.030849456787109375,-0.12192249298095703,2023-10-20T12:18:09.205828Z,1697804289205
-0.06047821044921875,-0.037129878997802734,-0.14055442810058594,2023-10-20T12:18:09.225653Z,1697804289225
-0.026398181915283203,-0.014891862869262695,-0.05859565734863281,2023-10-20T12:18:09.246451Z,1697804289246
-0.004966020584106445,-0.0029277801513671875,-0.011206626892089844,2023-10-20T12:18:09.266252Z,1697804289266
0.001012563705444336,5.908012390136719E-4,0.0022602081298828125,2023-10-20T12:18:09.286022Z,1697804289285
-0.012251615524291992,-0.007066965103149414,-0.027449607849121094,2023-10-20T12:18:09.306742Z,1697804289306
-0.014260053634643555,-0.008348226547241211,-0.032501220703125,2023-10-20T12:18:09.326851Z,1697804289326
-0.02677440643310547,-0.016080141067504883,-0.061713218688964844,2023-10-20T12:18:09.347553Z,1697804289347
-0.026465415954589844,-0.015683412551879883,-0.060753822326660156,2023-10-20T12:18:09.367598Z,1697804289367
-0.02498626708984375,-0.014663934707641602,-0.057097434997558594,2023-10-20T12:18:09.389233Z,1697804289389
-0.026546716690063477,-0.015548467636108398,-0.060486793518066406,2023-10-20T12:18:09.408166Z,1697804289408
-0.030968904495239258,-0.0181729793548584,-0.0705413818359375,2023-10-20T12:18:09.428421Z,1697804289428
-0.04434919357299805,-0.026456356048583984,-0.10135459899902344,2023-10-20T12:18:09.449038Z,1697804289449
-0.06615805625915527,-0.04029560089111328,-0.15141868591308594,2023-10-20T12:18:09.469050Z,1697804289469
-0.09627938270568848,-0.060621023178100586,-0.22056007385253906,2023-10-20T12:18:09.489155Z,1697804289489
-0.13507485389709473,-0.09030771255493164,-0.3096761703491211,2023-10-20T12:18:09.509810Z,1697804289509
-0.18714356422424316,-0.13519048690795898,-0.4298534393310547,2023-10-20T12:18:09.529615Z,1697804289529
-0.24101924896240234,-0.18865060806274414,-0.5561542510986328,2023-10-20T12:18:09.550393Z,1697804289550
-0.2849404811859131,-0.23795771598815918,-0.6630458831787109,2023-10-20T12:18:09.573638Z,1697804289573
-0.31505298614501953,-0.27516794204711914,-0.7415676116943359,2023-10-20T12:18:09.593653Z,1697804289593
-0.33409619331359863,-0.3049905300140381,-0.7930698394775391,2023-10-20T12:18:09.610244Z,1697804289610
-0.36358118057250977,-0.3497200012207031,-0.8588318824768066,2023-10-20T12:18:09.631142Z,1697804289631
-0.4043126106262207,-0.41645240783691406,-0.9383068084716797,2023-10-20T12:18:09.651691Z,1697804289651
-0.4559903144836426,-0.5120894908905029,-1.0288910865783691,2023-10-20T12:18:09.673556Z,1697804289673
-0.510338544845581,-0.6244730949401855,-1.107144832611084,2023-10-20T12:18:09.693694Z,1697804289693
-0.5619194507598877,-0.7380537986755371,-1.1604442596435547,2023-10-20T12:18:09.712049Z,1697804289712
-0.6097967624664307,-0.8312468528747559,-1.165414810180664,2023-10-20T12:18:09.732578Z,1697804289732
-0.6578717231750488,-0.9137134552001953,-1.1341285705566406,2023-10-20T12:18:09.752691Z,1697804289752
-0.7004344463348389,-0.9816579818725586,-1.0542073249816895,2023-10-20T12:18:09.773363Z,1697804289773
-0.7348556518554688,-1.0242242813110352,-0.9232878684997559,2023-10-20T12:18:09.793130Z,1697804289793
-0.756011962890625,-1.0232629776000977,-0.7621517181396484,2023-10-20T12:18:09.813438Z,1697804289813
-0.4062533378601074,-0.3791649341583252,-0.8283653259277344,2023-10-20T12:18:09.833836Z,1697804289833
-0.45720338821411133,-0.4401671886444092,-0.8913750648498535,2023-10-20T12:18:09.855237Z,1697804289855
-0.5107378959655762,-0.5037407875061035,-0.9435606002807617,2023-10-20T12:18:09.874335Z,1697804289874
-0.5657775402069092,-0.5665466785430908,-0.980443000793457,2023-10-20T12:18:09.894437Z,1697804289894
-0.6206820011138916,-0.624312162399292,-0.9979186058044434,2023-10-20T12:18:09.914905Z,1697804289914
-0.6729793548583984,-0.6727514266967773,-0.9936413764953613,2023-10-20T12:18:09.935397Z,1697804289935
-0.7188730239868164,-0.7070999145507812,-0.9663276672363281,2023-10-20T12:18:09.956519Z,1697804289956
-0.7539782524108887,-0.7233939170837402,-0.9164495468139648,2023-10-20T12:18:09.975009Z,1697804289974
-0.7732815742492676,-0.7186150550842285,-0.8460674285888672,2023-10-20T12:18:09.995770Z,1697804289995
-0.7721843719482422,-0.6911296844482422,-0.7586703300476074,2023-10-20T12:18:10.016184Z,1697804290016
-0.7464885711669922,-0.6404104232788086,-0.6580228805541992,2023-10-20T12:18:10.039156Z,1697804290039
-0.6942191123962402,-0.5688261985778809,-0.5494375228881836,2023-10-20T12:18:10.056895Z,1697804290056
-0.6161718368530273,-0.4815330505371094,-0.4388713836669922,2023-10-20T12:18:10.077235Z,1697804290077
-0.5161209106445312,-0.3852200508117676,-0.3320789337158203,2023-10-20T12:18:10.097493Z,1697804290097
-0.40045738220214844,-0.28640127182006836,-0.23383569717407227,2023-10-20T12:18:10.117521Z,1697804290117
-0.27483320236206055,-0.18915271759033203,-0.14631962776184082,2023-10-20T12:18:10.139516Z,1697804290139
-0.14304590225219727,-0.09510946273803711,-0.06970906257629395,2023-10-20T12:18:10.158010Z,1697804290157
-0.008265972137451172,-0.005324840545654297,-0.0037009716033935547,2023-10-20T12:18:10.178130Z,1697804290178
0.12696123123168945,0.07948541641235352,0.05235433578491211,2023-10-20T12:18:10.198628Z,1697804290198
0.25962018966674805,0.15837383270263672,0.09884095191955566,2023-10-20T12:18:10.218598Z,1697804290218
0.3847999572753906,0.22954654693603516,0.13564801216125488,2023-10-20T12:18:10.239478Z,1697804290239
0.4984397888183594,0.2920036315917969,0.16324877738952637,2023-10-20T12:18:10.259143Z,1697804290259
0.5979652404785156,0.34553050994873047,0.18266773223876953,2023-10-20T12:18:10.279706Z,1697804290279
0.6830940246582031,0.3910861015319824,0.19550514221191406,2023-10-20T12:18:10.300155Z,1697804290300
0.7576313018798828,0.431612491607666,0.20419812202453613,2023-10-20T12:18:10.323599Z,1697804290323
0.8241071701049805,0.46902990341186523,0.2106466293334961,2023-10-20T12:18:10.339998Z,1697804290339
0.8803377151489258,0.5025262832641602,0.21520519256591797,2023-10-20T12:18:10.361094Z,1697804290361
0.9219636917114258,0.5303630828857422,0.21755051612854004,2023-10-20T12:18:10.381422Z,1697804290381
0.9429130554199219,0.5498247146606445,0.2169041633605957,2023-10-20T12:18:10.401202Z,1697804290401
0.9400749206542969,0.5595245361328125,0.21286988258361816,2023-10-20T12:18:10.423063Z,1697804290423
0.915156364440918,0.559964656829834,0.205458402633667,2023-10-20T12:18:10.441545Z,1697804290441
0.8729162216186523,0.5527863502502441,0.19518280029296875,2023-10-20T12:18:10.462236Z,1697804290462
0.8173151016235352,0.5387945175170898,0.18265259265899658,2023-10-20T12:18:10.482340Z,1697804290482
0.7517986297607422,0.5182018280029297,0.16844213008880615,2023-10-20T12:18:10.506014Z,1697804290505
0.6768527030944824,0.4896116256713867,0.15240705013275146,2023-10-20T12:18:10.522792Z,1697804290522
0.5940370559692383,0.4525141716003418,0.1344451904296875,2023-10-20T12:18:10.542603Z,1697804290542
0.5085568428039551,0.4095025062561035,0.11545693874359131,2023-10-20T12:18:10.563568Z,1697804290563
0.42681360244750977,0.3644685745239258,0.09682643413543701,2023-10-20T12:18:10.583454Z,1697804290583
0.3561563491821289,0.3230171203613281,0.0802985429763794,2023-10-20T12:18:10.605860Z,1697804290605
0.3012814521789551,0.2900662422180176,0.06708264350891113,2023-10-20T12:18:10.623669Z,1697804290623
0.26301050186157227,0.2682180404663086,0.057526230812072754,2023-10-20T12:18:10.643991Z,1697804290643
0.23882675170898438,0.2572617530822754,0.0511394739151001,2023-10-20T12:18:10.664895Z,1697804290664
0.22620248794555664,0.25663137435913086,0.047307610511779785,2023-10-20T12:18:10.684886Z,1697804290684
0.22220897674560547,0.264742374420166,0.045352935791015625,2023-10-20T12:18:10.705665Z,1697804290705
0.22464418411254883,0.2802391052246094,0.04477095603942871,2023-10-20T12:18:10.725475Z,1697804290725
0.2314300537109375,0.30132198333740234,0.04503297805786133,2023-10-20T12:18:10.745732Z,1697804290745
0.24043035507202148,0.32551050186157227,0.04569447040557861,2023-10-20T12:18:10.766038Z,1697804290765
0.24935054779052734,0.3496403694152832,0.04636406898498535,2023-10-20T12:18:10.789446Z,1697804290789
0.25537967681884766,0.3694038391113281,0.04670250415802002,2023-10-20T12:18:10.806354Z,1697804290806
0.25548887252807617,0.38002490997314453,0.046324849128723145,2023-10-20T12:18:10.826652Z,1697804290826
0.2488880157470703,0.37978649139404297,0.04493987560272217,2023-10-20T12:18:10.847289Z,1697804290847
0.23725652694702148,0.37081146240234375,0.04269367456436157,2023-10-20T12:18:10.867075Z,1697804290867
0.2221088409423828,0.3551654815673828,0.03973156213760376,2023-10-20T12:18:10.889196Z,1697804290889
0.20523595809936523,0.3353900909423828,0.03632301092147827,2023-10-20T12:18:10.908038Z,1697804290907
0.18784332275390625,0.3132619857788086,0.0327029824256897,2023-10-20T12:18:10.927945Z,1697804290927
0.17096853256225586,0.2904815673828125,0.0291634202003479,2023-10-20T12:18:10.948616Z,1697804290948
0.15504026412963867,0.2680377960205078,0.02579820156097412,2023-10-20T12:18:10.968359Z,1697804290968
0.1406407356262207,0.2473468780517578,0.02266561985015869,2023-10-20T12:18:10.988904Z,1697804290988
0.12841129302978516,0.22997283935546875,0.019778549671173096,2023-10-20T12:18:11.009183Z,1697804291009
0.11927032470703125,0.21779918670654297,0.01723003387451172,2023-10-20T12:18:11.029917Z,1697804291029
0.11338424682617188,0.21140575408935547,0.015093743801116943,2023-10-20T12:18:11.049931Z,1697804291049
0.10966300964355469,0.20886802673339844,0.01321268081665039,2023-10-20T12:18:11.072385Z,1697804291072
0.10767984390258789,0.20940303802490234,0.011518299579620361,2023-10-20T12:18:11.090260Z,1697804291090
0.10711002349853516,0.21254634857177734,0.009923756122589111,2023-10-20T12:18:11.110679Z,1697804291110
0.10820388793945312,0.2190103530883789,0.008391469717025757,2023-10-20T12:18:11.130748Z,1697804291130
0.11111783981323242,0.22944259643554688,0.006896525621414185,2023-10-20T12:18:11.150979Z,1697804291150
0.11616659164428711,0.24477672576904297,0.005440756678581238,2023-10-20T12:18:11.172160Z,1697804291172
0.1237945556640625,0.2661314010620117,0.004051268100738525,2023-10-20T12:18:11.191340Z,1697804291191
0.13472318649291992,0.29521656036376953,0.002771519124507904,2023-10-20T12:18:11.211613Z,1697804291211
0.14980745315551758,0.3341188430786133,0.0016595087945461273,2023-10-20T12:18:11.231915Z,1697804291231
0.16976594924926758,0.38452911376953125,8.0144964158535E-4,2023-10-20T12:18:11.255229Z,1697804291255
0.19500446319580078,0.44729042053222656,4.0927156805992126E-4,2023-10-20T12:18:11.272795Z,1697804291272
0.225663423538208,0.5223960876464844,8.399840444326401E-4,2023-10-20T12:18:11.292799Z,1697804291292
0.2617039680480957,0.609217643737793,0.0025053657591342926,2023-10-20T12:18:11.313525Z,1697804291313
0.30287981033325195,0.7068061828613281,0.005820363759994507,2023-10-20T12:18:11.333821Z,1697804291333
0.3491644859313965,0.8145675659179688,0.011111453175544739,2023-10-20T12:18:11.355683Z,1697804291355
0.4008030891418457,0.9320755004882812,0.018704459071159363,2023-10-20T12:18:11.374034Z,1697804291373
0.4577779769897461,1.0576896667480469,0.02893736958503723,2023-10-20T12:18:11.394392Z,1697804291394
0.5195693969726562,1.188608169555664,0.042079031467437744,2023-10-20T12:18:11.414453Z,1697804291414
0.5849790573120117,1.3207664489746094,0.05822646617889404,2023-10-20T12:18:11.434216Z,1697804291434
0.6521635055541992,1.4497747421264648,0.07723015546798706,2023-10-20T12:18:11.455367Z,1697804291455
0.7189922332763672,1.5712699890136719,0.09872609376907349,2023-10-20T12:18:11.475259Z,1697804291475
0.7836189270019531,1.6812667846679688,0.12224376201629639,2023-10-20T12:18:11.495272Z,1697804291495
0.8446598052978516,1.7763557434082031,0.14735305309295654,2023-10-20T12:18:11.515734Z,1697804291515
0.9009246826171875,1.8535346984863281,0.17364466190338135,2023-10-20T12:18:11.538593Z,1697804291538
0.9506735801696777,1.9096412658691406,0.20031046867370605,2023-10-20T12:18:11.555846Z,1697804291555
0.9911723136901855,1.9408760070800781,0.2262115478515625,2023-10-20T12:18:11.576454Z,1697804291576
1.0197210311889648,1.9438581466674805,0.25016069412231445,2023-10-20T12:18:11.596873Z,1697804291596
1.0342955589294434,1.916550636291504,0.2711089849472046,2023-10-20T12:18:11.617067Z,1697804291617
1.033452033996582,1.8586206436157227,0.28800904750823975,2023-10-20T12:18:11.638485Z,1697804291638
1.016350269317627,1.7709121704101562,0.29959213733673096,2023-10-20T12:18:11.657535Z,1697804291657
0.9823966026306152,1.6545085906982422,0.304540753364563,2023-10-20T12:18:11.677999Z,1697804291677
0.9308261871337891,1.5106067657470703,0.30161845684051514,2023-10-20T12:18:11.697937Z,1697804291697
0.8608555793762207,1.3412895202636719,0.2899665832519531,2023-10-20T12:18:11.717860Z,1697804291717
0.7716970443725586,1.1495332717895508,0.26882386207580566,2023-10-20T12:18:11.738441Z,1697804291738
0.6625518798828125,0.9391307830810547,0.23756766319274902,2023-10-20T12:18:11.759100Z,1697804291759
0.5323596000671387,0.714301586151123,0.19549894332885742,2023-10-20T12:18:11.779165Z,1697804291779
0.3796687126159668,0.4796452522277832,0.1420457363128662,2023-10-20T12:18:11.799391Z,1697804291799
0.20349836349487305,0.24071025848388672,0.07714962959289551,2023-10-20T12:18:11.821792Z,1697804291821
0.003696918487548828,0.004068851470947266,0.0014128684997558594,2023-10-20T12:18:11.839327Z,1697804291839
-0.2192974090576172,-0.22268915176391602,-0.08411145210266113,2023-10-20T12:18:11.859813Z,1697804291859
-0.4651174545288086,-0.43171072006225586,-0.1784665584564209,2023-10-20T12:18:11.880515Z,1697804291880
-0.7328305244445801,-0.6149449348449707,-0.2808573246002197,2023-10-20T12:18:11.900519Z,1697804291900
-1.0200867652893066,-0.7641005516052246,-0.3902144432067871,2023-10-20T12:18:11.921473Z,1697804291921
-1.3232965469360352,-0.871147632598877,-0.5052464008331299,2023-10-20T12:18:11.940808Z,1697804291940
-1.6364798545837402,-0.9278037548065186,-0.6239223480224609,2023-10-20T12:18:11.961317Z,1697804291961
-1.949897289276123,-0.9254462718963623,-0.7428760528564453,2023-10-20T12:18:11.981820Z,1697804291981
-2.2510595321655273,-0.8574600219726562,-0.8571367263793945,2023-10-20T12:18:12.004829Z,1697804292004
-2.525770664215088,-0.7209897041320801,-0.9603641033172607,2023-10-20T12:18:12.022302Z,1697804292022
-2.7591567039489746,-0.5184468030929565,-1.045837640762329,2023-10-20T12:18:12.042083Z,1697804292042
-2.9359755516052246,-0.2585407495498657,-1.107438325881958,2023-10-20T12:18:12.062861Z,1697804292062
-3.041238307952881,0.04221475124359131,-1.139167070388794,2023-10-20T12:18:12.083093Z,1697804292083
-3.0683040618896484,0.36034858226776123,-1.137779951095581,2023-10-20T12:18:12.105099Z,1697804292105
-3.019728183746338,0.6716804504394531,-1.103790283203125,2023-10-20T12:18:12.123367Z,1697804292123
-2.903717041015625,0.9563407897949219,-1.0404956340789795,2023-10-20T12:18:12.143506Z,1697804292143
-2.72890043258667,1.198551893234253,-0.9523558616638184,2023-10-20T12:18:12.164413Z,1697804292164
-2.506338119506836,1.3857624530792236,-0.8452779054641724,2023-10-20T12:18:12.188063Z,1697804292188
-2.2504806518554688,1.510951280593872,-0.7270259857177734,2023-10-20T12:18:12.205392Z,1697804292205
-1.9765233993530273,1.5747251510620117,-0.6055910587310791,2023-10-20T12:18:12.225146Z,1697804292225
-1.6953659057617188,1.5807442665100098,-0.4858628511428833,2023-10-20T12:18:12.245479Z,1697804292245
-1.4131317138671875,1.5300922393798828,-0.36988604068756104,2023-10-20T12:18:12.265703Z,1697804292265
-1.1344051361083984,1.4212851524353027,-0.25993287563323975,2023-10-20T12:18:12.288160Z,1697804292288
-0.8631758689880371,1.2508645057678223,-0.16002976894378662,2023-10-20T12:18:12.305605Z,1697804292305
-0.602879524230957,1.0133743286132812,-0.07665020227432251,2023-10-20T12:18:12.326065Z,1697804292326
-0.3580174446105957,0.7022562026977539,-0.01749482750892639,2023-10-20T12:18:12.347058Z,1697804292347
-0.13527750968933105,0.3123655319213867,0.0077998340129852295,2023-10-20T12:18:12.366608Z,1697804292366
0.05737185478210449,-0.15775489807128906,-0.011795580387115479,2023-10-20T12:18:12.387774Z,1697804292387
0.2125089168548584,-0.7071256637573242,-0.08875548839569092,2023-10-20T12:18:12.407192Z,1697804292407
0.3243834972381592,-1.3351564407348633,-0.23829197883605957,2023-10-20T12:18:12.427392Z,1697804292427
0.38845205307006836,-2.0361366271972656,-0.47794032096862793,2023-10-20T12:18:12.447642Z,1697804292447
0.407088041305542,-2.789682388305664,-0.821190595626831,2023-10-20T12:18:12.471301Z,1697804292471
0.3959956169128418,-3.555143356323242,-1.270939826965332,2023-10-20T12:18:12.488032Z,1697804292487
0.37990766763687134,-4.287335395812988,-1.817387580871582,2023-10-20T12:18:12.508647Z,1697804292508
0.38607287406921387,-4.949369430541992,-2.434384822845459,2023-10-20T12:18:12.528917Z,1697804292528
0.4363417625427246,-5.496586799621582,-3.075772762298584,2023-10-20T12:18:12.549228Z,1697804292549
0.5470563173294067,-5.886889457702637,-3.6865358352661133,2023-10-20T12:18:12.571033Z,1697804292570
0.7227247357368469,-6.110239028930664,-4.240571975708008,2023-10-20T12:18:12.589447Z,1697804292589
0.9271326065063477,-6.178423881530762,-4.718240261077881,2023-10-20T12:18:12.609761Z,1697804292609
1.1296894550323486,-6.134225845336914,-5.114005088806152,2023-10-20T12:18:12.630314Z,1697804292630
1.3032171726226807,-5.9653120040893555,-5.402661323547363,2023-10-20T12:18:12.650419Z,1697804292650
1.4411410093307495,-5.671055793762207,-5.5650787353515625,2023-10-20T12:18:12.671284Z,1697804292671
1.5296685695648193,-5.261979103088379,-5.607202529907227,2023-10-20T12:18:12.690776Z,1697804292690
1.5525197982788086,-4.780478477478027,-5.522172927856445,2023-10-20T12:18:12.711303Z,1697804292711
1.524873971939087,-4.269381523132324,-5.342902183532715,2023-10-20T12:18:12.731570Z,1697804292731
1.4701008796691895,-3.762247085571289,-5.118740081787109,2023-10-20T12:18:12.754313Z,1697804292754
1.40053129196167,-3.2769107818603516,-4.889772891998291,2023-10-20T12:18:12.772474Z,1697804292772
1.3237378597259521,-2.808163642883301,-4.655482292175293,2023-10-20T12:18:12.791952Z,1697804292791
1.2783172130584717,-2.3460474014282227,-4.4128923416137695,2023-10-20T12:18:12.812593Z,1697804292812
1.285872220993042,-1.8672218322753906,-4.149008750915527,2023-10-20T12:18:12.832844Z,1697804292832
1.3586368560791016,-1.3896384239196777,-3.879788398742676,2023-10-20T12:18:12.854276Z,1697804292854
1.4891300201416016,-0.9295263290405273,-3.6364059448242188,2023-10-20T12:18:12.873576Z,1697804292873
1.6806941032409668,-0.492223858833313,-3.4392547607421875,2023-10-20T12:18:12.893899Z,1697804292893
1.9739089012145996,-0.050076305866241455,-3.347383499145508,2023-10-20T12:18:12.913924Z,1697804292913
2.401273727416992,0.45542454719543457,-3.366446018218994,2023-10-20T12:18:12.937613Z,1697804292937
2.9813032150268555,1.0864372253417969,-3.4538064002990723,2023-10-20T12:18:12.954758Z,1697804292954
3.70040225982666,1.8790621757507324,-3.539356231689453,2023-10-20T12:18:12.974843Z,1697804292974
4.494550704956055,2.8175220489501953,-3.539398670196533,2023-10-20T12:18:12.995191Z,1697804292995
5.278933525085449,3.845858097076416,-3.4048633575439453,2023-10-20T12:18:13.015683Z,1697804293015
5.975217342376709,4.8952741622924805,-3.1355361938476562,2023-10-20T12:18:13.037599Z,1697804293037
6.530856132507324,5.894130229949951,-2.767960548400879,2023-10-20T12:18:13.055299Z,1697804293055
6.9086103439331055,6.774431228637695,-2.3535351753234863,2023-10-20T12:18:13.075400Z,1697804293075
7.091116905212402,7.485703468322754,-1.924027681350708,2023-10-20T12:18:13.096286Z,1697804293096
7.143453121185303,8.034003257751465,-1.5143756866455078,2023-10-20T12:18:13.116571Z,1697804293116
7.130524635314941,8.460989952087402,-1.1467866897583008,2023-10-20T12:18:13.137507Z,1697804293137
7.0914692878723145,8.760130882263184,-0.8364598751068115,2023-10-20T12:18:13.157059Z,1697804293157
7.034762382507324,8.927295684814453,-0.5965076684951782,2023-10-20T12:18:13.177222Z,1697804293177
6.983440399169922,8.968941688537598,-0.42043536901474,2023-10-20T12:18:13.197419Z,1697804293197
6.983796119689941,8.949220657348633,-0.3217291831970215,2023-10-20T12:18:13.220686Z,1697804293220
7.039670944213867,8.90696907043457,-0.2818260192871094,2023-10-20T12:18:13.237901Z,1697804293237
7.138284206390381,8.8613920211792,-0.2675137221813202,2023-10-20T12:18:13.258383Z,1697804293258
7.276424407958984,8.820383071899414,-0.24716290831565857,2023-10-20T12:18:13.278720Z,1697804293278
7.443500518798828,8.773513793945312,-0.21462103724479675,2023-10-20T12:18:13.298898Z,1697804293298
7.557562828063965,8.67139720916748,-0.17241725325584412,2023-10-20T12:18:13.320528Z,1697804293320
7.5411553382873535,8.44222354888916,-0.1338801383972168,2023-10-20T12:18:13.339489Z,1697804293339
7.35811710357666,8.084287643432617,-0.1157618910074234,2023-10-20T12:18:13.359315Z,1697804293359
7.034073829650879,7.623239517211914,-0.1280461847782135,2023-10-20T12:18:13.379783Z,1697804293379
6.598638534545898,7.096471786499023,-0.18526053428649902,2023-10-20T12:18:13.400002Z,1697804293399
6.053939342498779,6.490013122558594,-0.2657310962677002,2023-10-20T12:18:13.420636Z,1697804293420
5.432382583618164,5.801223278045654,-0.35520821809768677,2023-10-20T12:18:13.440960Z,1697804293440
4.772191047668457,5.0505828857421875,-0.44530999660491943,2023-10-20T12:18:13.461035Z,1697804293460
4.1026153564453125,4.274764060974121,-0.5277296304702759,2023-10-20T12:18:13.481535Z,1697804293481
3.4477219581604004,3.51527738571167,-0.5958914756774902,2023-10-20T12:18:13.504231Z,1697804293504
2.8329639434814453,2.8102235794067383,-0.6392805576324463,2023-10-20T12:18:13.521574Z,1697804293521
2.282261371612549,2.1911725997924805,-0.6507668495178223,2023-10-20T12:18:13.541638Z,1697804293541
1.805704116821289,1.671846866607666,-0.6285381317138672,2023-10-20T12:18:13.562602Z,1697804293562
1.4034385681152344,1.249901294708252,-0.5761139392852783,2023-10-20T12:18:13.582497Z,1697804293582
1.075547218322754,0.9192728996276855,-0.5042088031768799,2023-10-20T12:18:13.603746Z,1697804293603
0.8163423538208008,0.6683650016784668,-0.42513012886047363,2023-10-20T12:18:13.622916Z,1697804293622
0.620887279510498,0.48700523376464844,-0.3513975143432617,2023-10-20T12:18:13.643255Z,1697804293643
0.48094892501831055,0.3625621795654297,-0.29085397720336914,2023-10-20T12:18:13.663712Z,1697804293663
0.38573217391967773,0.2811851501464844,-0.2458953857421875,2023-10-20T12:18:13.683525Z,1697804293683
0.32509613037109375,0.2309880256652832,-0.21596097946166992,2023-10-20T12:18:13.704372Z,1697804293704
0.2922554016113281,0.20419979095458984,-0.20038938522338867,2023-10-20T12:18:13.724202Z,1697804293724
0.28060102462768555,0.19452571868896484,-0.19710350036621094,2023-10-20T12:18:13.744473Z,1697804293744
0.28540658950805664,0.19791555404663086,-0.20415973663330078,2023-10-20T12:18:13.764644Z,1697804293764
0.3040785789489746,0.21248626708984375,-0.22052955627441406,2023-10-20T12:18:13.787246Z,1697804293787
0.33617353439331055,0.23831605911254883,-0.2464613914489746,2023-10-20T12:18:13.805554Z,1697804293805
0.37920427322387695,0.2744150161743164,-0.280487060546875,2023-10-20T12:18:13.825814Z,1697804293825
0.42461681365966797,0.3153705596923828,-0.3162565231323242,2023-10-20T12:18:13.846338Z,1697804293846
0.4625082015991211,0.35390424728393555,-0.34569692611694336,2023-10-20T12:18:13.866255Z,1697804293866
0.4846053123474121,0.38260746002197266,-0.36151838302612305,2023-10-20T12:18:13.886914Z,1697804293886
0.4865121841430664,0.395998477935791,-0.3597564697265625,2023-10-20T12:18:13.906838Z,1697804293906
0.46782493591308594,0.3915534019470215,-0.34043025970458984,2023-10-20T12:18:13.927359Z,1697804293927
0.4302701950073242,0.3692288398742676,-0.30611658096313477,2023-10-20T12:18:13.947809Z,1697804293947
0.3767099380493164,0.33060646057128906,-0.2606039047241211,2023-10-20T12:18:13.970353Z,1697804293970
0.30968141555786133,0.27734899520874023,-0.2072763442993164,2023-10-20T12:18:13.987646Z,1697804293987
0.23089313507080078,0.21050071716308594,-0.14867162704467773,2023-10-20T12:18:14.008045Z,1697804294008
0.1447758674621582,0.13393115997314453,-0.08909893035888672,2023-10-20T12:18:14.028678Z,1697804294028
0.05989646911621094,0.056021690368652344,-0.0350189208984375,2023-10-20T12:18:14.048948Z,1697804294048
-0.013989448547363281,-0.013187408447265625,0.007742404937744141,2023-10-20T12:18:14.070282Z,1697804294070
-0.06799507141113281,-0.06450986862182617,0.035639047622680664,2023-10-20T12:18:14.088998Z,1697804294088
-0.09757137298583984,-0.09319210052490234,0.04862236976623535,2023-10-20T12:18:14.109480Z,1697804294109
-0.10218572616577148,-0.09843826293945312,0.04869270324707031,2023-10-20T12:18:14.129963Z,1697804294129
-0.08454561233520508,-0.08232498168945312,0.038739919662475586,2023-10-20T12:18:14.149781Z,1697804294149
-0.04904460906982422,-0.048358917236328125,0.02170395851135254,2023-10-20T12:18:14.170262Z,1697804294170
-0.0010247230529785156,-0.0010247230529785156,4.3892860412597656E-4,2023-10-20T12:18:14.190633Z,1697804294190
0.052831172943115234,0.053647518157958984,-0.022045373916625977,2023-10-20T12:18:14.211052Z,1697804294211
0.10554790496826172,0.10909652709960938,-0.04299569129943848,2023-10-20T12:18:14.231508Z,1697804294231
0.15276193618774414,0.16109132766723633,-0.060915231704711914,2023-10-20T12:18:14.253575Z,1697804294253
0.19298362731933594,0.20792770385742188,-0.07539486885070801,2023-10-20T12:18:14.270946Z,1697804294270
0.22475194931030273,0.24756813049316406,-0.08593869209289551,2023-10-20T12:18:14.291476Z,1697804294291
0.24517202377319336,0.2761244773864746,-0.09143853187561035,2023-10-20T12:18:14.312133Z,1697804294312
0.2514629364013672,0.289522647857666,-0.09096717834472656,2023-10-20T12:18:14.332185Z,1697804294332
0.24402666091918945,0.2869844436645508,-0.08495354652404785,2023-10-20T12:18:14.353153Z,1697804294353
0.22460651397705078,0.26946020126342773,-0.07446694374084473,2023-10-20T12:18:14.372711Z,1697804294372
0.19594526290893555,0.23949480056762695,-0.06103837490081787,2023-10-20T12:18:14.393424Z,1697804294393
0.16311264038085938,0.20281696319580078,-0.04691481590270996,2023-10-20T12:18:14.413687Z,1697804294413
0.13135957717895508,0.16597366333007812,-0.03415560722351074,2023-10-20T12:18:14.436450Z,1697804294436
0.10425281524658203,0.1337432861328125,-0.023911476135253906,2023-10-20T12:18:14.453543Z,1697804294453
0.0821385383605957,0.1069798469543457,-0.01613461971282959,2023-10-20T12:18:14.474032Z,1697804294473
0.06462955474853516,0.08551263809204102,-0.010476469993591309,2023-10-20T12:18:14.494955Z,1697804294494
0.053829193115234375,0.07240724563598633,-0.006847977638244629,2023-10-20T12:18:14.514373Z,1697804294514
0.051799774169921875,0.0708913803100586,-0.004786849021911621,2023-10-20T12:18:14.537245Z,1697804294537
0.05786895751953125,0.08063030242919922,-0.0033389627933502197,2023-10-20T12:18:14.554813Z,1697804294554
0.06961631774902344,0.09876060485839844,-0.001623690128326416,2023-10-20T12:18:14.575193Z,1697804294575
0.08397197723388672,0.12115859985351562,8.79429280757904E-4,2023-10-20T12:18:14.595708Z,1697804294595
0.09754562377929688,0.14285850524902344,0.0042131394147872925,2023-10-20T12:18:14.615884Z,1697804294615
0.10723066329956055,0.1590118408203125,0.0079670250415802,2023-10-20T12:18:14.636621Z,1697804294636
0.11124944686889648,0.1665964126586914,0.011527061462402344,2023-10-20T12:18:14.656889Z,1697804294656
0.11033964157104492,0.1663684844970703,0.01446312665939331,2023-10-20T12:18:14.677321Z,1697804294677
0.1060476303100586,0.1604757308959961,0.016638517379760742,2023-10-20T12:18:14.697365Z,1697804294697
0.09871101379394531,0.1494464874267578,0.01789677143096924,2023-10-20T12:18:14.719617Z,1697804294719
0.08884954452514648,0.13421344757080078,0.018139004707336426,2023-10-20T12:18:14.737620Z,1697804294737
0.0769033432006836,0.11567497253417969,0.017308592796325684,2023-10-20T12:18:14.757716Z,1697804294757
0.06406736373901367,0.09587574005126953,0.01560986042022705,2023-10-20T12:18:14.778632Z,1697804294778
0.05160093307495117,0.07686710357666016,0.01339256763458252,2023-10-20T12:18:14.798891Z,1697804294798
0.04063272476196289,0.06035614013671875,0.011082172393798828,2023-10-20T12:18:14.819734Z,1697804294819
0.03263521194458008,0.048438072204589844,0.009243249893188477,2023-10-20T12:18:14.838536Z,1697804294838
0.02900218963623047,0.04312610626220703,0.008435368537902832,2023-10-20T12:18:14.859248Z,1697804294859
0.030004501342773438,0.044841766357421875,0.008860588073730469,2023-10-20T12:18:14.879743Z,1697804294879
0.03460979461669922,0.052199363708496094,0.010252833366394043,2023-10-20T12:18:14.903098Z,1697804294903
0.04011869430541992,0.0613861083984375,0.011797308921813965,2023-10-20T12:18:14.920157Z,1697804294920
0.0436100959777832,0.06808090209960938,0.01261281967163086,2023-10-20T12:18:14.939952Z,1697804294939
0.04476737976074219,0.07168769836425781,0.012630820274353027,2023-10-20T12:18:14.960663Z,1697804294960
0.045823097229003906,0.07560157775878906,0.012504935264587402,2023-10-20T12:18:14.981072Z,1697804294981
0.04909849166870117,0.08373832702636719,0.012839674949645996,2023-10-20T12:18:15.002674Z,1697804295002
0.054502010345458984,0.0963754653930664,0.013545036315917969,2023-10-20T12:18:15.021107Z,1697804295021
0.060259342193603516,0.11078643798828125,0.014129161834716797,2023-10-20T12:18:15.041426Z,1697804295041
0.06498527526855469,0.12454986572265625,0.014267683029174805,2023-10-20T12:18:15.061690Z,1697804295061
0.06888294219970703,0.13794898986816406,0.014054596424102783,2023-10-20T12:18:15.081928Z,1697804295081
0.07309150695800781,0.1531848907470703,0.013747751712799072,2023-10-20T12:18:15.102817Z,1697804295102
0.07921123504638672,0.1736907958984375,0.013601362705230713,2023-10-20T12:18:15.122276Z,1697804295122
0.0881204605102539,0.20181941986083984,0.0136452317237854,2023-10-20T12:18:15.142777Z,1697804295142
0.09981846809387207,0.2384967803955078,0.013701438903808594,2023-10-20T12:18:15.163188Z,1697804295163
0.1125187873840332,0.28058624267578125,0.013378053903579712,2023-10-20T12:18:15.185926Z,1697804295185
0.12428808212280273,0.324005126953125,0.012352794408798218,2023-10-20T12:18:15.203117Z,1697804295203
0.13478684425354004,0.3676490783691406,0.010581433773040771,2023-10-20T12:18:15.223971Z,1697804295223
0.14397358894348145,0.41089630126953125,0.008097261190414429,2023-10-20T12:18:15.244504Z,1697804295244
0.15237665176391602,0.45468616485595703,0.0050186887383461,2023-10-20T12:18:15.264612Z,1697804295264
0.15973782539367676,0.4977989196777344,0.001450084149837494,2023-10-20T12:18:15.286275Z,1697804295286
0.16564583778381348,0.5382928848266602,-0.002460222691297531,2023-10-20T12:18:15.305054Z,1697804295305
0.16967058181762695,0.5743637084960938,-0.006641723215579987,2023-10-20T12:18:15.325589Z,1697804295325
0.17168331146240234,0.6052942276000977,-0.011068671941757202,2023-10-20T12:18:15.345798Z,1697804295345
0.17137455940246582,0.6287765502929688,-0.015640467405319214,2023-10-20T12:18:15.365532Z,1697804295365
0.16882586479187012,0.6434965133666992,-0.020106881856918335,2023-10-20T12:18:15.386460Z,1697804295386
0.164595365524292,0.6499042510986328,-0.024193257093429565,2023-10-20T12:18:15.406381Z,1697804295406
0.15941977500915527,0.649754524230957,-0.02781006693840027,2023-10-20T12:18:15.427095Z,1697804295427
0.15456366539001465,0.6468648910522461,-0.03110569715499878,2023-10-20T12:18:15.447071Z,1697804295447
0.15062713623046875,0.6431941986083984,-0.03420490026473999,2023-10-20T12:18:15.469514Z,1697804295469
0.1475067138671875,0.6386852264404297,-0.037050485610961914,2023-10-20T12:18:15.487160Z,1697804295487
0.14486217498779297,0.632568359375,-0.039451658725738525,2023-10-20T12:18:15.507255Z,1697804295507
0.14258193969726562,0.6245965957641602,-0.04114174842834473,2023-10-20T12:18:15.527955Z,1697804295527
0.14086437225341797,0.6151046752929688,-0.04187041521072388,2023-10-20T12:18:15.547950Z,1697804295547
0.13997435569763184,0.605128288269043,-0.041438937187194824,2023-10-20T12:18:15.569113Z,1697804295569
0.1398754119873047,0.5948505401611328,-0.03967595100402832,2023-10-20T12:18:15.588475Z,1697804295588
0.14024877548217773,0.5842666625976562,-0.03652524948120117,2023-10-20T12:18:15.609242Z,1697804295609
0.14056038856506348,0.5732336044311523,-0.031977951526641846,2023-10-20T12:18:15.629303Z,1697804295629
0.14011240005493164,0.5607147216796875,-0.025954484939575195,2023-10-20T12:18:15.652652Z,1697804295652
0.1378326416015625,0.5432748794555664,-0.01840519905090332,2023-10-20T12:18:15.669992Z,1697804295669
0.1334061622619629,0.5200719833374023,-0.009722098708152771,2023-10-20T12:18:15.690261Z,1697804295690
0.1274585723876953,0.49382781982421875,-6.215479224920273E-4,2023-10-20T12:18:15.710624Z,1697804295710
0.12066650390625,0.46750545501708984,0.008272439241409302,2023-10-20T12:18:15.731083Z,1697804295731
0.11348652839660645,0.4428443908691406,0.016645103693008423,2023-10-20T12:18:15.752506Z,1697804295752
0.10570502281188965,0.4183807373046875,0.024263739585876465,2023-10-20T12:18:15.771083Z,1697804295771
0.09737467765808105,0.39344120025634766,0.030907094478607178,2023-10-20T12:18:15.790963Z,1697804295790
0.08873963356018066,0.36784934997558594,0.03640401363372803,2023-10-20T12:18:15.811638Z,1697804295811
0.08012270927429199,0.34154415130615234,0.04068863391876221,2023-10-20T12:18:15.831782Z,1697804295831
0.0715487003326416,0.3136425018310547,0.04361701011657715,2023-10-20T12:18:15.852908Z,1697804295852
0.06322240829467773,0.28458309173583984,0.04521501064300537,2023-10-20T12:18:15.872755Z,1697804295872
0.055039405822753906,0.25366687774658203,0.04533648490905762,2023-10-20T12:18:15.892900Z,1697804295892
0.04627275466918945,0.21746349334716797,0.04324615001678467,2023-10-20T12:18:15.913385Z,1697804295913
0.0363537073135376,0.17316913604736328,0.03803873062133789,2023-10-20T12:18:15.936011Z,1697804295935
0.025063395500183105,0.12016487121582031,0.029002904891967773,2023-10-20T12:18:15.953272Z,1697804295953
0.012787818908691406,0.06125450134277344,0.016168832778930664,2023-10-20T12:18:15.973753Z,1697804295973
-4.172325134277344E-6,-2.288818359375E-5,-5.7220458984375E-6,2023-10-20T12:18:15.994368Z,1697804295994
-0.013003826141357422,-0.06101417541503906,-0.018964767456054688,2023-10-20T12:18:16.013874Z,1697804296013
-0.026109814643859863,-0.1206979751586914,-0.04032397270202637,2023-10-20T12:18:16.035371Z,1697804296035
-0.0390545129776001,-0.17815399169921875,-0.06344175338745117,2023-10-20T12:18:16.054590Z,1697804296054
-0.05160331726074219,-0.23325634002685547,-0.08766651153564453,2023-10-20T12:18:16.075054Z,1697804296075
-0.06341719627380371,-0.28568458557128906,-0.11208796501159668,2023-10-20T12:18:16.095126Z,1697804296095
-0.0741044282913208,-0.33465576171875,-0.13550019264221191,2023-10-20T12:18:16.118550Z,1697804296118
-0.08353710174560547,-0.37995243072509766,-0.15691161155700684,2023-10-20T12:18:16.135599Z,1697804296135
-0.09190738201141357,-0.42191028594970703,-0.1756134033203125,2023-10-20T12:18:16.155685Z,1697804296155
-0.09944391250610352,-0.4602212905883789,-0.19084405899047852,2023-10-20T12:18:16.176427Z,1697804296176
-0.10649538040161133,-0.49443626403808594,-0.20215678215026855,2023-10-20T12:18:16.197089Z,1697804296197
-0.11344718933105469,-0.5237836837768555,-0.20934152603149414,2023-10-20T12:18:16.218506Z,1697804296218
-0.1204981803894043,-0.5469474792480469,-0.2122969627380371,2023-10-20T12:18:16.237357Z,1697804296237
-0.12785065174102783,-0.5633678436279297,-0.2114243507385254,2023-10-20T12:18:16.257720Z,1697804296257
-0.13546931743621826,-0.5727300643920898,-0.2072896957397461,2023-10-20T12:18:16.277940Z,1697804296277
-0.14322280883789062,-0.5750646591186523,-0.2005298137664795,2023-10-20T12:18:16.297902Z,1697804296297
-0.15064716339111328,-0.5699472427368164,-0.19150090217590332,2023-10-20T12:18:16.318560Z,1697804296318
-0.1567375659942627,-0.5560359954833984,-0.18012690544128418,2023-10-20T12:18:16.338469Z,1697804296338
-0.16021299362182617,-0.5322990417480469,-0.16642236709594727,2023-10-20T12:18:16.358963Z,1697804296358
-0.15986919403076172,-0.49858951568603516,-0.15053892135620117,2023-10-20T12:18:16.379221Z,1697804296379
-0.1547410488128662,-0.45500755310058594,-0.13261914253234863,2023-10-20T12:18:16.402104Z,1697804296402
-0.14406871795654297,-0.40146923065185547,-0.11277055740356445,2023-10-20T12:18:16.419148Z,1697804296419
-0.12738323211669922,-0.3381366729736328,-0.09126114845275879,2023-10-20T12:18:16.439611Z,1697804296439
-0.10485315322875977,-0.2664213180541992,-0.06883597373962402,2023-10-20T12:18:16.460322Z,1697804296460
-0.07728028297424316,-0.18877315521240234,-0.04651045799255371,2023-10-20T12:18:16.480531Z,1697804296480
-0.04575657844543457,-0.1078023910522461,-0.02525019645690918,2023-10-20T12:18:16.502Z,1697804296501
-0.011288642883300781,-0.02570343017578125,-0.005712270736694336,2023-10-20T12:18:16.521200Z,1697804296521
0.02513575553894043,0.055359840393066406,0.011667013168334961,2023-10-20T12:18:16.541683Z,1697804296541
0.06209373474121094,0.13234424591064453,0.026470541954040527,2023-10-20T12:18:16.561414Z,1697804296561
0.09778976440429688,0.20174694061279297,0.03838777542114258,2023-10-20T12:18:16.585242Z,1697804296585
0.13061237335205078,0.2608222961425781,0.047370314598083496,2023-10-20T12:18:16.602323Z,1697804296602
0.15945672988891602,0.3081779479980469,0.053606629371643066,2023-10-20T12:18:16.621942Z,1697804296621
0.18384122848510742,0.34386348724365234,0.05749547481536865,2023-10-20T12:18:16.642881Z,1697804296642
0.20337533950805664,0.3682832717895508,0.05945897102355957,2023-10-20T12:18:16.663135Z,1697804296663
0.21796655654907227,0.3824939727783203,0.059957027435302734,2023-10-20T12:18:16.685129Z,1697804296685
0.22808218002319336,0.3884611129760742,0.05942666530609131,2023-10-20T12:18:16.703005Z,1697804296702
0.2345576286315918,0.3884296417236328,0.05820167064666748,2023-10-20T12:18:16.723527Z,1697804296723
0.23871707916259766,0.38511085510253906,0.05660879611968994,2023-10-20T12:18:16.744228Z,1697804296744
0.24235105514526367,0.38165950775146484,0.054964423179626465,2023-10-20T12:18:16.764232Z,1697804296764
0.24770545959472656,0.3816699981689453,0.053650498390197754,2023-10-20T12:18:16.784885Z,1697804296784
0.25499629974365234,0.3856239318847656,0.05258786678314209,2023-10-20T12:18:16.804604Z,1697804296804
0.2625441551208496,0.3912181854248047,0.05139613151550293,2023-10-20T12:18:16.824738Z,1697804296824
0.26766443252563477,0.3946113586425781,0.0495600700378418,2023-10-20T12:18:16.845111Z,1697804296845
0.2693600654602051,0.3944244384765625,0.046888113021850586,2023-10-20T12:18:16.868330Z,1697804296868
0.26850223541259766,0.39161109924316406,0.04354661703109741,2023-10-20T12:18:16.885989Z,1697804296885
0.265472412109375,0.3863792419433594,0.039683997631073,2023-10-20T12:18:16.905920Z,1697804296905
0.26010751724243164,0.37839603424072266,0.03545022010803223,2023-10-20T12:18:16.926151Z,1697804296926
0.25234317779541016,0.3674335479736328,0.030951321125030518,2023-10-20T12:18:16.946833Z,1697804296946
0.24267292022705078,0.3540763854980469,0.0263405442237854,2023-10-20T12:18:16.967649Z,1697804296967
0.23069429397583008,0.3375997543334961,0.02167034149169922,2023-10-20T12:18:16.986894Z,1697804296986
0.21712017059326172,0.3186931610107422,0.01711857318878174,2023-10-20T12:18:17.006788Z,1697804297006
0.20298337936401367,0.2986116409301758,0.01286497712135315,2023-10-20T12:18:17.027668Z,1697804297027
0.18992137908935547,0.27971839904785156,0.009023278951644897,2023-10-20T12:18:17.047613Z,1697804297047
0.1794896125793457,0.26424312591552734,0.005627766251564026,2023-10-20T12:18:17.068026Z,1697804297067
0.17224740982055664,0.253143310546875,0.0025669485330581665,2023-10-20T12:18:17.087922Z,1697804297087
0.16820716857910156,0.24660587310791016,-3.131534904241562E-4,2023-10-20T12:18:17.108636Z,1697804297108
0.1666545867919922,0.24373912811279297,-0.0031637772917747498,2023-10-20T12:18:17.128973Z,1697804297128
0.1659088134765625,0.2422952651977539,-0.006014004349708557,2023-10-20T12:18:17.151242Z,1697804297151
0.1647491455078125,0.2406463623046875,-0.008787423372268677,2023-10-20T12:18:17.168900Z,1697804297168
0.16382074356079102,0.23973464965820312,-0.011478692293167114,2023-10-20T12:18:17.189848Z,1697804297189
0.16420364379882812,0.2411661148071289,-0.01411864161491394,2023-10-20T12:18:17.210286Z,1697804297210
0.16717290878295898,0.24689197540283203,-0.016807913780212402,2023-10-20T12:18:17.230515Z,1697804297230
0.17377853393554688,0.25858306884765625,-0.01965731382369995,2023-10-20T12:18:17.250767Z,1697804297250
0.1844010353088379,0.27700328826904297,-0.022700905799865723,2023-10-20T12:18:17.270403Z,1697804297270
0.19857120513916016,0.3016777038574219,-0.025846660137176514,2023-10-20T12:18:17.290494Z,1697804297290
0.21719741821289062,0.3339881896972656,-0.0290372371673584,2023-10-20T12:18:17.311157Z,1697804297311
0.2423543930053711,0.37691688537597656,-0.03222697973251343,2023-10-20T12:18:17.334389Z,1697804297334
0.2770218849182129,0.43480873107910156,-0.03529846668243408,2023-10-20T12:18:17.351202Z,1697804297351
0.32306957244873047,0.5101709365844727,-0.037697792053222656,2023-10-20T12:18:17.371922Z,1697804297371
0.3796391487121582,0.6016273498535156,-0.03834676742553711,2023-10-20T12:18:17.392067Z,1697804297391
0.4457564353942871,0.7077064514160156,-0.0361630916595459,2023-10-20T12:18:17.412493Z,1697804297412
0.5203108787536621,0.8264446258544922,-0.03018486499786377,2023-10-20T12:18:17.434355Z,1697804297434
0.6019721031188965,0.9554281234741211,-0.01944214105606079,2023-10-20T12:18:17.453390Z,1697804297453
0.6894750595092773,1.092111587524414,-0.0031675342470407486,2023-10-20T12:18:17.473542Z,1697804297473
0.782508373260498,1.2354087829589844,0.019215628504753113,2023-10-20T12:18:17.493563Z,1697804297493
0.8789939880371094,1.3828039169311523,0.047821044921875,2023-10-20T12:18:17.514069Z,1697804297514
0.9755887985229492,1.5306024551391602,0.08232343196868896,2023-10-20T12:18:17.534249Z,1697804297534
1.0680131912231445,1.6732845306396484,0.12198019027709961,2023-10-20T12:18:17.554863Z,1697804297554
1.1524763107299805,1.805501937866211,0.1656063199043274,2023-10-20T12:18:17.574597Z,1697804297574
1.227396011352539,1.9237098693847656,0.21197545528411865,2023-10-20T12:18:17.594844Z,1697804297594
1.2913408279418945,2.024369239807129,0.2595689296722412,2023-10-20T12:18:17.618129Z,1697804297618
1.3433971405029297,2.104987144470215,0.3070063591003418,2023-10-20T12:18:17.635617Z,1697804297635
1.383021354675293,2.163330078125,0.3525277376174927,2023-10-20T12:18:17.655163Z,1697804297655
1.409165859222412,2.196944236755371,0.39426684379577637,2023-10-20T12:18:17.675922Z,1697804297675
1.4193835258483887,2.2019596099853516,0.4302821159362793,2023-10-20T12:18:17.696484Z,1697804297696
1.412092685699463,2.174750328063965,0.4586648941040039,2023-10-20T12:18:17.718135Z,1697804297718
1.3858332633972168,2.1124258041381836,0.47766613960266113,2023-10-20T12:18:17.737133Z,1697804297737
1.338973045349121,2.0126962661743164,0.4855048656463623,2023-10-20T12:18:17.757426Z,1697804297757
1.2696523666381836,1.8744678497314453,0.4807143211364746,2023-10-20T12:18:17.777487Z,1697804297777
1.176313877105713,1.6981792449951172,0.46221208572387695,2023-10-20T12:18:17.797191Z,1697804297797
1.0577435493469238,1.4859719276428223,0.4292488098144531,2023-10-20T12:18:17.817799Z,1697804297817
0.9125418663024902,1.2413311004638672,0.38085150718688965,2023-10-20T12:18:17.838029Z,1697804297837
0.7385501861572266,0.9680967330932617,0.3158249855041504,2023-10-20T12:18:17.858788Z,1697804297858
0.5330839157104492,0.6699380874633789,0.23280119895935059,2023-10-20T12:18:17.878532Z,1697804297878
0.2941708564758301,0.35231637954711914,0.13078856468200684,2023-10-20T12:18:17.900805Z,1697804297900
0.019588470458984375,0.02219390869140625,0.008847475051879883,2023-10-20T12:18:17.918990Z,1697804297918
-0.2918696403503418,-0.31002330780029297,-0.13366937637329102,2023-10-20T12:18:17.938899Z,1697804297938
-0.6410155296325684,-0.6313114166259766,-0.2970278263092041,2023-10-20T12:18:17.959401Z,1697804297959
-1.028717041015625,-0.9267539978027344,-0.480893611907959,2023-10-20T12:18:17.979587Z,1697804297979
-1.4553108215332031,-1.1788034439086914,-0.6837213039398193,2023-10-20T12:18:18.000823Z,1697804298000
-1.919543743133545,-1.3657231330871582,-0.9021191596984863,2023-10-20T12:18:18.020370Z,1697804298020
-2.4168615341186523,-1.46004319190979,-1.1298167705535889,2023-10-20T12:18:18.040866Z,1697804298040
-2.935497760772705,-1.428018569946289,-1.355623483657837,2023-10-20T12:18:18.061104Z,1697804298061
-3.4506492614746094,-1.2345621585845947,-1.5617971420288086,2023-10-20T12:18:18.083950Z,1697804298083
-3.9195985794067383,-0.8543741703033447,-1.7229764461517334,2023-10-20T12:18:18.101772Z,1697804298101
-4.283153057098389,-0.2904992401599884,-1.8086498975753784,2023-10-20T12:18:18.121674Z,1697804298121
-4.4796462059021,0.41124075651168823,-1.7931671142578125,2023-10-20T12:18:18.142176Z,1697804298142
-4.46728515625,1.1624433994293213,-1.6688514947891235,2023-10-20T12:18:18.162414Z,1697804298162
-4.2437744140625,1.8557747602462769,-1.449271321296692,2023-10-20T12:18:18.183859Z,1697804298183
-3.848270893096924,2.399738073348999,-1.1653680801391602,2023-10-20T12:18:18.202501Z,1697804298202
-3.341306209564209,2.742677927017212,-0.8551685810089111,2023-10-20T12:18:18.223062Z,1697804298222
-2.7805395126342773,2.8713974952697754,-0.553593099117279,2023-10-20T12:18:18.243273Z,1697804298243
-2.2107150554656982,2.798034191131592,-0.28903573751449585,2023-10-20T12:18:18.263050Z,1697804298263
-1.663473129272461,2.542586326599121,-0.07936698198318481,2023-10-20T12:18:18.283795Z,1697804298283
-1.1617991924285889,2.1269969940185547,0.064313143491745,2023-10-20T12:18:18.304552Z,1697804298304
-0.7208905220031738,1.5746674537658691,0.1342868208885193,2023-10-20T12:18:18.323930Z,1697804298323
-0.3488733768463135,0.9090156555175781,0.12429046630859375,2023-10-20T12:18:18.344912Z,1697804298344
-0.0478365421295166,0.1492910385131836,0.0278472900390625,2023-10-20T12:18:18.367277Z,1697804298367
0.18203043937683105,-0.6873235702514648,-0.1622943878173828,2023-10-20T12:18:18.385078Z,1697804298385
0.3414883613586426,-1.5835933685302734,-0.4541356563568115,2023-10-20T12:18:18.405381Z,1697804298405
0.4346342086791992,-2.515178680419922,-0.8544430732727051,2023-10-20T12:18:18.426094Z,1697804298426
0.4780923128128052,-3.440153121948242,-1.364065170288086,2023-10-20T12:18:18.445886Z,1697804298445
0.5015515089035034,-4.313739776611328,-1.9768123626708984,2023-10-20T12:18:18.467413Z,1697804298467
0.5391417145729065,-5.103046417236328,-2.673835277557373,2023-10-20T12:18:18.486169Z,1697804298486
0.6183753609657288,-5.7643632888793945,-3.406130313873291,2023-10-20T12:18:18.506513Z,1697804298506
0.7553167343139648,-6.265832901000977,-4.116257667541504,2023-10-20T12:18:18.526997Z,1697804298526
0.9555649757385254,-6.602017879486084,-4.7814412117004395,2023-10-20T12:18:18.546806Z,1697804298546
1.1831390857696533,-6.775350570678711,-5.387171268463135,2023-10-20T12:18:18.567208Z,1697804298567
1.4023146629333496,-6.841451168060303,-5.949713706970215,2023-10-20T12:18:18.587311Z,1697804298587
1.5812575817108154,-6.783567905426025,-6.445508003234863,2023-10-20T12:18:18.607862Z,1697804298607
1.7208415269851685,-6.600005149841309,-6.840932846069336,2023-10-20T12:18:18.628536Z,1697804298628
1.8128328323364258,-6.295413494110107,-7.128072738647461,2023-10-20T12:18:18.650111Z,1697804298650
1.8462116718292236,-5.895873546600342,-7.28333044052124,2023-10-20T12:18:18.669309Z,1697804298669
1.8229763507843018,-5.4398651123046875,-7.322686672210693,2023-10-20T12:18:18.689083Z,1697804298689
1.759001612663269,-4.957465648651123,-7.291510581970215,2023-10-20T12:18:18.709846Z,1697804298709
1.6707038879394531,-4.465226173400879,-7.232721328735352,2023-10-20T12:18:18.729556Z,1697804298729
1.56819748878479,-3.9520606994628906,-7.141057968139648,2023-10-20T12:18:18.750403Z,1697804298750
1.5012168884277344,-3.4053525924682617,-7.011547088623047,2023-10-20T12:18:18.770127Z,1697804298770
1.5032520294189453,-2.78291654586792,-6.805898666381836,2023-10-20T12:18:18.789992Z,1697804298789
1.5934200286865234,-2.1139914989471436,-6.532601356506348,2023-10-20T12:18:18.810706Z,1697804298810
1.760636806488037,-1.4290046691894531,-6.227094650268555,2023-10-20T12:18:18.834199Z,1697804298834
1.993577480316162,-0.7522068023681641,-5.909894943237305,2023-10-20T12:18:18.850854Z,1697804298850
2.298618793487549,-0.07717423886060715,-5.641849517822266,2023-10-20T12:18:18.871214Z,1697804298871
2.6867852210998535,0.6352900266647339,-5.451892852783203,2023-10-20T12:18:18.891720Z,1697804298891
3.170166015625,1.4277400970458984,-5.340824127197266,2023-10-20T12:18:18.911941Z,1697804298911
3.7555127143859863,2.3374991416931152,-5.2774224281311035,2023-10-20T12:18:18.933848Z,1697804298933
4.408390998840332,3.3580708503723145,-5.1891021728515625,2023-10-20T12:18:18.952540Z,1697804298952
5.057318687438965,4.437409400939941,-5.004624843597412,2023-10-20T12:18:18.973267Z,1697804298973
5.635043144226074,5.512358665466309,-4.701572418212891,2023-10-20T12:18:18.993052Z,1697804298993
6.093461036682129,6.525310516357422,-4.3107099533081055,2023-10-20T12:18:19.013128Z,1697804299013
6.401918888092041,7.432744026184082,-3.8805959224700928,2023-10-20T12:18:19.033540Z,1697804299033
6.541512489318848,8.191364288330078,-3.4282915592193604,2023-10-20T12:18:19.053601Z,1697804299053
6.565338134765625,8.791069030761719,-2.975713014602661,2023-10-20T12:18:19.074093Z,1697804299074
6.546469211578369,9.281089782714844,-2.5340659618377686,2023-10-20T12:18:19.094363Z,1697804299094
6.524749755859375,9.649694442749023,-2.1177635192871094,2023-10-20T12:18:19.116588Z,1697804299116
6.496127128601074,9.892290115356445,-1.7514877319335938,2023-10-20T12:18:19.134632Z,1697804299134
6.469842433929443,10.008329391479492,-1.4385614395141602,2023-10-20T12:18:19.155187Z,1697804299155
6.473100185394287,10.041692733764648,-1.2013227939605713,2023-10-20T12:18:19.175854Z,1697804299175
6.5237135887146,10.037040710449219,-1.0314760208129883,2023-10-20T12:18:19.195896Z,1697804299195
6.619998931884766,10.016053199768066,-0.896461009979248,2023-10-20T12:18:19.216213Z,1697804299216
6.754374027252197,9.986940383911133,-0.7653145790100098,2023-10-20T12:18:19.236510Z,1697804299236
6.914783477783203,9.93868637084961,-0.6377041339874268,2023-10-20T12:18:19.256930Z,1697804299256
7.027195453643799,9.831398010253906,-0.5188151597976685,2023-10-20T12:18:19.277144Z,1697804299277
7.014849662780762,9.58129596710205,-0.43072229623794556,2023-10-20T12:18:19.299808Z,1697804299299
6.846833229064941,9.202463150024414,-0.38656938076019287,2023-10-20T12:18:19.317423Z,1697804299317
6.542733192443848,8.72457504272461,-0.38459116220474243,2023-10-20T12:18:19.337349Z,1697804299337
6.132264137268066,8.188419342041016,-0.4321444034576416,2023-10-20T12:18:19.357565Z,1697804299357
5.636748790740967,7.5940117835998535,-0.5061485767364502,2023-10-20T12:18:19.378064Z,1697804299378
5.083625793457031,6.925785064697266,-0.5931534767150879,2023-10-20T12:18:19.399657Z,1697804299399
4.5101447105407715,6.200884819030762,-0.6817885637283325,2023-10-20T12:18:19.418541Z,1697804299418
3.9415955543518066,5.4467315673828125,-0.7621359825134277,2023-10-20T12:18:19.439251Z,1697804299439
3.3954858779907227,4.701566219329834,-0.8286075592041016,2023-10-20T12:18:19.459336Z,1697804299459
2.8921546936035156,4.004739761352539,-0.8771002292633057,2023-10-20T12:18:19.478894Z,1697804299478
2.4432106018066406,3.382802963256836,-0.9038710594177246,2023-10-20T12:18:19.499525Z,1697804299499
2.0510830879211426,2.840634346008301,-0.9053568840026855,2023-10-20T12:18:19.519967Z,1697804299519
1.7150545120239258,2.3713693618774414,-0.8805038928985596,2023-10-20T12:18:19.540138Z,1697804299540
1.4364137649536133,1.9746146202087402,-0.8359384536743164,2023-10-20T12:18:19.560854Z,1697804299560
1.2117152214050293,1.6489777565002441,-0.7808592319488525,2023-10-20T12:18:19.582906Z,1697804299582
1.0337514877319336,1.3900704383850098,-0.7239384651184082,2023-10-20T12:18:19.600738Z,1697804299600
0.8957719802856445,1.191232681274414,-0.6720924377441406,2023-10-20T12:18:19.621450Z,1697804299621
0.7910547256469727,1.042823314666748,-0.6287956237792969,2023-10-20T12:18:19.641673Z,1697804299641
0.7149496078491211,0.9363365173339844,-0.5962624549865723,2023-10-20T12:18:19.661898Z,1697804299661
0.6644320487976074,0.8656468391418457,-0.5764455795288086,2023-10-20T12:18:19.682536Z,1697804299682
0.6358861923217773,0.8249058723449707,-0.5697636604309082,2023-10-20T12:18:19.702231Z,1697804299702
0.6242170333862305,0.8070006370544434,-0.5742578506469727,2023-10-20T12:18:19.722507Z,1697804299722
0.6233820915222168,0.8041105270385742,-0.5860867500305176,2023-10-20T12:18:19.743196Z,1697804299743
0.6278986930847168,0.8095879554748535,-0.601346492767334,2023-10-20T12:18:19.766190Z,1697804299766
0.6332459449768066,0.817967414855957,-0.6162910461425781,2023-10-20T12:18:19.782974Z,1697804299782
0.6338315010070801,0.8223104476928711,-0.6255331039428711,2023-10-20T12:18:19.803135Z,1697804299803
0.6222734451293945,0.8125410079956055,-0.6208910942077637,2023-10-20T12:18:19.823683Z,1697804299823
0.5915007591247559,0.7777671813964844,-0.5938401222229004,2023-10-20T12:18:19.844580Z,1697804299844
0.5373516082763672,0.710939884185791,-0.5394892692565918,2023-10-20T12:18:19.865781Z,1697804299865
0.4592905044555664,0.6105785369873047,-0.45812511444091797,2023-10-20T12:18:19.884804Z,1697804299884
0.3597412109375,0.47968578338623047,-0.3541750907897949,2023-10-20T12:18:19.905565Z,1697804299905
0.24204778671264648,0.3229713439941406,-0.23363971710205078,2023-10-20T12:18:19.924997Z,1697804299924
0.1092233657836914,0.14536714553833008,-0.10259199142456055,2023-10-20T12:18:19.945328Z,1697804299945
-0.034716129302978516,-0.0458827018737793,0.03145265579223633,2023-10-20T12:18:19.965932Z,1697804299965
-0.18396949768066406,-0.23998165130615234,0.15916919708251953,2023-10-20T12:18:19.987874Z,1697804299987
-0.3312053680419922,-0.4231729507446289,0.2706899642944336,2023-10-20T12:18:20.005822Z,1697804300005
-0.46715354919433594,-0.5798168182373047,0.3571481704711914,2023-10-20T12:18:20.026707Z,1697804300026
-0.5809550285339355,-0.6961231231689453,0.4127812385559082,2023-10-20T12:18:20.049714Z,1697804300049
-0.6646666526794434,-0.7670416831970215,0.43801379203796387,2023-10-20T12:18:20.066752Z,1697804300066
-0.7155261039733887,-0.7956209182739258,0.4376559257507324,2023-10-20T12:18:20.087243Z,1697804300087
-0.7359027862548828,-0.7897839546203613,0.41813015937805176,2023-10-20T12:18:20.107566Z,1697804300107
-0.7301421165466309,-0.7571606636047363,0.384859561920166,2023-10-20T12:18:20.127854Z,1697804300127
-0.7001333236694336,-0.7017555236816406,0.3410825729370117,2023-10-20T12:18:20.149215Z,1697804300149
-0.6482887268066406,-0.6285214424133301,0.2904233932495117,2023-10-20T12:18:20.168109Z,1697804300168
-0.5788722038269043,-0.5439763069152832,0.23708629608154297,2023-10-20T12:18:20.188191Z,1697804300188
-0.49606847763061523,-0.45342159271240234,0.1845569610595703,2023-10-20T12:18:20.208880Z,1697804300208
-0.4035820960998535,-0.3603067398071289,0.1352841854095459,2023-10-20T12:18:20.232182Z,1697804300232
-0.3031344413757324,-0.26540040969848633,0.09059691429138184,2023-10-20T12:18:20.249320Z,1697804300249
-0.1951742172241211,-0.1681351661682129,0.051257967948913574,2023-10-20T12:18:20.269823Z,1697804300269
-0.08101081848144531,-0.06888055801391602,0.01834392547607422,2023-10-20T12:18:20.289718Z,1697804300289
0.037552833557128906,0.03161907196044922,-0.007163047790527344,2023-10-20T12:18:20.309989Z,1697804300309
0.1572885513305664,0.13167238235473633,-0.0246121883392334,2023-10-20T12:18:20.331606Z,1697804300331
0.2737593650817871,0.22890424728393555,-0.03408569097518921,2023-10-20T12:18:20.350854Z,1697804300350
0.38295650482177734,0.32117271423339844,-0.036499202251434326,2023-10-20T12:18:20.370561Z,1697804300370
0.4817056655883789,0.4065217971801758,-0.03323781490325928,2023-10-20T12:18:20.390982Z,1697804300390
0.5669727325439453,0.4826846122741699,-0.025761455297470093,2023-10-20T12:18:20.411237Z,1697804300411
0.636448860168457,0.5477023124694824,-0.015581533312797546,2023-10-20T12:18:20.432009Z,1697804300431
0.6880192756652832,0.5994420051574707,-0.004025902599096298,2023-10-20T12:18:20.451643Z,1697804300451
0.7214460372924805,0.6369824409484863,0.007611893117427826,2023-10-20T12:18:20.471882Z,1697804300471
0.7384204864501953,0.660914421081543,0.01830326020717621,2023-10-20T12:18:20.492337Z,1697804300492
0.7412128448486328,0.6726202964782715,0.027364879846572876,2023-10-20T12:18:20.515723Z,1697804300515
0.7323393821716309,0.6740050315856934,0.03470492362976074,2023-10-20T12:18:20.532833Z,1697804300532
0.7132329940795898,0.6660723686218262,0.04048871994018555,2023-10-20T12:18:20.553314Z,1697804300553
0.6860041618347168,0.6504077911376953,0.044903337955474854,2023-10-20T12:18:20.573853Z,1697804300573
0.6532349586486816,0.6292939186096191,0.04807561635971069,2023-10-20T12:18:20.594099Z,1697804300594
0.6163020133972168,0.6041417121887207,0.04994690418243408,2023-10-20T12:18:20.615559Z,1697804300615
0.5757803916931152,0.5758199691772461,0.05043148994445801,2023-10-20T12:18:20.634349Z,1697804300634
0.5311474800109863,0.5439872741699219,0.049378812313079834,2023-10-20T12:18:20.654680Z,1697804300654
0.48179149627685547,0.5075845718383789,0.04677921533584595,2023-10-20T12:18:20.675005Z,1697804300674
0.42708253860473633,0.46497631072998047,0.04269975423812866,2023-10-20T12:18:20.694750Z,1697804300694
0.36663150787353516,0.41426658630371094,0.03726553916931152,2023-10-20T12:18:20.715765Z,1697804300715
0.3016958236694336,0.3551340103149414,0.030683279037475586,2023-10-20T12:18:20.735995Z,1697804300735
0.23430252075195312,0.2882418632507324,0.02336782217025757,2023-10-20T12:18:20.756191Z,1697804300756
0.1660909652709961,0.21409320831298828,0.01583409309387207,2023-10-20T12:18:20.776024Z,1697804300775
0.09775590896606445,0.13228130340576172,0.008644521236419678,2023-10-20T12:18:20.798505Z,1697804300798
0.030464649200439453,0.04331398010253906,0.0024102628231048584,2023-10-20T12:18:20.817168Z,1697804300817
-0.03390359878540039,-0.05062580108642578,-0.0022895634174346924,2023-10-20T12:18:20.836798Z,1697804300836
-0.09293556213378906,-0.1454315185546875,-0.005016505718231201,2023-10-20T12:18:20.857075Z,1697804300857
-0.14415931701660156,-0.2356576919555664,-0.005580618977546692,2023-10-20T12:18:20.877291Z,1697804300877
-0.1854090690612793,-0.31546783447265625,-0.004099614918231964,2023-10-20T12:18:20.898435Z,1697804300898
-0.2149667739868164,-0.3793010711669922,-9.997040033340454E-4,2023-10-20T12:18:20.918158Z,1697804300918
-0.2319164276123047,-0.4230232238769531,0.0030215978622436523,2023-10-20T12:18:20.938154Z,1697804300938
-0.23543882369995117,-0.4430227279663086,0.007244333624839783,2023-10-20T12:18:20.958416Z,1697804300958
-0.22499942779541016,-0.43630218505859375,0.010912910103797913,2023-10-20T12:18:20.981799Z,1697804300981
-0.20103025436401367,-0.40152931213378906,0.013295412063598633,2023-10-20T12:18:20.999236Z,1697804300999
-0.16586923599243164,-0.3409557342529297,0.013788282871246338,2023-10-20T12:18:21.019264Z,1697804301019
-0.12311553955078125,-0.26006031036376953,0.012209594249725342,2023-10-20T12:18:21.039796Z,1697804301039
-0.0765380859375,-0.16579818725585938,0.008740812540054321,2023-10-20T12:18:21.060382Z,1697804301060
-0.029361248016357422,-0.06507110595703125,0.0037697553634643555,2023-10-20T12:18:21.082071Z,1697804301082
0.015590429306030273,0.035259246826171875,-0.002213597297668457,2023-10-20T12:18:21.100390Z,1697804301100
0.05658888816833496,0.13016128540039062,-0.008775949478149414,2023-10-20T12:18:21.121191Z,1697804301121
0.09286689758300781,0.21622848510742188,-0.015576183795928955,2023-10-20T12:18:21.141011Z,1697804301140
0.12389397621154785,0.29021549224853516,-0.022225022315979004,2023-10-20T12:18:21.161202Z,1697804301161
0.14910531044006348,0.34902095794677734,-0.028262019157409668,2023-10-20T12:18:21.181920Z,1697804301181
0.16805648803710938,0.3906421661376953,-0.033261001110076904,2023-10-20T12:18:21.201318Z,1697804301201
0.1812431812286377,0.41613197326660156,-0.0370219349861145,2023-10-20T12:18:21.222253Z,1697804301222
0.19025778770446777,0.42952632904052734,-0.039614975452423096,2023-10-20T12:18:21.242287Z,1697804301242
0.1971111297607422,0.4360179901123047,-0.04126054048538208,2023-10-20T12:18:21.265340Z,1697804301265
0.20380687713623047,0.44059181213378906,-0.042256057262420654,2023-10-20T12:18:21.282783Z,1697804301282
0.2125701904296875,0.4483671188354492,-0.04296422004699707,2023-10-20T12:18:21.302846Z,1697804301302
0.2255568504333496,0.46382999420166016,-0.043652892112731934,2023-10-20T12:18:21.323372Z,1697804301323
0.24496126174926758,0.4910907745361328,-0.04447615146636963,2023-10-20T12:18:21.343632Z,1697804301343
0.27234649658203125,0.5328207015991211,-0.0452536940574646,2023-10-20T12:18:21.365358Z,1697804301365
0.3086366653442383,0.5902729034423828,-0.045416295528411865,2023-10-20T12:18:21.384328Z,1697804301384
0.35448408126831055,0.6639280319213867,-0.04420661926269531,2023-10-20T12:18:21.404445Z,1697804301404
0.41045713424682617,0.7540016174316406,-0.04081845283508301,2023-10-20T12:18:21.424696Z,1697804301424
0.47687196731567383,0.8599004745483398,-0.03437602519989014,2023-10-20T12:18:21.448371Z,1697804301448
0.5529060363769531,0.9789676666259766,-0.023844197392463684,2023-10-20T12:18:21.465258Z,1697804301465
0.6363387107849121,1.1065149307250977,-0.008192680776119232,2023-10-20T12:18:21.485447Z,1697804301485
0.7247347831726074,1.2379789352416992,0.01319451630115509,2023-10-20T12:18:21.505996Z,1697804301505
0.8152608871459961,1.3688116073608398,0.04035016894340515,2023-10-20T12:18:21.526252Z,1697804301526
0.9042501449584961,1.493494987487793,0.0728270411491394,2023-10-20T12:18:21.548424Z,1697804301548
0.9882292747497559,1.607107162475586,0.10968559980392456,2023-10-20T12:18:21.566038Z,1697804301566
1.064453125,1.7056999206542969,0.14953678846359253,2023-10-20T12:18:21.586581Z,1697804301586
1.1320085525512695,1.7880582809448242,0.19094038009643555,2023-10-20T12:18:21.606818Z,1697804301606
1.189523696899414,1.852625846862793,0.2324676513671875,2023-10-20T12:18:21.627049Z,1697804301627
1.2340402603149414,1.8966283798217773,0.27255165576934814,2023-10-20T12:18:21.648334Z,1697804301648
1.2633600234985352,1.9183216094970703,0.309650182723999,2023-10-20T12:18:21.667644Z,1697804301667
1.2772936820983887,1.9178571701049805,0.3424680233001709,2023-10-20T12:18:21.687961Z,1697804301687
1.2770767211914062,1.8965482711791992,0.3701972961425781,2023-10-20T12:18:21.708601Z,1697804301708
1.2635746002197266,1.8551836013793945,0.39208245277404785,2023-10-20T12:18:21.731671Z,1697804301731
1.2367348670959473,1.7933616638183594,0.40747666358947754,2023-10-20T12:18:21.748617Z,1697804301748
1.1968011856079102,1.7105913162231445,0.4157295227050781,2023-10-20T12:18:21.769528Z,1697804301769
1.1432995796203613,1.6063241958618164,0.4160773754119873,2023-10-20T12:18:21.789475Z,1697804301789
1.0744695663452148,1.4793243408203125,0.40744519233703613,2023-10-20T12:18:21.809689Z,1697804301809
0.9884963035583496,1.3289852142333984,0.3887472152709961,2023-10-20T12:18:21.831285Z,1697804301831
0.8841710090637207,1.1558666229248047,0.3590738773345947,2023-10-20T12:18:21.850376Z,1697804301850
0.7606191635131836,0.9620323181152344,0.3175489902496338,2023-10-20T12:18:21.870546Z,1697804301870
0.6161270141601562,0.7500109672546387,0.26315832138061523,2023-10-20T12:18:21.890314Z,1697804301890
0.44762563705444336,0.5216536521911621,0.1947040557861328,2023-10-20T12:18:21.910501Z,1697804301910
0.25221824645996094,0.2796750068664551,0.11130309104919434,2023-10-20T12:18:21.931152Z,1697804301931
0.027740001678466797,0.02905893325805664,0.012380361557006836,2023-10-20T12:18:21.951604Z,1697804301951
-0.22700977325439453,-0.22281503677368164,-0.10217905044555664,2023-10-20T12:18:21.971793Z,1697804301971
-0.5112628936767578,-0.46564817428588867,-0.2315657138824463,2023-10-20T12:18:21.992463Z,1697804301992
-0.8240461349487305,-0.6884937286376953,-0.3749115467071533,2023-10-20T12:18:22.014834Z,1697804302014
-1.1628704071044922,-0.8789420127868652,-0.5306391716003418,2023-10-20T12:18:22.032365Z,1697804302032
-1.5227208137512207,-1.022986888885498,-0.6956403255462646,2023-10-20T12:18:22.053045Z,1697804302053
-1.8955135345458984,-1.1058409214019775,-0.8651418685913086,2023-10-20T12:18:22.073486Z,1697804302073
-2.269139289855957,-1.1127731800079346,-1.032210350036621,2023-10-20T12:18:22.093164Z,1697804302093
-2.628058910369873,-1.032308578491211,-1.188143253326416,2023-10-20T12:18:22.114752Z,1697804302114
-2.953707218170166,-0.8606644868850708,-1.3224785327911377,2023-10-20T12:18:22.133405Z,1697804302133
-3.22593355178833,-0.6034657955169678,-1.4233613014221191,2023-10-20T12:18:22.154180Z,1697804302154
-3.4276976585388184,-0.27762681245803833,-1.4808804988861084,2023-10-20T12:18:22.174612Z,1697804302174
-3.5468292236328125,0.09206710755825043,-1.488457441329956,2023-10-20T12:18:22.198178Z,1697804302198
-3.577241897583008,0.4764310121536255,-1.4438259601593018,2023-10-20T12:18:22.215262Z,1697804302215
-3.520111083984375,0.845618724822998,-1.3505470752716064,2023-10-20T12:18:22.235667Z,1697804302235
-3.385176181793213,1.1743730306625366,-1.217643141746521,2023-10-20T12:18:22.255513Z,1697804302255
-3.1879162788391113,1.4464366436004639,-1.0574438571929932,2023-10-20T12:18:22.275538Z,1697804302275
-2.9425644874572754,1.6527135372161865,-0.8817019462585449,2023-10-20T12:18:22.297771Z,1697804302297
-2.6615352630615234,1.7884433269500732,-0.7009705305099487,2023-10-20T12:18:22.315601Z,1697804302315
-2.35550594329834,1.8529047966003418,-0.5239418745040894,2023-10-20T12:18:22.336799Z,1697804302336
-2.033141613006592,1.8479576110839844,-0.357074499130249,2023-10-20T12:18:22.356406Z,1697804302356
-1.6988496780395508,1.7727336883544922,-0.2043125033378601,2023-10-20T12:18:22.376988Z,1697804302376
-1.353938102722168,1.6197481155395508,-0.07120254635810852,2023-10-20T12:18:22.397630Z,1697804302397
-1.0019598007202148,1.376875400543213,0.03197348117828369,2023-10-20T12:18:22.417150Z,1697804302417
-0.6507706642150879,1.0313324928283691,0.09025335311889648,2023-10-20T12:18:22.437389Z,1697804302437
-0.31161022186279297,0.5727825164794922,0.0855945348739624,2023-10-20T12:18:22.457886Z,1697804302457
0.0031151771545410156,-0.006687164306640625,-0.001401066780090332,2023-10-20T12:18:22.481016Z,1697804302480
0.2802734375,-0.7099523544311523,-0.19083118438720703,2023-10-20T12:18:22.498788Z,1697804302498
0.5068216323852539,-1.5356101989746094,-0.5035645961761475,2023-10-20T12:18:22.518494Z,1697804302518
0.6728818416595459,-2.472623825073242,-0.957634449005127,2023-10-20T12:18:22.539359Z,1697804302539
0.7823560237884521,-3.487898826599121,-1.5601015090942383,2023-10-20T12:18:22.559672Z,1697804302559
0.8575752973556519,-4.51682186126709,-2.298031806945801,2023-10-20T12:18:22.581111Z,1697804302581
0.9326128959655762,-5.495885848999023,-3.14255952835083,2023-10-20T12:18:22.599686Z,1697804302599
1.040055751800537,-6.357668876647949,-4.03997802734375,2023-10-20T12:18:22.620254Z,1697804302620
1.200170636177063,-7.052942276000977,-4.931063652038574,2023-10-20T12:18:22.640662Z,1697804302640
1.426919937133789,-7.575478553771973,-5.781871795654297,2023-10-20T12:18:22.660466Z,1697804302660
1.688643217086792,-7.928335189819336,-6.56593132019043,2023-10-20T12:18:22.681032Z,1697804302680
1.9443366527557373,-8.152069091796875,-7.277305603027344,2023-10-20T12:18:22.701134Z,1697804302701
2.1717488765716553,-8.21545696258545,-7.900341033935547,2023-10-20T12:18:22.721585Z,1697804302721
2.3778581619262695,-8.092289924621582,-8.40170669555664,2023-10-20T12:18:22.741612Z,1697804302741
2.5399956703186035,-7.763500213623047,-8.756046295166016,2023-10-20T12:18:22.764184Z,1697804302764
2.6235499382019043,-7.280425071716309,-8.934080123901367,2023-10-20T12:18:22.782087Z,1697804302782
2.6119258403778076,-6.697585105895996,-8.93392276763916,2023-10-20T12:18:22.802164Z,1697804302802
2.534865140914917,-6.063176155090332,-8.815028190612793,2023-10-20T12:18:22.822653Z,1697804302822
2.4309163093566895,-5.408134460449219,-8.632023811340332,2023-10-20T12:18:22.842641Z,1697804302842
2.3128833770751953,-4.7246317863464355,-8.396934509277344,2023-10-20T12:18:22.864301Z,1697804302864
2.2170920372009277,-4.001408576965332,-8.104694366455078,2023-10-20T12:18:22.883421Z,1697804302883
2.189354658126831,-3.209951400756836,-7.733875274658203,2023-10-20T12:18:22.903645Z,1697804302903
2.246858835220337,-2.3871166706085205,-7.284385681152344,2023-10-20T12:18:22.924181Z,1697804302924
2.372413158416748,-1.573131799697876,-6.794706344604492,2023-10-20T12:18:22.947126Z,1697804302947
2.566396474838257,-0.8035523891448975,-6.310883522033691,2023-10-20T12:18:22.965079Z,1697804302965
2.851893424987793,-0.06016019731760025,-5.909061431884766,2023-10-20T12:18:22.984970Z,1697804302984
3.264223098754883,0.7079544067382812,-5.637369155883789,2023-10-20T12:18:23.005687Z,1697804303005
3.807009220123291,1.5578346252441406,-5.464346885681152,2023-10-20T12:18:23.025741Z,1697804303025
4.467472076416016,2.535423755645752,-5.333347797393799,2023-10-20T12:18:23.047485Z,1697804303047
5.20883321762085,3.6487064361572266,-5.17439079284668,2023-10-20T12:18:23.065961Z,1697804303065
5.969200134277344,4.856897354125977,-4.929557800292969,2023-10-20T12:18:23.086062Z,1697804303086
6.662391185760498,6.089999198913574,-4.570873737335205,2023-10-20T12:18:23.107Z,1697804303106
7.213704586029053,7.265920639038086,-4.113144874572754,2023-10-20T12:18:23.126636Z,1697804303126
7.585433006286621,8.317689895629883,-3.597977638244629,2023-10-20T12:18:23.146959Z,1697804303146
7.762714385986328,9.212005615234375,-3.06138014793396,2023-10-20T12:18:23.167119Z,1697804303167
7.802946090698242,9.948448181152344,-2.537973642349243,2023-10-20T12:18:23.187402Z,1697804303187
7.784149646759033,10.572746276855469,-2.049198865890503,2023-10-20T12:18:23.207678Z,1697804303207
7.730723857879639,11.044554710388184,-1.5953292846679688,2023-10-20T12:18:23.229980Z,1697804303229
7.629264831542969,11.323392868041992,-1.1950700283050537,2023-10-20T12:18:23.248226Z,1697804303248
7.501796722412109,11.387422561645508,-0.8620330095291138,2023-10-20T12:18:23.268291Z,1697804303268
7.409712314605713,11.31458568572998,-0.6271181106567383,2023-10-20T12:18:23.288717Z,1697804303288
7.396562576293945,11.178958892822266,-0.49657708406448364,2023-10-20T12:18:23.309240Z,1697804303309
7.4514946937561035,11.013532638549805,-0.4312449097633362,2023-10-20T12:18:23.330372Z,1697804303330
7.5465312004089355,10.830080032348633,-0.3962188959121704,2023-10-20T12:18:23.350160Z,1697804303350
7.665910720825195,10.60925006866455,-0.3777533769607544,2023-10-20T12:18:23.370019Z,1697804303369
7.751987457275391,10.315997123718262,-0.3732300400733948,2023-10-20T12:18:23.390020Z,1697804303389
7.711095809936523,9.876288414001465,-0.390109121799469,2023-10-20T12:18:23.413909Z,1697804303413
7.509754180908203,9.314818382263184,-0.4397352337837219,2023-10-20T12:18:23.430715Z,1697804303430
7.175388336181641,8.674751281738281,-0.5129372477531433,2023-10-20T12:18:23.451133Z,1697804303451
6.729068756103516,8.00656509399414,-0.6033196449279785,2023-10-20T12:18:23.471313Z,1697804303471
6.169096946716309,7.291685581207275,-0.682471513748169,2023-10-20T12:18:23.491320Z,1697804303491
5.504462718963623,6.510589599609375,-0.7324416637420654,2023-10-20T12:18:23.513546Z,1697804303513
4.793550491333008,5.688967704772949,-0.7588772773742676,2023-10-20T12:18:23.532303Z,1697804303532
4.088092803955078,4.861292362213135,-0.7629064321517944,2023-10-20T12:18:23.551977Z,1697804303551
3.4119253158569336,4.05954647064209,-0.7436761856079102,2023-10-20T12:18:23.572823Z,1697804303572
2.7724690437316895,3.30352783203125,-0.698265552520752,2023-10-20T12:18:23.592774Z,1697804303592
2.1902222633361816,2.614069938659668,-0.6279914379119873,2023-10-20T12:18:23.613341Z,1697804303613
1.6791763305664062,2.0051441192626953,-0.5392484664916992,2023-10-20T12:18:23.633359Z,1697804303633
1.2428746223449707,1.4814739227294922,-0.4387996196746826,2023-10-20T12:18:23.654162Z,1697804303654
0.8793272972106934,1.0425176620483398,-0.3342769145965576,2023-10-20T12:18:23.674046Z,1697804303674
0.5821056365966797,0.683957576751709,-0.23320436477661133,2023-10-20T12:18:23.697092Z,1697804303697
0.3416905403137207,0.39696598052978516,-0.14130473136901855,2023-10-20T12:18:23.714179Z,1697804303714
0.14857006072998047,0.17075824737548828,-0.06231379508972168,2023-10-20T12:18:23.734281Z,1697804303734
-0.0021986961364746094,-0.0025086402893066406,9.2315673828125E-4,2023-10-20T12:18:23.755094Z,1697804303754
-0.11260986328125,-0.12793397903442383,0.046721458435058594,2023-10-20T12:18:23.775363Z,1697804303775
-0.18605899810791016,-0.21148157119750977,0.07565832138061523,2023-10-20T12:18:23.796929Z,1697804303796
-0.22977542877197266,-0.26259565353393555,0.09092497825622559,2023-10-20T12:18:23.815628Z,1697804303815
-0.25315093994140625,-0.29248762130737305,0.09685039520263672,2023-10-20T12:18:23.835840Z,1697804303835
-0.2644491195678711,-0.3106503486633301,0.09714245796203613,2023-10-20T12:18:23.856323Z,1697804303856
-0.26794910430908203,-0.3215813636779785,0.09377884864807129,2023-10-20T12:18:23.879685Z,1697804303879
-0.2648167610168457,-0.32590675354003906,0.08762526512145996,2023-10-20T12:18:23.897282Z,1697804303897
-0.2565016746520996,-0.32451486587524414,0.07965981960296631,2023-10-20T12:18:23.916948Z,1697804303916
-0.2451152801513672,-0.31922435760498047,0.07088470458984375,2023-10-20T12:18:23.936981Z,1697804303936
-0.23426246643066406,-0.31430816650390625,0.06241917610168457,2023-10-20T12:18:23.957649Z,1697804303957
-0.2268214225769043,-0.31368303298950195,0.05486464500427246,2023-10-20T12:18:23.979821Z,1697804303979
-0.22294998168945312,-0.3177027702331543,0.047930002212524414,2023-10-20T12:18:23.997686Z,1697804303997
-0.22051095962524414,-0.3233819007873535,0.0409579873085022,2023-10-20T12:18:24.017981Z,1697804304017
-0.21623849868774414,-0.32562780380249023,0.03345537185668945,2023-10-20T12:18:24.038538Z,1697804304038
-0.20777606964111328,-0.3204922676086426,0.025540649890899658,2023-10-20T12:18:24.058716Z,1697804304058
-0.19434404373168945,-0.30652761459350586,0.017750144004821777,2023-10-20T12:18:24.079853Z,1697804304079
-0.17586755752563477,-0.2833395004272461,0.010638624429702759,2023-10-20T12:18:24.099498Z,1697804304099
-0.15189504623413086,-0.2497854232788086,0.004685118794441223,2023-10-20T12:18:24.119305Z,1697804304119
-0.12276268005371094,-0.20588111877441406,3.4543033689260483E-4,2023-10-20T12:18:24.139626Z,1697804304139
-0.09048795700073242,-0.15465164184570312,-0.002100937068462372,2023-10-20T12:18:24.163111Z,1697804304163
-0.057738304138183594,-0.10052871704101562,-0.002716362476348877,2023-10-20T12:18:24.180751Z,1697804304180
-0.02651500701904297,-0.047061920166015625,-0.0018153786659240723,2023-10-20T12:18:24.201013Z,1697804304200
0.0022716522216796875,0.004115104675292969,1.977086067199707E-4,2023-10-20T12:18:24.221115Z,1697804304221
0.027935028076171875,0.05176544189453125,0.002867579460144043,2023-10-20T12:18:24.241096Z,1697804304241
0.04837989807128906,0.09187698364257812,0.0055748820304870605,2023-10-20T12:18:24.262690Z,1697804304262
0.06150007247924805,0.11991405487060547,0.007711172103881836,2023-10-20T12:18:24.281816Z,1697804304281
0.0661921501159668,0.1327190399169922,0.008865714073181152,2023-10-20T12:18:24.301941Z,1697804304301
0.06328535079956055,0.13065528869628906,0.00893700122833252,2023-10-20T12:18:24.322599Z,1697804304322
0.05526399612426758,0.11758708953857422,0.008109450340270996,2023-10-20T12:18:24.342151Z,1697804304342
0.04502439498901367,0.09876728057861328,0.006741583347320557,2023-10-20T12:18:24.363011Z,1697804304362
0.034781455993652344,0.07865142822265625,0.00520855188369751,2023-10-20T12:18:24.383152Z,1697804304383
0.025292396545410156,0.05891990661621094,0.0037177205085754395,2023-10-20T12:18:24.403392Z,1697804304403
0.01705002784729004,0.04085731506347656,0.0024240612983703613,2023-10-20T12:18:24.424028Z,1697804304423
0.010851144790649414,0.026693344116210938,0.001472175121307373,2023-10-20T12:18:24.446472Z,1697804304446
0.00852823257446289,0.021471023559570312,0.0010868310928344727,2023-10-20T12:18:24.464115Z,1697804304464
0.011766910552978516,0.030208587646484375,0.0013753175735473633,2023-10-20T12:18:24.484464Z,1697804304484
0.021464824676513672,0.05602455139160156,0.0022256970405578613,2023-10-20T12:18:24.504890Z,1697804304504
0.037462711334228516,0.09918785095214844,0.0033060312271118164,2023-10-20T12:18:24.525218Z,1697804304525
0.0581204891204834,0.1559305191040039,0.004172921180725098,2023-10-20T12:18:24.546187Z,1697804304546
0.08106064796447754,0.22025203704833984,0.004556745290756226,2023-10-20T12:18:24.565079Z,1697804304565
0.10385608673095703,0.28545284271240234,0.0045492202043533325,2023-10-20T12:18:24.585811Z,1697804304585
0.12497210502624512,0.34645843505859375,0.004578739404678345,2023-10-20T12:18:24.606086Z,1697804304606
0.14395356178283691,0.40052127838134766,0.005228817462921143,2023-10-20T12:18:24.629484Z,1697804304629
0.16066312789916992,0.44600677490234375,0.007006287574768066,2023-10-20T12:18:24.646172Z,1697804304646
0.17485523223876953,0.4818906784057617,0.010189235210418701,2023-10-20T12:18:24.666178Z,1697804304666
0.18626618385314941,0.5083847045898438,0.014787167310714722,2023-10-20T12:18:24.686933Z,1697804304686
0.1942908763885498,0.525177001953125,0.02062883973121643,2023-10-20T12:18:24.707234Z,1697804304707
0.19813084602355957,0.5311985015869141,0.027432918548583984,2023-10-20T12:18:24.729318Z,1697804304729
0.19781851768493652,0.5267724990844727,0.03487217426300049,2023-10-20T12:18:24.747900Z,1697804304747
0.1945664882659912,0.5147523880004883,0.0426173210144043,2023-10-20T12:18:24.768004Z,1697804304767
0.1898958683013916,0.4992504119873047,0.05037873983383179,2023-10-20T12:18:24.788652Z,1697804304788
0.1849839687347412,0.4840106964111328,0.057942986488342285,2023-10-20T12:18:24.808848Z,1697804304808
0.17984318733215332,0.4701042175292969,0.06505775451660156,2023-10-20T12:18:24.828955Z,1697804304828
0.17447161674499512,0.4580049514770508,0.07161843776702881,2023-10-20T12:18:24.849426Z,1697804304849
0.16930460929870605,0.44849109649658203,0.07778871059417725,2023-10-20T12:18:24.869814Z,1697804304869
0.16502094268798828,0.44223690032958984,0.0839080810546875,2023-10-20T12:18:24.889790Z,1697804304889
0.1622321605682373,0.4398221969604492,0.09031069278717041,2023-10-20T12:18:24.912543Z,1697804304912
0.16100645065307617,0.4409618377685547,0.09711742401123047,2023-10-20T12:18:24.930061Z,1697804304930
0.16088199615478516,0.4445362091064453,0.10414385795593262,2023-10-20T12:18:24.950527Z,1697804304950
0.16071701049804688,0.4479026794433594,0.11078071594238281,2023-10-20T12:18:24.970818Z,1697804304970
0.15941119194030762,0.4482574462890625,0.1163017749786377,2023-10-20T12:18:24.991167Z,1697804304991
0.15587615966796875,0.4424400329589844,0.11983323097229004,2023-10-20T12:18:25.012520Z,1697804305012
0.1490945816040039,0.4271078109741211,0.12036323547363281,2023-10-20T12:18:25.031616Z,1697804305031
0.138580322265625,0.400360107421875,0.11709260940551758,2023-10-20T12:18:25.051918Z,1697804305051
0.12441897392272949,0.3620491027832031,0.10957527160644531,2023-10-20T12:18:25.071676Z,1697804305071
0.1069188117980957,0.31313323974609375,0.09765434265136719,2023-10-20T12:18:25.095745Z,1697804305095
0.0866239070892334,0.2554292678833008,0.08159422874450684,2023-10-20T12:18:25.112801Z,1697804305112
0.06381845474243164,0.18991565704345703,0.061678171157836914,2023-10-20T12:18:25.132798Z,1697804305132
0.039359092712402344,0.11864948272705078,0.03885221481323242,2023-10-20T12:18:25.153420Z,1697804305153
0.014974594116210938,0.04585838317871094,0.015017271041870117,2023-10-20T12:18:25.173409Z,1697804305173
-0.007477283477783203,-0.023256301879882812,-0.0075550079345703125,2023-10-20T12:18:25.195415Z,1697804305195
-0.02593851089477539,-0.08154296875,-0.026094436645507812,2023-10-20T12:18:25.213743Z,1697804305213
-0.0385584831237793,-0.121612548828125,-0.03802657127380371,2023-10-20T12:18:25.233602Z,1697804305233
-0.044037818908691406,-0.13823890686035156,-0.041895389556884766,2023-10-20T12:18:25.254290Z,1697804305254
-0.041864871978759766,-0.12990474700927734,-0.03789496421813965,2023-10-20T12:18:25.274715Z,1697804305274
-0.03231167793273926,-0.09844589233398438,-0.02753901481628418,2023-10-20T12:18:25.295508Z,1697804305295
-0.01616644859313965,-0.04800128936767578,-0.012889623641967773,2023-10-20T12:18:25.315078Z,1697804305315
0.0062656402587890625,0.017965316772460938,0.004655361175537109,2023-10-20T12:18:25.335577Z,1697804305335
0.03485608100891113,0.0956563949584961,0.02411818504333496,2023-10-20T12:18:25.355951Z,1697804305355
0.06929469108581543,0.18096351623535156,0.04478049278259277,2023-10-20T12:18:25.379415Z,1697804305379
0.10836076736450195,0.2689638137817383,0.06583547592163086,2023-10-20T12:18:25.396569Z,1697804305396
0.14917993545532227,0.3529071807861328,0.08609366416931152,2023-10-20T12:18:25.416363Z,1697804305416
0.1885242462158203,0.4268321990966797,0.10461997985839844,2023-10-20T12:18:25.437125Z,1697804305437
0.22383356094360352,0.48688697814941406,0.1209421157836914,2023-10-20T12:18:25.457133Z,1697804305457
0.2541022300720215,0.5326929092407227,0.13517093658447266,2023-10-20T12:18:25.478829Z,1697804305478
0.27922868728637695,0.5658702850341797,0.1475696563720703,2023-10-20T12:18:25.497875Z,1697804305497
0.29990673065185547,0.5895595550537109,0.15854644775390625,2023-10-20T12:18:25.518183Z,1697804305518
0.3177371025085449,0.6081342697143555,0.16884589195251465,2023-10-20T12:18:25.537982Z,1697804305537
0.33532142639160156,0.6269683837890625,0.17969799041748047,2023-10-20T12:18:25.562251Z,1697804305562
0.3547706604003906,0.6499805450439453,0.1922154426574707,2023-10-20T12:18:25.578929Z,1697804305578
0.37677574157714844,0.6783437728881836,0.2069389820098877,2023-10-20T12:18:25.598505Z,1697804305598
0.3995547294616699,0.7089691162109375,0.22323369979858398,2023-10-20T12:18:25.619087Z,1697804305619
0.42032861709594727,0.7371120452880859,0.23995113372802734,2023-10-20T12:18:25.639091Z,1697804305639
0.43645811080932617,0.7582330703735352,0.25578832626342773,2023-10-20T12:18:25.662113Z,1697804305662
0.44577884674072266,0.7687873840332031,0.26950597763061523,2023-10-20T12:18:25.679601Z,1697804305679
0.44692039489746094,0.7667398452758789,0.2800776958465576,2023-10-20T12:18:25.699912Z,1697804305699
0.4382619857788086,0.7496786117553711,0.2861309051513672,2023-10-20T12:18:25.720554Z,1697804305720
0.41794252395629883,0.7146186828613281,0.28585314750671387,2023-10-20T12:18:25.740601Z,1697804305740
0.3839592933654785,0.6581249237060547,0.27685093879699707,2023-10-20T12:18:25.762040Z,1697804305762
0.33596372604370117,0.5791335105895996,0.257082462310791,2023-10-20T12:18:25.781304Z,1697804305781
0.2760653495788574,0.48025035858154297,0.22555828094482422,2023-10-20T12:18:25.801806Z,1697804305801
0.20896577835083008,0.3682546615600586,0.1831519603729248,2023-10-20T12:18:25.822395Z,1697804305822
0.13960933685302734,0.25035619735717773,0.13171768188476562,2023-10-20T12:18:25.845194Z,1697804305845
0.07220220565795898,0.13247013092041016,0.07355451583862305,2023-10-20T12:18:25.862821Z,1697804305862
0.00972604751586914,0.01836538314819336,0.010735034942626953,2023-10-20T12:18:25.882638Z,1697804305882
-0.045412540435791016,-0.08876800537109375,-0.05449676513671875,2023-10-20T12:18:25.902764Z,1697804305902
-0.09107446670532227,-0.1853485107421875,-0.11925077438354492,2023-10-20T12:18:25.923501Z,1697804305923
-0.12575769424438477,-0.2681093215942383,-0.1803293228149414,2023-10-20T12:18:25.945127Z,1697804305945
-0.14892911911010742,-0.3347444534301758,-0.23472118377685547,2023-10-20T12:18:25.963705Z,1697804305963
-0.16131830215454102,-0.3845057487487793,-0.2803683280944824,2023-10-20T12:18:25.983577Z,1697804305983
-0.16469216346740723,-0.41812992095947266,-0.3164043426513672,2023-10-20T12:18:26.004719Z,1697804306004
-0.16135573387145996,-0.4378242492675781,-0.3433513641357422,2023-10-20T12:18:26.024670Z,1697804306024
-0.15381145477294922,-0.4475531578063965,-0.36340999603271484,2023-10-20T12:18:26.045115Z,1697804306045
-0.14429116249084473,-0.4521760940551758,-0.3799095153808594,2023-10-20T12:18:26.064600Z,1697804306064
-0.13439452648162842,-0.4557228088378906,-0.3957839012145996,2023-10-20T12:18:26.085372Z,1697804306085
-0.12514305114746094,-0.4608607292175293,-0.4129981994628906,2023-10-20T12:18:26.105618Z,1697804306105
-0.11715006828308105,-0.46902990341186523,-0.4324789047241211,2023-10-20T12:18:26.128875Z,1697804306128
-0.11085915565490723,-0.48124170303344727,-0.4546957015991211,2023-10-20T12:18:26.146095Z,1697804306146
-0.10651278495788574,-0.49812841415405273,-0.4798240661621094,2023-10-20T12:18:26.166160Z,1697804306166
-0.10433673858642578,-0.5201883316040039,-0.5080351829528809,2023-10-20T12:18:26.186659Z,1697804306186
-0.10441958904266357,-0.5474367141723633,-0.5393238067626953,2023-10-20T12:18:26.206724Z,1697804306206
-0.10685467720031738,-0.5800495147705078,-0.5737686157226562,2023-10-20T12:18:26.228779Z,1697804306228
-0.11165904998779297,-0.6177129745483398,-0.610389232635498,2023-10-20T12:18:26.247534Z,1697804306247
-0.11840534210205078,-0.657508373260498,-0.6450691223144531,2023-10-20T12:18:26.267917Z,1697804306267
-0.12586188316345215,-0.6948046684265137,-0.6722702980041504,2023-10-20T12:18:26.288348Z,1697804306288
-0.13321363925933838,-0.7270517349243164,-0.6896419525146484,2023-10-20T12:18:26.307636Z,1697804306307
-0.14008474349975586,-0.7524943351745605,-0.6967272758483887,2023-10-20T12:18:26.327927Z,1697804306327
-0.1470940113067627,-0.7727360725402832,-0.6963057518005371,2023-10-20T12:18:26.348785Z,1697804306348
-0.15472984313964844,-0.7869925498962402,-0.6888031959533691,2023-10-20T12:18:26.369679Z,1697804306369
-0.1622471809387207,-0.7933130264282227,-0.6734828948974609,2023-10-20T12:18:26.389567Z,1697804306389
-0.1692354679107666,-0.7917304039001465,-0.6512055397033691,2023-10-20T12:18:26.412434Z,1697804306412
-0.17557716369628906,-0.7821969985961914,-0.62255859375,2023-10-20T12:18:26.429991Z,1697804306429
-0.18154382705688477,-0.7651338577270508,-0.5885791778564453,2023-10-20T12:18:26.450096Z,1697804306450
-0.18793010711669922,-0.7430949211120605,-0.5519146919250488,2023-10-20T12:18:26.470814Z,1697804306470
-0.1956934928894043,-0.7191767692565918,-0.5149364471435547,2023-10-20T12:18:26.490339Z,1697804306490
-0.2042860984802246,-0.6931743621826172,-0.4773683547973633,2023-10-20T12:18:26.511288Z,1697804306511
-0.21265053749084473,-0.6646161079406738,-0.4389772415161133,2023-10-20T12:18:26.531484Z,1697804306531
-0.21863889694213867,-0.6299629211425781,-0.39818334579467773,2023-10-20T12:18:26.551414Z,1697804306551
-0.22109723091125488,-0.5891962051391602,-0.3557014465332031,2023-10-20T12:18:26.571817Z,1697804306571
-0.21964097023010254,-0.5428237915039062,-0.3122386932373047,2023-10-20T12:18:26.594620Z,1697804306594
-0.21274018287658691,-0.48912858963012695,-0.2671036720275879,2023-10-20T12:18:26.611929Z,1697804306611
-0.19835877418518066,-0.4260287284851074,-0.21985960006713867,2023-10-20T12:18:26.632415Z,1697804306632
-0.17458677291870117,-0.3521599769592285,-0.17099595069885254,2023-10-20T12:18:26.653184Z,1697804306653
-0.14041519165039062,-0.2677469253540039,-0.1218557357788086,2023-10-20T12:18:26.673400Z,1697804306673
-0.0962228775024414,-0.1746821403503418,-0.0742945671081543,2023-10-20T12:18:26.694711Z,1697804306694
-0.04337024688720703,-0.07547330856323242,-0.029905080795288086,2023-10-20T12:18:26.713702Z,1697804306713
0.017058849334716797,0.02862548828125,0.010529518127441406,2023-10-20T12:18:26.733571Z,1697804306733
0.08328962326049805,0.13536453247070312,0.04604458808898926,2023-10-20T12:18:26.754033Z,1697804306753
0.1518864631652832,0.23983097076416016,0.07516121864318848,2023-10-20T12:18:26.774079Z,1697804306774
0.21939373016357422,0.3370199203491211,0.0968635082244873,2023-10-20T12:18:26.794364Z,1697804306794
0.28357744216918945,0.42420482635498047,0.11113524436950684,2023-10-20T12:18:26.814883Z,1697804306814
0.34163427352905273,0.4983816146850586,0.11805260181427002,2023-10-20T12:18:26.834895Z,1697804306834
0.3919715881347656,0.5586676597595215,0.11862671375274658,2023-10-20T12:18:26.855332Z,1697804306855
0.43192291259765625,0.6025686264038086,0.11355793476104736,2023-10-20T12:18:26.877958Z,1697804306877
0.461395263671875,0.630251407623291,0.10399317741394043,2023-10-20T12:18:26.895799Z,1697804306895
0.48137664794921875,0.6435060501098633,0.09128451347351074,2023-10-20T12:18:26.915928Z,1697804306915
0.4913768768310547,0.6426863670349121,0.07636982202529907,2023-10-20T12:18:26.937104Z,1697804306937
0.49047088623046875,0.628260612487793,0.06014436483383179,2023-10-20T12:18:26.956841Z,1697804306956
0.47917747497558594,0.6028146743774414,0.043682098388671875,2023-10-20T12:18:26.977901Z,1697804306977
0.45876169204711914,0.5692625045776367,0.028162330389022827,2023-10-20T12:18:26.997454Z,1697804306997
0.43169212341308594,0.5306668281555176,0.01436394453048706,2023-10-20T12:18:27.017621Z,1697804307017
0.4027986526489258,0.49232006072998047,0.0027743615210056305,2023-10-20T12:18:27.037963Z,1697804307037
0.3761916160583496,0.45852041244506836,-0.006896689534187317,2023-10-20T12:18:27.061188Z,1697804307061
0.35551929473876953,0.43307018280029297,-0.014920592308044434,2023-10-20T12:18:27.078729Z,1697804307078
0.3406257629394531,0.41554927825927734,-0.021457046270370483,2023-10-20T12:18:27.098695Z,1697804307098
0.32863283157348633,0.40216827392578125,-0.026479482650756836,2023-10-20T12:18:27.119012Z,1697804307118
0.3165473937988281,0.38903045654296875,-0.0298500657081604,2023-10-20T12:18:27.138815Z,1697804307138
0.3027458190917969,0.3738565444946289,-0.03157973289489746,2023-10-20T12:18:27.161372Z,1697804307161
0.2868800163269043,0.35584211349487305,-0.031788647174835205,2023-10-20T12:18:27.179291Z,1697804307179
0.2689342498779297,0.33472299575805664,-0.030693113803863525,2023-10-20T12:18:27.199923Z,1697804307199
0.2476634979248047,0.30881166458129883,-0.02833610773086548,2023-10-20T12:18:27.219908Z,1697804307219
0.22036218643188477,0.27474212646484375,-0.024663567543029785,2023-10-20T12:18:27.239872Z,1697804307239
0.18554258346557617,0.23083925247192383,-0.019822776317596436,2023-10-20T12:18:27.260721Z,1697804307260
0.1447315216064453,0.1794300079345703,-0.01443392038345337,2023-10-20T12:18:27.280953Z,1697804307280
0.10163068771362305,0.1255168914794922,-0.009277284145355225,2023-10-20T12:18:27.301579Z,1697804307301
0.06216239929199219,0.07651090621948242,-0.005086183547973633,2023-10-20T12:18:27.321455Z,1697804307321
0.032921791076660156,0.0403742790222168,-0.0023488104343414307,2023-10-20T12:18:27.343678Z,1697804307343
0.018840312957763672,0.02300262451171875,-0.0011295080184936523,2023-10-20T12:18:27.361528Z,1697804307361
0.02199697494506836,0.026732921600341797,-0.0010541975498199463,2023-10-20T12:18:27.381990Z,1697804307381
0.04229545593261719,0.05128192901611328,-0.0015088915824890137,2023-10-20T12:18:27.402561Z,1697804307402
0.07949352264404297,0.09662342071533203,-0.001828208565711975,2023-10-20T12:18:27.422740Z,1697804307422
0.13388967514038086,0.16402626037597656,-0.0012575499713420868,2023-10-20T12:18:27.443839Z,1697804307443
0.20548772811889648,0.25466442108154297,0.001208871603012085,2023-10-20T12:18:27.463035Z,1697804307462
0.293367862701416,0.3683595657348633,0.006778702139854431,2023-10-20T12:18:27.483306Z,1697804307483
0.39474964141845703,0.5023965835571289,0.016593098640441895,2023-10-20T12:18:27.503902Z,1697804307503
0.504666805267334,0.65118408203125,0.0314459502696991,2023-10-20T12:18:27.523848Z,1697804307523
0.6165494918823242,0.8072061538696289,0.051627278327941895,2023-10-20T12:18:27.544195Z,1697804307544
0.724907398223877,0.964019775390625,0.07718801498413086,2023-10-20T12:18:27.564710Z,1697804307564
0.827089786529541,1.1177787780761719,0.10787945985794067,2023-10-20T12:18:27.584911Z,1697804307584
0.9226045608520508,1.266434669494629,0.14325106143951416,2023-10-20T12:18:27.605130Z,1697804307605
1.0123929977416992,1.4085917472839355,0.18256592750549316,2023-10-20T12:18:27.627347Z,1697804307627
1.097397804260254,1.5435490608215332,0.22481906414031982,2023-10-20T12:18:27.646042Z,1697804307645
1.1777920722961426,1.6715998649597168,0.26881277561187744,2023-10-20T12:18:27.665447Z,1697804307665
1.2530326843261719,1.7926015853881836,0.3131648302078247,2023-10-20T12:18:27.686164Z,1697804307686
1.3227219581604004,1.9059700965881348,0.3567850589752197,2023-10-20T12:18:27.706198Z,1697804307706
1.3870930671691895,2.0118470191955566,0.3987690210342407,2023-10-20T12:18:27.726690Z,1697804307726
1.4464635848999023,2.110922336578369,0.43853330612182617,2023-10-20T12:18:27.746949Z,1697804307746
1.5001473426818848,2.2026891708374023,0.47542405128479004,2023-10-20T12:18:27.766852Z,1697804307766
1.5470495223999023,2.2841835021972656,0.5088391304016113,2023-10-20T12:18:27.787517Z,1697804307787
1.586103916168213,2.3509140014648438,0.5382530689239502,2023-10-20T12:18:27.810497Z,1697804307810
1.6142621040344238,2.3964529037475586,0.5623924732208252,2023-10-20T12:18:27.827720Z,1697804307827
1.6261610984802246,2.414470672607422,0.5795853137969971,2023-10-20T12:18:27.848545Z,1697804307848
1.6156730651855469,2.3986167907714844,0.5883176326751709,2023-10-20T12:18:27.868552Z,1697804307868
1.5795927047729492,2.3435134887695312,0.5878651142120361,2023-10-20T12:18:27.889179Z,1697804307889
1.5178651809692383,2.2453842163085938,0.5779623985290527,2023-10-20T12:18:27.910246Z,1697804307910
1.4317030906677246,2.101621627807617,0.5577478408813477,2023-10-20T12:18:27.929511Z,1697804307929
1.321711540222168,1.9131402969360352,0.5260491371154785,2023-10-20T12:18:27.949788Z,1697804307949
1.1869964599609375,1.6837425231933594,0.48156237602233887,2023-10-20T12:18:27.970040Z,1697804307969
1.0264897346496582,1.4186220169067383,0.42363762855529785,2023-10-20T12:18:27.989825Z,1697804307989
0.8390293121337891,1.1230530738830566,0.35175538063049316,2023-10-20T12:18:28.010369Z,1697804308010
0.6247110366821289,0.8044700622558594,0.2657935619354248,2023-10-20T12:18:28.030800Z,1697804308030
0.38448667526245117,0.4723978042602539,0.16568279266357422,2023-10-20T12:18:28.051106Z,1697804308051
0.11950349807739258,0.1386699676513672,0.05197262763977051,2023-10-20T12:18:28.071362Z,1697804308071
-0.16998720169067383,-0.1842365264892578,-0.07426834106445312,2023-10-20T12:18:28.093712Z,1697804308093
-0.4845438003540039,-0.48519039154052734,-0.2117016315460205,2023-10-20T12:18:28.111260Z,1697804308111
-0.8249945640563965,-0.7555174827575684,-0.3593125343322754,2023-10-20T12:18:28.131738Z,1697804308131
-1.1913199424743652,-0.9867234230041504,-0.5163223743438721,2023-10-20T12:18:28.152663Z,1697804308152
-1.5810799598693848,-1.166252613067627,-0.6810088157653809,2023-10-20T12:18:28.172215Z,1697804308172
-1.9885740280151367,-1.2785167694091797,-0.8500618934631348,2023-10-20T12:18:28.193336Z,1697804308193
-2.4037609100341797,-1.3077661991119385,-1.0175817012786865,2023-10-20T12:18:28.212733Z,1697804308212
-2.813054084777832,-1.241525650024414,-1.1760318279266357,2023-10-20T12:18:28.233211Z,1697804308233
-3.1971864700317383,-1.070901870727539,-1.3157527446746826,2023-10-20T12:18:28.253314Z,1697804308253
-3.532835006713867,-0.794517993927002,-1.425361156463623,2023-10-20T12:18:28.277141Z,1697804308277
-3.7953124046325684,-0.4229578971862793,-1.4942219257354736,2023-10-20T12:18:28.294201Z,1697804308294
-3.962702751159668,0.020412111654877663,-1.513782024383545,2023-10-20T12:18:28.314239Z,1697804308314
-4.018960952758789,0.5011184215545654,-1.4789186716079712,2023-10-20T12:18:28.334590Z,1697804308334
-3.957988739013672,0.9775686264038086,-1.38957679271698,2023-10-20T12:18:28.354845Z,1697804308354
-3.7869081497192383,1.4073566198349,-1.251645803451538,2023-10-20T12:18:28.377415Z,1697804308377
-3.526217460632324,1.756972074508667,-1.0764968395233154,2023-10-20T12:18:28.395308Z,1697804308395
-3.2015786170959473,2.0085809230804443,-0.8776586055755615,2023-10-20T12:18:28.415647Z,1697804308415
-2.8353805541992188,2.1574738025665283,-0.6681532859802246,2023-10-20T12:18:28.435922Z,1697804308435
-2.44248628616333,2.2055649757385254,-0.46003133058547974,2023-10-20T12:18:28.455946Z,1697804308455
-2.0313258171081543,2.1507420539855957,-0.2650681138038635,2023-10-20T12:18:28.476666Z,1697804308476
-1.6114726066589355,1.9888014793395996,-0.09674510359764099,2023-10-20T12:18:28.496894Z,1697804308496
-1.1973652839660645,1.7175498008728027,0.031090356409549713,2023-10-20T12:18:28.516961Z,1697804308516
-0.8050570487976074,1.3414087295532227,0.10617697238922119,2023-10-20T12:18:28.537297Z,1697804308537
-0.44739627838134766,0.8671689033508301,0.11831974983215332,2023-10-20T12:18:28.560087Z,1697804308560
-0.13372588157653809,0.30312538146972656,0.05802309513092041,2023-10-20T12:18:28.577493Z,1697804308577
0.12838196754455566,-0.3439445495605469,-0.08420491218566895,2023-10-20T12:18:28.598Z,1697804308597
0.33145952224731445,-1.0662517547607422,-0.3168947696685791,2023-10-20T12:18:28.618067Z,1697804308618
0.4703207015991211,-1.8510465621948242,-0.646129846572876,2023-10-20T12:18:28.638315Z,1697804308638
0.5469441413879395,-2.6747560501098633,-1.0727627277374268,2023-10-20T12:18:28.660185Z,1697804308660
0.5738728046417236,-3.49688720703125,-1.5901527404785156,2023-10-20T12:18:28.679028Z,1697804308678
0.5723975896835327,-4.273541450500488,-2.1900787353515625,2023-10-20T12:18:28.699351Z,1697804308699
0.5679699182510376,-4.979031562805176,-2.8625121116638184,2023-10-20T12:18:28.719589Z,1697804308719
0.5889860391616821,-5.5913896560668945,-3.583625316619873,2023-10-20T12:18:28.739622Z,1697804308739
0.6569246053695679,-6.073070049285889,-4.3013081550598145,2023-10-20T12:18:28.760066Z,1697804308760
0.7972743511199951,-6.396108627319336,-4.964893341064453,2023-10-20T12:18:28.780568Z,1697804308780
0.9823949337005615,-6.544590950012207,-5.535882472991943,2023-10-20T12:18:28.800919Z,1697804308800
1.1789920330047607,-6.541884422302246,-5.995461940765381,2023-10-20T12:18:28.820957Z,1697804308820
1.3540065288543701,-6.402822971343994,-6.362726211547852,2023-10-20T12:18:28.843587Z,1697804308843
1.495603322982788,-6.120782852172852,-6.6244916915893555,2023-10-20T12:18:28.861593Z,1697804308861
1.5855745077133179,-5.715404033660889,-6.797300338745117,2023-10-20T12:18:28.881537Z,1697804308881
1.615732192993164,-5.222448348999023,-6.848483562469482,2023-10-20T12:18:28.902436Z,1697804308902
1.5843514204025269,-4.674030303955078,-6.7609543800354,2023-10-20T12:18:28.922166Z,1697804308922
1.5104321241378784,-4.084677696228027,-6.554601669311523,2023-10-20T12:18:28.943237Z,1697804308943
1.416576862335205,-3.4734792709350586,-6.274807929992676,2023-10-20T12:18:28.962728Z,1697804308962
1.3064944744110107,-2.855231761932373,-5.955460548400879,2023-10-20T12:18:28.982815Z,1697804308982
1.214432954788208,-2.243177652359009,-5.619454383850098,2023-10-20T12:18:29.003072Z,1697804309003
1.1715703010559082,-1.6332640647888184,-5.282233238220215,2023-10-20T12:18:29.026528Z,1697804309026
1.1950063705444336,-1.0313160419464111,-4.924354553222656,2023-10-20T12:18:29.043595Z,1697804309043
1.2803282737731934,-0.45814889669418335,-4.573878288269043,2023-10-20T12:18:29.063604Z,1697804309063
1.4319398403167725,0.08300335705280304,-4.2399444580078125,2023-10-20T12:18:29.084139Z,1697804309084
1.6770172119140625,0.6258280277252197,-4.009349822998047,2023-10-20T12:18:29.104763Z,1697804309104
2.0647244453430176,1.2492115497589111,-3.9413223266601562,2023-10-20T12:18:29.126226Z,1697804309126
2.613002300262451,2.0309648513793945,-3.996591567993164,2023-10-20T12:18:29.145107Z,1697804309145
3.296586036682129,3.0044469833374023,-4.080427169799805,2023-10-20T12:18:29.165654Z,1697804309165
4.05246114730835,4.137192249298096,-4.094715118408203,2023-10-20T12:18:29.185479Z,1697804309185
4.815370082855225,5.354413986206055,-3.9786605834960938,2023-10-20T12:18:29.205623Z,1697804309205
5.518139362335205,6.5760602951049805,-3.7152175903320312,2023-10-20T12:18:29.226225Z,1697804309226
6.098731517791748,7.7302350997924805,-3.325220823287964,2023-10-20T12:18:29.246454Z,1697804309246
6.517879486083984,8.758842468261719,-2.86552095413208,2023-10-20T12:18:29.266734Z,1697804309266
6.731019496917725,9.61227035522461,-2.391064167022705,2023-10-20T12:18:29.287225Z,1697804309287
6.781766414642334,10.274762153625488,-1.946363925933838,2023-10-20T12:18:29.309588Z,1697804309309
6.7295637130737305,10.77210807800293,-1.5610339641571045,2023-10-20T12:18:29.327666Z,1697804309327
6.631582260131836,11.10699462890625,-1.217409610748291,2023-10-20T12:18:29.347587Z,1697804309347
6.509645462036133,11.265796661376953,-0.9197524785995483,2023-10-20T12:18:29.368100Z,1697804309368
6.398372650146484,11.265256881713867,-0.6542298793792725,2023-10-20T12:18:29.388431Z,1697804309388
6.325667858123779,11.170080184936523,-0.4529821276664734,2023-10-20T12:18:29.409515Z,1697804309409
6.310957908630371,11.035972595214844,-0.3298186659812927,2023-10-20T12:18:29.428842Z,1697804309428
6.340590476989746,10.868966102600098,-0.2645338177680969,2023-10-20T12:18:29.449433Z,1697804309449
6.399351119995117,10.670743942260742,-0.22244665026664734,2023-10-20T12:18:29.469395Z,1697804309469
6.4957051277160645,10.447969436645508,-0.17914006114006042,2023-10-20T12:18:29.492772Z,1697804309492
6.584035873413086,10.187766075134277,-0.12791258096694946,2023-10-20T12:18:29.509879Z,1697804309509
6.601171493530273,9.838663101196289,-0.0707467794418335,2023-10-20T12:18:29.530025Z,1697804309529
6.498913764953613,9.38447380065918,-0.044463030993938446,2023-10-20T12:18:29.550632Z,1697804309550
6.286764144897461,8.856520652770996,-0.06018278747797012,2023-10-20T12:18:29.570677Z,1697804309570
5.964176177978516,8.279458999633789,-0.13987433910369873,2023-10-20T12:18:29.592596Z,1697804309592
5.5368170738220215,7.640885829925537,-0.2554904818534851,2023-10-20T12:18:29.611145Z,1697804309611
5.013973236083984,6.919267654418945,-0.38030803203582764,2023-10-20T12:18:29.631232Z,1697804309631
4.449010372161865,6.141490936279297,-0.5025511980056763,2023-10-20T12:18:29.651756Z,1697804309651
3.89115571975708,5.350550651550293,-0.6128066778182983,2023-10-20T12:18:29.672213Z,1697804309672
3.3648929595947266,4.583550453186035,-0.703970193862915,2023-10-20T12:18:29.692809Z,1697804309692
2.8719797134399414,3.863152027130127,-0.7679862976074219,2023-10-20T12:18:29.712944Z,1697804309712
2.4234023094177246,3.2122182846069336,-0.8011891841888428,2023-10-20T12:18:29.732771Z,1697804309732
2.0295228958129883,2.646970748901367,-0.8047902584075928,2023-10-20T12:18:29.752887Z,1697804309752
1.6905159950256348,2.1660585403442383,-0.7804996967315674,2023-10-20T12:18:29.776142Z,1697804309776
1.4059629440307617,1.7629776000976562,-0.7336559295654297,2023-10-20T12:18:29.793734Z,1697804309793
1.1728324890136719,1.4319047927856445,-0.6734330654144287,2023-10-20T12:18:29.813888Z,1697804309813
0.9892168045043945,1.1708297729492188,-0.6114020347595215,2023-10-20T12:18:29.834401Z,1697804309834
0.8500728607177734,0.9745855331420898,-0.5570089817047119,2023-10-20T12:18:29.854374Z,1697804309854
0.7489280700683594,0.8342781066894531,-0.5152158737182617,2023-10-20T12:18:29.876031Z,1697804309875
0.6810383796691895,0.7406964302062988,-0.4882960319519043,2023-10-20T12:18:29.894874Z,1697804309894
0.6427083015441895,0.6860604286193848,-0.47714710235595703,2023-10-20T12:18:29.914967Z,1697804309914
0.6298093795776367,0.663149356842041,-0.48117828369140625,2023-10-20T12:18:29.935318Z,1697804309935
0.6362824440002441,0.6642003059387207,-0.49762725830078125,2023-10-20T12:18:29.958688Z,1697804309958
0.6540083885192871,0.6805410385131836,-0.521634578704834,2023-10-20T12:18:29.976247Z,1697804309976
0.6763482093811035,0.7055721282958984,-0.5489106178283691,2023-10-20T12:18:29.996383Z,1697804309996
0.6979470252990723,0.7340207099914551,-0.5754337310791016,2023-10-20T12:18:30.016280Z,1697804310016
0.7130861282348633,0.759343147277832,-0.5958900451660156,2023-10-20T12:18:30.037089Z,1697804310037
0.7147870063781738,0.7726750373840332,-0.6031413078308105,2023-10-20T12:18:30.058750Z,1697804310058
0.6959414482116699,0.7640047073364258,-0.5897049903869629,2023-10-20T12:18:30.077454Z,1697804310077
0.6530666351318359,0.7270636558532715,-0.5520510673522949,2023-10-20T12:18:30.097530Z,1697804310097
0.58660888671875,0.6605658531188965,-0.49146032333374023,2023-10-20T12:18:30.117587Z,1697804310117
0.49971485137939453,0.5673589706420898,-0.4124469757080078,2023-10-20T12:18:30.137827Z,1697804310137
0.39657020568847656,0.45230960845947266,-0.32059526443481445,2023-10-20T12:18:30.158563Z,1697804310158
0.28166818618774414,0.3214073181152344,-0.2216353416442871,2023-10-20T12:18:30.179014Z,1697804310178
0.15813112258911133,0.17971324920654297,-0.12020015716552734,2023-10-20T12:18:30.198671Z,1697804310198
0.029961109161376953,0.03374624252319336,-0.02181720733642578,2023-10-20T12:18:30.219136Z,1697804310219
-0.09700727462768555,-0.10776901245117188,0.06711196899414062,2023-10-20T12:18:30.241794Z,1697804310241
-0.2145853042602539,-0.23419809341430664,0.1401379108428955,2023-10-20T12:18:30.259406Z,1697804310259
-0.3129291534423828,-0.33469057083129883,0.19221782684326172,2023-10-20T12:18:30.279959Z,1697804310279
-0.3863692283630371,-0.40468740463256836,0.22293686866760254,2023-10-20T12:18:30.300611Z,1697804310300
-0.43520498275756836,-0.4467616081237793,0.23566055297851562,2023-10-20T12:18:30.320616Z,1697804310320
-0.46361303329467773,-0.46692705154418945,0.23499441146850586,2023-10-20T12:18:30.342463Z,1697804310342
-0.47551488876342773,-0.47002077102661133,0.22452044486999512,2023-10-20T12:18:30.361458Z,1697804310361
-0.47264719009399414,-0.4580192565917969,0.20648550987243652,2023-10-20T12:18:30.381374Z,1697804310381
-0.4560966491699219,-0.4325528144836426,0.18316340446472168,2023-10-20T12:18:30.401631Z,1697804310401
-0.4296255111694336,-0.3982810974121094,0.15778756141662598,2023-10-20T12:18:30.421727Z,1697804310421
-0.39745378494262695,-0.3600587844848633,0.1329796314239502,2023-10-20T12:18:30.442179Z,1697804310442
-0.3604416847229004,-0.3189420700073242,0.10937190055847168,2023-10-20T12:18:30.462208Z,1697804310462
-0.31656312942504883,-0.2732830047607422,0.08658218383789062,2023-10-20T12:18:30.482992Z,1697804310482
-0.26272106170654297,-0.22095918655395508,0.0642474889755249,2023-10-20T12:18:30.502800Z,1697804310502
-0.19736003875732422,-0.16162824630737305,0.04282200336456299,2023-10-20T12:18:30.525157Z,1697804310525
-0.12212276458740234,-0.0975484848022461,0.023365259170532227,2023-10-20T12:18:30.543322Z,1697804310543
-0.04187917709350586,-0.03275156021118164,0.007031917572021484,2023-10-20T12:18:30.563160Z,1697804310563
0.03721904754638672,0.028645038604736328,-0.005460381507873535,2023-10-20T12:18:30.583810Z,1697804310583
0.11144018173217773,0.08485221862792969,-0.014192581176757812,2023-10-20T12:18:30.604283Z,1697804310604
0.18167781829833984,0.13742542266845703,-0.019868910312652588,2023-10-20T12:18:30.625032Z,1697804310624
0.24906015396118164,0.18774795532226562,-0.0230138897895813,2023-10-20T12:18:30.644441Z,1697804310644
0.3113851547241211,0.23458528518676758,-0.023736000061035156,2023-10-20T12:18:30.664533Z,1697804310664
0.3633103370666504,0.2743496894836426,-0.022069811820983887,2023-10-20T12:18:30.684989Z,1697804310684
0.40087413787841797,0.30429553985595703,-0.018508076667785645,2023-10-20T12:18:30.708721Z,1697804310708
0.42424917221069336,0.3244452476501465,-0.013772457838058472,2023-10-20T12:18:30.725668Z,1697804310725
0.43670034408569336,0.33684349060058594,-0.008586108684539795,2023-10-20T12:18:30.745565Z,1697804310745
0.4441227912902832,0.34555625915527344,-0.003398694097995758,2023-10-20T12:18:30.766305Z,1697804310766
0.4499373435974121,0.35308027267456055,0.0016833283007144928,2023-10-20T12:18:30.786780Z,1697804310786
0.45502376556396484,0.3603053092956543,0.006665259599685669,2023-10-20T12:18:30.808937Z,1697804310808
0.4583578109741211,0.36679649353027344,0.0114583820104599,2023-10-20T12:18:30.826791Z,1697804310826
0.45819997787475586,0.3715171813964844,0.015877991914749146,2023-10-20T12:18:30.846849Z,1697804310846
0.4528675079345703,0.3732466697692871,0.019661933183670044,2023-10-20T12:18:30.867365Z,1697804310867
0.44045495986938477,0.37039899826049805,0.022594213485717773,2023-10-20T12:18:30.888008Z,1697804310887
0.4196462631225586,0.36150407791137695,0.024572283029556274,2023-10-20T12:18:30.908750Z,1697804310908
0.39060306549072266,0.3459157943725586,0.025447845458984375,2023-10-20T12:18:30.928481Z,1697804310928
0.3536214828491211,0.3229985237121582,0.025074481964111328,2023-10-20T12:18:30.948980Z,1697804310948
0.3072686195373535,0.2904624938964844,0.02323472499847412,2023-10-20T12:18:30.968660Z,1697804310968
0.25182485580444336,0.2472672462463379,0.01990640163421631,2023-10-20T12:18:30.991634Z,1697804310991
0.18916702270507812,0.19355154037475586,0.015362381935119629,2023-10-20T12:18:31.009370Z,1697804311009
0.12259387969970703,0.13097429275512695,0.010085821151733398,2023-10-20T12:18:31.029577Z,1697804311029
0.05582475662231445,0.06231689453125,0.004590511322021484,2023-10-20T12:18:31.050019Z,1697804311049
-0.006635189056396484,-0.007737159729003906,-5.370974540710449E-4,2023-10-20T12:18:31.069990Z,1697804311069
-0.05999279022216797,-0.07300949096679688,-0.00467449426651001,2023-10-20T12:18:31.091133Z,1697804311091
-0.10074043273925781,-0.12786340713500977,-0.00734516978263855,2023-10-20T12:18:31.110287Z,1697804311110
-0.12851810455322266,-0.1700758934020996,-0.008494824171066284,2023-10-20T12:18:31.131026Z,1697804311130
-0.1447768211364746,-0.1997532844543457,-0.008411437273025513,2023-10-20T12:18:31.151016Z,1697804311150
-0.15067481994628906,-0.2166309356689453,-0.007406860589981079,2023-10-20T12:18:31.171301Z,1697804311171
-0.14638376235961914,-0.2189936637878418,-0.005743563175201416,2023-10-20T12:18:31.191490Z,1697804311191
-0.13070964813232422,-0.20305919647216797,-0.0036661475896835327,2023-10-20T12:18:31.212253Z,1697804311212
-0.1030569076538086,-0.16596031188964844,-0.0016231834888458252,2023-10-20T12:18:31.232342Z,1697804311232
-0.0640263557434082,-0.10676288604736328,-2.063792198896408E-4,2023-10-20T12:18:31.252411Z,1697804311252
-0.01680469512939453,-0.029000282287597656,1.3890117406845093E-4,2023-10-20T12:18:31.274798Z,1697804311274
0.034435272216796875,0.06142997741699219,-6.016716361045837E-4,2023-10-20T12:18:31.293100Z,1697804311293
0.08581161499023438,0.15797710418701172,-0.0020326897501945496,2023-10-20T12:18:31.313643Z,1697804311313
0.13550138473510742,0.25679492950439453,-0.0036006271839141846,2023-10-20T12:18:31.333854Z,1697804311333
0.18399763107299805,0.3578786849975586,-0.00479435920715332,2023-10-20T12:18:31.353845Z,1697804311353
0.2324814796447754,0.462646484375,-0.0050885602831840515,2023-10-20T12:18:31.374622Z,1697804311374
0.2820549011230469,0.5724124908447266,-0.0039002597332000732,2023-10-20T12:18:31.394431Z,1697804311394
0.3326539993286133,0.6862468719482422,-5.836775526404381E-4,2023-10-20T12:18:31.414513Z,1697804311414
0.384066104888916,0.8025541305541992,0.005490563809871674,2023-10-20T12:18:31.434921Z,1697804311434
0.43659257888793945,0.9203500747680664,0.014763474464416504,2023-10-20T12:18:31.457497Z,1697804311457
0.4912567138671875,1.0402050018310547,0.02741643786430359,2023-10-20T12:18:31.475370Z,1697804311475
0.5485138893127441,1.162276268005371,0.04353219270706177,2023-10-20T12:18:31.495498Z,1697804311495
0.6084604263305664,1.2864713668823242,0.06296217441558838,2023-10-20T12:18:31.516045Z,1697804311516
0.6709342002868652,1.412057876586914,0.08558714389801025,2023-10-20T12:18:31.536447Z,1697804311536
0.7351474761962891,1.5364360809326172,0.1111147403717041,2023-10-20T12:18:31.558418Z,1697804311558
0.7998170852661133,1.65576171875,0.13908666372299194,2023-10-20T12:18:31.576962Z,1697804311576
0.8619799613952637,1.7635841369628906,0.16882169246673584,2023-10-20T12:18:31.597480Z,1697804311597
0.9183273315429688,1.8533287048339844,0.19946491718292236,2023-10-20T12:18:31.617333Z,1697804311617
0.9664220809936523,1.9208545684814453,0.22987544536590576,2023-10-20T12:18:31.637288Z,1697804311637
1.0050544738769531,1.964848518371582,0.25884413719177246,2023-10-20T12:18:31.657563Z,1697804311657
1.0337495803833008,1.985539436340332,0.2854890823364258,2023-10-20T12:18:31.678359Z,1697804311678
1.0522089004516602,1.983027458190918,0.309161901473999,2023-10-20T12:18:31.698866Z,1697804311698
1.0586886405944824,1.954432487487793,0.32932567596435547,2023-10-20T12:18:31.719038Z,1697804311718
1.0502476692199707,1.8953447341918945,0.3447275161743164,2023-10-20T12:18:31.741061Z,1697804311741
1.023841381072998,1.801919937133789,0.35354185104370117,2023-10-20T12:18:31.758870Z,1697804311758
0.9772224426269531,1.6727638244628906,0.3536989688873291,2023-10-20T12:18:31.778764Z,1697804311778
0.9098248481750488,1.5103511810302734,0.3435688018798828,2023-10-20T12:18:31.800343Z,1697804311800
0.8227357864379883,1.3197822570800781,0.3222465515136719,2023-10-20T12:18:31.819938Z,1697804311819
0.7162408828735352,1.105423927307129,0.2892587184906006,2023-10-20T12:18:31.841126Z,1697804311841
0.589080810546875,0.8700981140136719,0.24392437934875488,2023-10-20T12:18:31.860452Z,1697804311860
0.4386463165283203,0.6162347793579102,0.18525314331054688,2023-10-20T12:18:31.880728Z,1697804311880
0.26190757751464844,0.34757518768310547,0.11225032806396484,2023-10-20T12:18:31.901008Z,1697804311900
0.05809450149536133,0.07226991653442383,0.025131702423095703,2023-10-20T12:18:31.924439Z,1697804311924
-0.1718907356262207,-0.19873619079589844,-0.07464218139648438,2023-10-20T12:18:31.941472Z,1697804311941
-0.426846981048584,-0.45433807373046875,-0.18518972396850586,2023-10-20T12:18:31.961623Z,1697804311961
-0.7055845260620117,-0.6839570999145508,-0.3047330379486084,2023-10-20T12:18:31.982275Z,1697804311982
-1.0063142776489258,-0.8768763542175293,-0.4314396381378174,2023-10-20T12:18:32.002308Z,1697804312002
-1.3262348175048828,-1.0226068496704102,-0.5634222030639648,2023-10-20T12:18:32.024467Z,1697804312024
-1.660085678100586,-1.1107516288757324,-0.6979067325592041,2023-10-20T12:18:32.042587Z,1697804312042
-2.000148296356201,-1.1322283744812012,-0.8314507007598877,2023-10-20T12:18:32.063069Z,1697804312063
-2.335752010345459,-1.0794408321380615,-0.9595823287963867,2023-10-20T12:18:32.083595Z,1697804312083
-2.6513915061950684,-0.947119951248169,-1.0759713649749756,2023-10-20T12:18:32.103624Z,1697804312103
-2.9296836853027344,-0.7366281747817993,-1.1737618446350098,2023-10-20T12:18:32.124302Z,1697804312124
-3.1535115242004395,-0.45686596632003784,-1.2454602718353271,2023-10-20T12:18:32.143735Z,1697804312143
-3.3081164360046387,-0.12510207295417786,-1.2840280532836914,2023-10-20T12:18:32.164214Z,1697804312164
-3.384376049041748,0.2348516583442688,-1.2845063209533691,2023-10-20T12:18:32.184694Z,1697804312184
-3.381844997406006,0.5972549915313721,-1.2464368343353271,2023-10-20T12:18:32.207284Z,1697804312207
-3.307605266571045,0.9399986267089844,-1.1729933023452759,2023-10-20T12:18:32.225154Z,1697804312225
-3.1704702377319336,1.2473397254943848,-1.0682203769683838,2023-10-20T12:18:32.245598Z,1697804312245
-2.9789161682128906,1.5075831413269043,-0.9366942644119263,2023-10-20T12:18:32.265782Z,1697804312265
-2.7403435707092285,1.7106740474700928,-0.7831447124481201,2023-10-20T12:18:32.286078Z,1697804312286
-2.4605231285095215,1.8476312160491943,-0.613145112991333,2023-10-20T12:18:32.307251Z,1697804312307
-2.1437973976135254,1.9082045555114746,-0.4342085123062134,2023-10-20T12:18:32.326324Z,1697804312326
-1.7952113151550293,1.8800287246704102,-0.2565816044807434,2023-10-20T12:18:32.346372Z,1697804312346
-1.4216418266296387,1.7479758262634277,-0.09427464008331299,2023-10-20T12:18:32.367086Z,1697804312367
-1.0339055061340332,1.4953312873840332,0.03394755721092224,2023-10-20T12:18:32.390116Z,1697804312390
-0.6463122367858887,1.1042976379394531,0.1049574613571167,2023-10-20T12:18:32.407210Z,1697804312407
-0.27706480026245117,0.5628290176391602,0.09240233898162842,2023-10-20T12:18:32.428351Z,1697804312428
0.05357837677001953,-0.1307239532470703,-0.030225276947021484,2023-10-20T12:18:32.447950Z,1697804312447
0.3249518871307373,-0.9683284759521484,-0.28746581077575684,2023-10-20T12:18:32.468452Z,1697804312468
0.5199661254882812,-1.9331865310668945,-0.6985225677490234,2023-10-20T12:18:32.490325Z,1697804312490
0.6372684240341187,-2.990941047668457,-1.270986795425415,2023-10-20T12:18:32.509012Z,1697804312508
0.700431227684021,-4.079392433166504,-1.9941258430480957,2023-10-20T12:18:32.528948Z,1697804312528
0.7541885375976562,-5.13807487487793,-2.8390674591064453,2023-10-20T12:18:32.549448Z,1697804312549
0.8398017883300781,-6.083172798156738,-3.7379045486450195,2023-10-20T12:18:32.569815Z,1697804312569
0.9855902194976807,-6.862909317016602,-4.622319221496582,2023-10-20T12:18:32.590207Z,1697804312590
1.1878807544708252,-7.46339225769043,-5.458992004394531,2023-10-20T12:18:32.610142Z,1697804312609
1.4087963104248047,-7.903505325317383,-6.225654125213623,2023-10-20T12:18:32.630298Z,1697804312630
1.6234564781188965,-8.235368728637695,-6.935733795166016,2023-10-20T12:18:32.651166Z,1697804312651
1.8357441425323486,-8.418684959411621,-7.554091930389404,2023-10-20T12:18:32.673948Z,1697804312673
2.061293125152588,-8.426912307739258,-8.057024955749512,2023-10-20T12:18:32.690909Z,1697804312690
2.287639856338501,-8.243534088134766,-8.435866355895996,2023-10-20T12:18:32.710846Z,1697804312710
2.468320846557617,-7.91569185256958,-8.665140151977539,2023-10-20T12:18:32.732039Z,1697804312731
2.5896174907684326,-7.496677398681641,-8.76200008392334,2023-10-20T12:18:32.752593Z,1697804312752
2.673178195953369,-7.0344109535217285,-8.79168701171875,2023-10-20T12:18:32.773819Z,1697804312773
2.7363076210021973,-6.5397629737854,-8.799010276794434,2023-10-20T12:18:32.792339Z,1697804312792
2.8018908500671387,-5.994734764099121,-8.77804946899414,2023-10-20T12:18:32.813086Z,1697804312813
2.922532558441162,-5.367646217346191,-8.721323013305664,2023-10-20T12:18:32.833347Z,1697804312833
3.122443675994873,-4.612932205200195,-8.583610534667969,2023-10-20T12:18:32.856746Z,1697804312856
3.399782657623291,-3.7766222953796387,-8.383005142211914,2023-10-20T12:18:32.873928Z,1697804312873
3.741950035095215,-2.898155450820923,-8.139396667480469,2023-10-20T12:18:32.893974Z,1697804312893
4.147128582000732,-2.009164333343506,-7.8677263259887695,2023-10-20T12:18:32.913955Z,1697804312913
4.643733024597168,-1.094634771347046,-7.621496200561523,2023-10-20T12:18:32.934903Z,1697804312934
5.236236572265625,-0.11604706943035126,-7.4121856689453125,2023-10-20T12:18:32.957083Z,1697804312957
5.9173736572265625,0.9533860683441162,-7.220093250274658,2023-10-20T12:18:32.974944Z,1697804312974
6.684724807739258,2.128134250640869,-7.01985502243042,2023-10-20T12:18:32.994998Z,1697804312994
7.508449554443359,3.401793956756592,-6.773293495178223,2023-10-20T12:18:33.015276Z,1697804313015
8.30530834197998,4.7286376953125,-6.43342399597168,2023-10-20T12:18:33.035643Z,1697804313035
8.99067497253418,6.0482282638549805,-5.986762523651123,2023-10-20T12:18:33.056740Z,1697804313056
9.510478973388672,7.29067325592041,-5.468348026275635,2023-10-20T12:18:33.076409Z,1697804313076
9.835736274719238,8.402308464050293,-4.92451810836792,2023-10-20T12:18:33.096921Z,1697804313096
9.983695983886719,9.35260009765625,-4.380692481994629,2023-10-20T12:18:33.116945Z,1697804313116
10.031373977661133,10.158882141113281,-3.869717836380005,2023-10-20T12:18:33.139966Z,1697804313139
10.036408424377441,10.860400199890137,-3.3918941020965576,2023-10-20T12:18:33.157540Z,1697804313157
