GYR_X,GYR_Y,GYR_Z,DATE,UNIX_TIMESTAMP
5.321126081980765E-4,0.0023945067077875137,-0.0018623941577970982,2023-10-20T12:15:37.691133Z,1697804137691
-0.0013302814913913608,1.3302815204951912E-4,-0.0026605629827827215,2023-10-20T12:15:37.701180Z,1697804137701
-0.0017293660202994943,1.3302815204951912E-4,0.003325703786686063,2023-10-20T12:15:37.712931Z,1697804137712
0.0017293660202994943,5.321126081980765E-4,0.004655985161662102,2023-10-20T12:15:37.721011Z,1697804137720
0.0011972533538937569,0.004123872611671686,-0.0031926757656037807,2023-10-20T12:15:37.732186Z,1697804137732
0.0035917600616812706,0.0037247883155941963,0.004655985161662102,2023-10-20T12:15:37.741666Z,1697804137741
9.311970788985491E-4,-0.003325703786686063,-0.0014633096288889647,2023-10-20T12:15:37.752686Z,1697804137752
0.004522957373410463,0.0018623941577970982,0.0026605629827827215,2023-10-20T12:15:37.762083Z,1697804137762
0.0015963378828018904,-6.651407456956804E-4,-0.0034587320405989885,2023-10-20T12:15:37.772185Z,1697804137772
-0.0031926757656037807,0.0027935912366956472,-0.0026605629827827215,2023-10-20T12:15:37.781787Z,1697804137781
-0.0025275349617004395,0.0014633096288889647,-0.0026605629827827215,2023-10-20T12:15:37.795054Z,1697804137794
-0.0026605629827827215,-0.002128450432792306,6.651407456956804E-4,2023-10-20T12:15:37.802466Z,1697804137802
-0.0038578163366764784,0.0018623941577970982,0.0014633096288889647,2023-10-20T12:15:37.813849Z,1697804137813
1.3302815204951912E-4,-0.0025275349617004395,0.0023945067077875137,2023-10-20T12:15:37.822488Z,1697804137822
-0.0019954221788793802,0.0035917600616812706,0.0039908443577587605,2023-10-20T12:15:37.834446Z,1697804137834
-9.311970788985491E-4,-0.0034587320405989885,0.002128450432792306,2023-10-20T12:15:37.842203Z,1697804137842
0.002128450432792306,-0.0018623941577970982,9.311970788985491E-4,2023-10-20T12:15:37.854008Z,1697804137853
-0.004655985161662102,-0.001064225216396153,0.003325703786686063,2023-10-20T12:15:37.862877Z,1697804137862
-5.321126081980765E-4,-0.0031926757656037807,-0.004522957373410463,2023-10-20T12:15:37.874082Z,1697804137874
-0.003325703786686063,-0.0031926757656037807,0.0034587320405989885,2023-10-20T12:15:37.882830Z,1697804137882
0.0039908443577587605,0.003059647511690855,0.004522957373410463,2023-10-20T12:15:37.895483Z,1697804137895
0.0014633096288889647,-0.0017293660202994943,0.0027935912366956472,2023-10-20T12:15:37.903394Z,1697804137903
0.08992703258991241,-0.07329851388931274,-0.34268051385879517,2023-10-20T12:15:37.914198Z,1697804137914
0.10602343827486038,-0.08633527159690857,-0.42449283599853516,2023-10-20T12:15:37.923572Z,1697804137923
0.12744097411632538,-0.10509224236011505,-0.5212042927742004,2023-10-20T12:15:37.934164Z,1697804137934
0.15497779846191406,-0.13103273510932922,-0.6369388103485107,2023-10-20T12:15:37.944892Z,1697804137944
0.18796877562999725,-0.1657530814409256,-0.778214693069458,2023-10-20T12:15:37.954677Z,1697804137954
0.22614786028862,-0.20978540182113647,-0.9500870704650879,2023-10-20T12:15:37.966085Z,1697804137966
0.270712286233902,-0.2628636360168457,-1.156280755996704,2023-10-20T12:15:37.975089Z,1697804137975
0.32418960332870483,-0.3260520100593567,-1.4071718454360962,2023-10-20T12:15:37.984506Z,1697804137984
0.38884130120277405,-0.4033413529396057,-1.7167283296585083,2023-10-20T12:15:38.000644Z,1697804138000
0.46998846530914307,-0.5023143291473389,-2.0805602073669434,2023-10-20T12:15:38.004586Z,1697804138004
0.5752137303352356,-0.6316176652908325,-2.4698007106781006,2023-10-20T12:15:38.018120Z,1697804138018
0.7095721364021301,-0.7977698445320129,-2.8334996700286865,2023-10-20T12:15:38.025038Z,1697804138025
0.8697380423545837,-0.9983763098716736,-3.1167166233062744,2023-10-20T12:15:38.036114Z,1697804138036
1.0406792163848877,-1.2205332517623901,-3.2852632999420166,2023-10-20T12:15:38.050197Z,1697804138050
1.204170823097229,-1.4465481042861938,-3.3320891857147217,2023-10-20T12:15:38.056252Z,1697804138056
1.3474421501159668,-1.6608564853668213,-3.2816715240478516,2023-10-20T12:15:38.066886Z,1697804138066
1.4661033153533936,-1.8538802862167358,-3.1712582111358643,2023-10-20T12:15:38.083559Z,1697804138083
1.560420274734497,-2.021495819091797,-3.0416886806488037,2023-10-20T12:15:38.086055Z,1697804138086
1.630526065826416,-2.167693853378296,-2.9315414428710938,2023-10-20T12:15:38.096879Z,1697804138096
1.6806776523590088,-2.3012540340423584,-2.8531877994537354,2023-10-20T12:15:38.106389Z,1697804138106
1.7203201055526733,-2.431222438812256,-2.789334297180176,2023-10-20T12:15:38.117545Z,1697804138117
1.7581000328063965,-2.564117670059204,-2.703132152557373,2023-10-20T12:15:38.133591Z,1697804138133
1.794549822807312,-2.701136589050293,-2.559727668762207,2023-10-20T12:15:38.137128Z,1697804138137
1.8200911283493042,-2.83935284614563,-2.3411624431610107,2023-10-20T12:15:38.146404Z,1697804138146
1.822751760482788,-2.9729130268096924,-2.048633575439453,2023-10-20T12:15:38.157235Z,1697804138157
1.7934855222702026,-3.096496343612671,-1.6971731185913086,2023-10-20T12:15:38.166483Z,1697804138166
1.7288339138031006,-3.2059783935546875,-1.3058043718338013,2023-10-20T12:15:38.179799Z,1697804138179
1.6313241720199585,-3.298699140548706,-0.8899583220481873,2023-10-20T12:15:38.187634Z,1697804138187
1.5070759057998657,-3.375190258026123,-0.4633370637893677,2023-10-20T12:15:38.198293Z,1697804138198
1.3654009103775024,-3.435318946838379,-0.03964238986372948,2023-10-20T12:15:38.208046Z,1697804138208
1.2153451442718506,-3.4756264686584473,0.3654283285140991,2023-10-20T12:15:38.219085Z,1697804138219
1.0626288652420044,-3.49385142326355,0.7339163422584534,2023-10-20T12:15:38.233174Z,1697804138233
0.9111098051071167,-3.490126609802246,1.053183913230896,2023-10-20T12:15:38.238883Z,1697804138238
0.762783408164978,-3.465383291244507,1.3211026191711426,2023-10-20T12:15:38.249908Z,1697804138249
0.6171175837516785,-3.420153856277466,1.5395348072052002,2023-10-20T12:15:38.258715Z,1697804138258
0.4697223901748657,-3.3563003540039062,1.7095447778701782,2023-10-20T12:15:38.268501Z,1697804138268
0.31634095311164856,-3.2748870849609375,1.8321967124938965,2023-10-20T12:15:38.279774Z,1697804138279
0.15790441632270813,-3.177377462387085,1.9121466875076294,2023-10-20T12:15:38.288746Z,1697804138288
-0.0029266192577779293,-3.06882643699646,1.9561790227890015,2023-10-20T12:15:38.300889Z,1697804138300
-0.16508793830871582,-2.955486536026001,1.9678854942321777,2023-10-20T12:15:38.308500Z,1697804138308
-0.32751530408859253,-2.84134840965271,1.9468669891357422,2023-10-20T12:15:38.319771Z,1697804138319
-0.49087387323379517,-2.728806495666504,1.8913942575454712,2023-10-20T12:15:38.332928Z,1697804138332
-0.6567599773406982,-2.6207876205444336,1.8017332553863525,2023-10-20T12:15:38.340384Z,1697804138340
-0.8253066539764404,-2.5218145847320557,1.6821409463882446,2023-10-20T12:15:38.349017Z,1697804138348
-0.993188202381134,-2.435213327407837,1.5395348072052002,2023-10-20T12:15:38.373368Z,1697804138373
-1.156945824623108,-2.3629791736602783,1.379634976387024,2023-10-20T12:15:38.373964Z,1697804138373
-1.3173778057098389,-2.3063089847564697,1.2043038606643677,2023-10-20T12:15:38.380367Z,1697804138380
-1.4750161170959473,-2.265336513519287,1.0162020921707153,2023-10-20T12:15:38.389823Z,1697804138389
-1.6248058080673218,-2.238863706588745,0.8217148780822754,2023-10-20T12:15:38.400379Z,1697804138400
-1.7570358514785767,-2.22489595413208,0.630021333694458,2023-10-20T12:15:38.413123Z,1697804138413
-1.861862063407898,-2.220505952835083,0.4488369822502136,2023-10-20T12:15:38.421293Z,1697804138421
-1.931967854499817,-2.221304178237915,0.2837490439414978,2023-10-20T12:15:38.430506Z,1697804138430
-1.963362455368042,-2.2226343154907227,0.13901442289352417,2023-10-20T12:15:38.441283Z,1697804138441
-1.9585734605789185,-2.2223682403564453,0.014899153262376785,2023-10-20T12:15:38.450408Z,1697804138450
-1.9227888584136963,-2.2206389904022217,-0.0911242812871933,2023-10-20T12:15:38.463125Z,1697804138463
-1.8593344688415527,-2.217313289642334,-0.18131737411022186,2023-10-20T12:15:38.471174Z,1697804138471
-1.7712697982788086,-2.21159291267395,-0.2575424909591675,2023-10-20T12:15:38.482096Z,1697804138482
-1.66098952293396,-2.201748847961426,-0.32086390256881714,2023-10-20T12:15:38.491105Z,1697804138491
-1.5332825183868408,-2.1875150203704834,-0.37301093339920044,2023-10-20T12:15:38.502046Z,1697804138502
-1.3965295553207397,-2.170088291168213,-0.4170432686805725,2023-10-20T12:15:38.512877Z,1697804138512
-1.2597765922546387,-2.1502671241760254,-0.45588746666908264,2023-10-20T12:15:38.522417Z,1697804138522
-1.1295419931411743,-2.127519130706787,-0.49140599370002747,2023-10-20T12:15:38.531650Z,1697804138531
-1.0106148719787598,-2.100647449493408,-0.5238648653030396,2023-10-20T12:15:38.542731Z,1697804138542
-0.9085822701454163,-2.0693860054016113,-0.552731990814209,2023-10-20T12:15:38.551725Z,1697804138551
-0.8271690607070923,-2.0337343215942383,-0.5765439867973328,2023-10-20T12:15:38.563076Z,1697804138563
-0.7643797397613525,-1.99236261844635,-0.5927734375,2023-10-20T12:15:38.572634Z,1697804138572
-0.715957522392273,-1.9446054697036743,-0.5995578765869141,2023-10-20T12:15:38.583679Z,1697804138583
-0.677778422832489,-1.8916603326797485,-0.596365213394165,2023-10-20T12:15:38.596024Z,1697804138595
-0.6451865434646606,-1.834591269493103,-0.5845257043838501,2023-10-20T12:15:38.603256Z,1697804138603
-0.6143240332603455,-1.774728536605835,-0.5659017562866211,2023-10-20T12:15:38.613083Z,1697804138613
-0.5829293727874756,-1.713668704032898,-0.5420897006988525,2023-10-20T12:15:38.623872Z,1697804138623
-0.5503374934196472,-1.6524757146835327,-0.5137547254562378,2023-10-20T12:15:38.633189Z,1697804138633
-0.5172134637832642,-1.5915488004684448,-0.4807637333869934,2023-10-20T12:15:38.646510Z,1697804138646
-0.4846215546131134,-1.531020998954773,-0.4439149498939514,2023-10-20T12:15:38.653440Z,1697804138653
-0.45375901460647583,-1.471557378768921,-0.4045386016368866,2023-10-20T12:15:38.663805Z,1697804138663
-0.42502495646476746,-1.4130250215530396,-0.363432914018631,2023-10-20T12:15:38.673530Z,1697804138673
-0.3990844488143921,-1.3544926643371582,-0.3190014958381653,2023-10-20T12:15:38.684547Z,1697804138684
-0.37460726499557495,-1.2951620817184448,-0.27097833156585693,2023-10-20T12:15:38.696204Z,1697804138696
-0.3469374179840088,-1.2345012426376343,-0.22149187326431274,2023-10-20T12:15:38.704906Z,1697804138704
-0.30756109952926636,-1.1721110343933105,-0.17493201792240143,2023-10-20T12:15:38.714608Z,1697804138714
-0.25102412700653076,-1.1091886758804321,-0.1355556845664978,2023-10-20T12:15:38.725154Z,1697804138725
-0.17799167335033417,-1.047729730606079,-0.10615646839141846,2023-10-20T12:15:38.734993Z,1697804138734
-0.09272062033414841,-0.9902615547180176,-0.08846372365951538,2023-10-20T12:15:38.746478Z,1697804138746
-0.0013302814913913608,-0.937715470790863,-0.08261048048734665,2023-10-20T12:15:38.754830Z,1697804138754
0.08753252774477005,-0.8904904723167419,-0.0862022414803505,2023-10-20T12:15:38.765565Z,1697804138765
0.16216132044792175,-0.8497838377952576,-0.09471604228019714,2023-10-20T12:15:38.774974Z,1697804138774
0.21151475608348846,-0.8178570866584778,-0.10322984308004379,2023-10-20T12:15:38.786519Z,1697804138786
0.2359919399023056,-0.7952423095703125,-0.1081518903374672,2023-10-20T12:15:38.796063Z,1697804138796
0.24676722288131714,-0.7794119715690613,-0.10841794312000275,2023-10-20T12:15:38.806089Z,1697804138806
0.2607351839542389,-0.7665082216262817,-0.10562435537576675,2023-10-20T12:15:38.815616Z,1697804138815
0.29053348302841187,-0.7529393434524536,-0.10256470739841461,2023-10-20T12:15:38.829908Z,1697804138829
0.3386896848678589,-0.7363108396530151,-0.10123442113399506,2023-10-20T12:15:38.835868Z,1697804138835
0.3990844488143921,-0.7152923941612244,-0.10083533823490143,2023-10-20T12:15:38.846699Z,1697804138846
0.4589471220970154,-0.6898840069770813,-0.09910597652196884,2023-10-20T12:15:38.855877Z,1697804138855
0.5053739547729492,-0.6606178283691406,-0.09418392926454544,2023-10-20T12:15:38.866876Z,1697804138866
0.5286538600921631,-0.6282919645309448,-0.08606921136379242,2023-10-20T12:15:38.879153Z,1697804138879
0.5242639183998108,-0.5934385657310486,-0.07542695850133896,2023-10-20T12:15:38.887191Z,1697804138887
0.496594101190567,-0.5567228198051453,-0.06239020451903343,2023-10-20T12:15:38.896604Z,1697804138896
0.45588746666908264,-0.5196079611778259,-0.04642682522535324,2023-10-20T12:15:38.907348Z,1697804138907
0.4143826961517334,-0.48329126834869385,-0.026605630293488503,2023-10-20T12:15:38.917134Z,1697804138917
0.38218986988067627,-0.44803881645202637,-0.0026605629827827215,2023-10-20T12:15:38.930234Z,1697804138930
0.36635953187942505,-0.41185516119003296,0.025541406124830246,2023-10-20T12:15:38.937379Z,1697804138937
0.3682219386100769,-0.37301093339920044,0.05720210447907448,2023-10-20T12:15:38.948268Z,1697804138948
0.37966233491897583,-0.33283644914627075,0.09045914560556412,2023-10-20T12:15:38.957745Z,1697804138957
0.38830918073654175,-0.2937261462211609,0.12158773094415665,2023-10-20T12:15:38.968241Z,1697804138968
0.3785981237888336,-0.25834065675735474,0.1453997641801834,2023-10-20T12:15:38.979296Z,1697804138979
0.3402860164642334,-0.2244184911251068,0.14340434968471527,2023-10-20T12:15:38.988735Z,1697804138988
0.26033610105514526,-0.20340004563331604,0.14234012365341187,2023-10-20T12:15:38.997909Z,1697804138997
0.14021167159080505,-0.1959504634141922,0.1399456113576889,2023-10-20T12:15:39.012879Z,1697804139012
-0.006784435827285051,-0.19302384555339813,0.11214273422956467,2023-10-20T12:15:39.018214Z,1697804139018
-0.17426687479019165,-0.19954222440719604,0.08088111877441406,2023-10-20T12:15:39.029871Z,1697804139029
-0.34879982471466064,-0.21337716281414032,0.053211260586977005,2023-10-20T12:15:39.038676Z,1697804139038
-0.5169473886489868,-0.23067080974578857,0.036582741886377335,2023-10-20T12:15:39.049255Z,1697804139049
-0.6684664487838745,-0.24783144891262054,0.03738091140985489,2023-10-20T12:15:39.058239Z,1697804139058
-0.7973707318305969,-0.26100122928619385,0.059197526425123215,2023-10-20T12:15:39.069556Z,1697804139069
-0.903261125087738,-0.2667214572429657,0.10003717243671417,2023-10-20T12:15:39.078772Z,1697804139078
-0.9942523837089539,-0.26632237434387207,0.15444567799568176,2023-10-20T12:15:39.089586Z,1697804139089
-1.0839133262634277,-0.26472601294517517,0.2140422910451889,2023-10-20T12:15:39.098817Z,1697804139098
-1.1820881366729736,-0.2655241787433624,0.2701801657676697,2023-10-20T12:15:39.112756Z,1697804139112
-1.2887767553329468,-0.2693819999694824,0.315010666847229,2023-10-20T12:15:39.119744Z,1697804139119
-1.3975937366485596,-0.27470314502716064,0.3440108001232147,2023-10-20T12:15:39.130261Z,1697804139130
-1.4996263980865479,-0.2805563807487488,0.3574466407299042,2023-10-20T12:15:39.139782Z,1697804139139
-1.5871589183807373,-0.28627657890319824,0.359575092792511,2023-10-20T12:15:39.151036Z,1697804139151
-1.6518105268478394,-0.2914646863937378,0.35491910576820374,2023-10-20T12:15:39.162712Z,1697804139162
-1.6836042404174805,-0.2958545982837677,0.3468043804168701,2023-10-20T12:15:39.170986Z,1697804139170
-1.6704344749450684,-0.2979830503463745,0.33496490120887756,2023-10-20T12:15:39.180078Z,1697804139180
-1.6037874221801758,-0.2954555153846741,0.3178042471408844,2023-10-20T12:15:39.191534Z,1697804139191
-1.4871217012405396,-0.2874738276004791,0.2923958897590637,2023-10-20T12:15:39.200346Z,1697804139200
-1.334538459777832,-0.2761664390563965,0.25647827982902527,2023-10-20T12:15:39.212784Z,1697804139212
-1.1598724126815796,-0.2502259612083435,0.21829919517040253,2023-10-20T12:15:39.221072Z,1697804139221
-0.9890643358230591,-0.23998278379440308,0.15444567799568176,2023-10-20T12:15:39.231593Z,1697804139231
-0.8323571681976318,-0.2437075674533844,0.06664710491895676,2023-10-20T12:15:39.241034Z,1697804139240
-0.6868243217468262,-0.23253321647644043,-0.019023025408387184,2023-10-20T12:15:39.251711Z,1697804139251
-0.5627090930938721,-0.2222900390625,-0.10961519926786423,2023-10-20T12:15:39.262558Z,1697804139262
-0.4622728228569031,-0.21337716281414032,-0.19967526197433472,2023-10-20T12:15:39.271981Z,1697804139271
-0.3864467740058899,-0.20592758059501648,-0.2833499610424042,2023-10-20T12:15:39.281399Z,1697804139281
-0.33616214990615845,-0.2003403902053833,-0.3551851511001587,2023-10-20T12:15:39.292174Z,1697804139292
-0.311152845621109,-0.19714772701263428,-0.4110569953918457,2023-10-20T12:15:39.301726Z,1697804139301
-0.30929043889045715,-0.19581744074821472,-0.44803881645202637,2023-10-20T12:15:39.312934Z,1697804139312
-0.32698318362236023,-0.1959504634141922,-0.4658645987510681,2023-10-20T12:15:39.322389Z,1697804139322
-0.3601072132587433,-0.19661560654640198,-0.4658645987510681,2023-10-20T12:15:39.333160Z,1697804139333
-0.40427255630493164,-0.19714772701263428,-0.45149755477905273,2023-10-20T12:15:39.345718Z,1697804139345
-0.4556214213371277,-0.19741377234458923,-0.42622220516204834,2023-10-20T12:15:39.352871Z,1697804139352
-0.5106950998306274,-0.1975468099117279,-0.3933642506599426,2023-10-20T12:15:39.362416Z,1697804139362
-0.5678972005844116,-0.19887708127498627,-0.35598334670066833,2023-10-20T12:15:39.373240Z,1697804139373
-0.6243011355400085,-0.20100553333759308,-0.31687304377555847,2023-10-20T12:15:39.382751Z,1697804139382
-0.674984872341156,-0.20273490250110626,-0.27896004915237427,2023-10-20T12:15:39.396021Z,1697804139395
-0.7154253721237183,-0.2024688422679901,-0.24450574815273285,2023-10-20T12:15:39.403199Z,1697804139403
-0.7425631284713745,-0.19967526197433472,-0.21484047174453735,2023-10-20T12:15:39.414183Z,1697804139414
-0.7555999159812927,-0.19448715448379517,-0.19009722769260406,2023-10-20T12:15:39.423419Z,1697804139423
-0.7541366219520569,-0.1877027153968811,-0.17080815136432648,2023-10-20T12:15:39.434543Z,1697804139434
-0.7387053370475769,-0.18012011051177979,-0.15670716762542725,2023-10-20T12:15:39.445734Z,1697804139445
-0.7101042866706848,-0.1722714602947235,-0.1476612538099289,2023-10-20T12:15:39.454270Z,1697804139454
-0.6697967648506165,-0.1646888554096222,-0.14287222921848297,2023-10-20T12:15:39.463774Z,1697804139463
-0.6181818246841431,-0.1564411073923111,-0.14194104075431824,2023-10-20T12:15:39.474314Z,1697804139474
-0.5561907291412354,-0.1460649073123932,-0.14433553814888,2023-10-20T12:15:39.483916Z,1697804139483
-0.4847545921802521,-0.12996850907802582,-0.1355556845664978,2023-10-20T12:15:39.498788Z,1697804139498
-0.4191717207431793,-0.1179959699511528,-0.1459318846464157,2023-10-20T12:15:39.504477Z,1697804139504
-0.36702466011047363,-0.11174365133047104,-0.17373476922512054,2023-10-20T12:15:39.515823Z,1697804139515
-0.32791438698768616,-0.10549132525920868,-0.18810181319713593,2023-10-20T12:15:39.524761Z,1697804139524
-0.3107537627220154,-0.10442709922790527,-0.20273490250110626,2023-10-20T12:15:39.535508Z,1697804139535
-0.3146115839481354,-0.10735371708869934,-0.21603772044181824,2023-10-20T12:15:39.545754Z,1697804139545
-0.33350157737731934,-0.11041336506605148,-0.2266799658536911,2023-10-20T12:15:39.556013Z,1697804139555
-0.36250171065330505,-0.11161062121391296,-0.2337304651737213,2023-10-20T12:15:39.565501Z,1697804139565
-0.4017450213432312,-0.11227575689554214,-0.23639102280139923,2023-10-20T12:15:39.579537Z,1697804139579
-0.45229572057724,-0.11480329185724258,-0.2338634878396988,2023-10-20T12:15:39.585613Z,1697804139585
-0.511360228061676,-0.11985836178064346,-0.2256157398223877,2023-10-20T12:15:39.596655Z,1697804139596
-0.5738834738731384,-0.12664279341697693,-0.21178081631660461,2023-10-20T12:15:39.605615Z,1697804139605
-0.634145200252533,-0.13356027007102966,-0.19289082288742065,2023-10-20T12:15:39.616904Z,1697804139616
-0.6882876753807068,-0.13954652845859528,-0.1701430082321167,2023-10-20T12:15:39.629014Z,1697804139628
-0.7328521013259888,-0.1438034325838089,-0.1453997641801834,2023-10-20T12:15:39.637254Z,1697804139637
-0.7651779055595398,-0.14646399021148682,-0.12052350491285324,2023-10-20T12:15:39.646548Z,1697804139646
-0.7828706502914429,-0.14806033670902252,-0.09724357724189758,2023-10-20T12:15:39.657624Z,1697804139657
-0.7834028005599976,-0.14779427647590637,-0.07742238789796829,2023-10-20T12:15:39.666219Z,1697804139666
-0.7638476490974426,-0.14460159838199615,-0.06239020451903343,2023-10-20T12:15:39.679290Z,1697804139679
-0.7199483513832092,-0.1367529332637787,-0.0526791475713253,2023-10-20T12:15:39.687120Z,1697804139687
-0.6407966017723083,-0.12198681384325027,-0.04549562931060791,2023-10-20T12:15:39.697720Z,1697804139697
-0.5471447706222534,-0.1042940691113472,-0.03884422034025192,2023-10-20T12:15:39.707527Z,1697804139707
-0.42608916759490967,-0.08793161064386368,-0.04177083820104599,2023-10-20T12:15:39.718543Z,1697804139718
-0.26698750257492065,-0.06797738373279572,-0.05174795165657997,2023-10-20T12:15:39.729049Z,1697804139729
-0.09591329842805862,-0.04203689470887184,-0.06292231380939484,2023-10-20T12:15:39.738489Z,1697804139738
0.08846372365951538,-0.01144042145460844,-0.08141323179006577,2023-10-20T12:15:39.747656Z,1697804139747
0.27629947662353516,0.02261478640139103,-0.10855097323656082,2023-10-20T12:15:39.758663Z,1697804139758
0.4534929692745209,0.056669991463422775,-0.1438034325838089,2023-10-20T12:15:39.767751Z,1697804139767
0.60820472240448,0.08806463330984116,-0.1861063838005066,2023-10-20T12:15:39.778797Z,1697804139778
0.7349805235862732,0.11573449522256851,-0.2326662391424179,2023-10-20T12:15:39.788674Z,1697804139788
0.8331553339958191,0.13967956602573395,-0.28029030561447144,2023-10-20T12:15:39.798870Z,1697804139798
0.9052565693855286,0.15989984571933746,-0.32512080669403076,2023-10-20T12:15:39.812192Z,1697804139812
0.9562063813209534,0.1778586357831955,-0.3638319969177246,2023-10-20T12:15:39.819389Z,1697804139819
0.9917248487472534,0.19475321471691132,-0.3945614993572235,2023-10-20T12:15:39.828824Z,1697804139828
1.0160690546035767,0.2107165902853012,-0.41571298241615295,2023-10-20T12:15:39.839465Z,1697804139839
1.0322984457015991,0.22481757402420044,-0.42622220516204834,2023-10-20T12:15:39.848858Z,1697804139848
1.044137954711914,0.23692314326763153,-0.4258231222629547,2023-10-20T12:15:39.862662Z,1697804139862
1.0557113885879517,0.24849659204483032,-0.4153138995170593,2023-10-20T12:15:39.869966Z,1697804139869
1.068748116493225,0.25980398058891296,-0.39602482318878174,2023-10-20T12:15:39.879827Z,1697804139879
1.0833812952041626,0.2701801657676697,-0.3695521950721741,2023-10-20T12:15:39.890019Z,1697804139889
1.100009799003601,0.2786939740180969,-0.33682727813720703,2023-10-20T12:15:39.900731Z,1697804139900
1.1203631162643433,0.2860105335712433,-0.2995794117450714,2023-10-20T12:15:39.912035Z,1697804139911
1.1460375785827637,0.2930610179901123,-0.2590058147907257,2023-10-20T12:15:39.920928Z,1697804139920
1.1776982545852661,0.3009096682071686,-0.2173680067062378,2023-10-20T12:15:39.929610Z,1697804139929
1.2148131132125854,0.3099555969238281,-0.17719349265098572,2023-10-20T12:15:39.940767Z,1697804139940
1.2553867101669312,0.3197996914386749,-0.1416749805212021,2023-10-20T12:15:39.950124Z,1697804139950
1.296891450881958,0.33004283905029297,-0.11333998292684555,2023-10-20T12:15:39.962591Z,1697804139962
1.3360017538070679,0.3402860164642334,-0.09458301961421967,2023-10-20T12:15:39.970858Z,1697804139970
1.366997241973877,0.348666787147522,-0.08686738461256027,2023-10-20T12:15:39.981371Z,1697804139981
1.3826946020126343,0.3527906537055969,-0.09006005525588989,2023-10-20T12:15:39.990777Z,1697804139990
1.3771073818206787,0.35106128454208374,-0.1015004813671112,2023-10-20T12:15:40.001753Z,1697804140001
1.3467769622802734,0.3429465889930725,-0.11706477403640747,2023-10-20T12:15:40.011697Z,1697804140011
1.2914372682571411,0.32951071858406067,-0.1316978633403778,2023-10-20T12:15:40.021744Z,1697804140021
1.2136157751083374,0.3118179738521576,-0.14114287495613098,2023-10-20T12:15:40.030776Z,1697804140030
1.117835521697998,0.2907995283603668,-0.14207406342029572,2023-10-20T12:15:40.045805Z,1697804140045
1.0107479095458984,0.2677856683731079,-0.13262906670570374,2023-10-20T12:15:40.051484Z,1697804140051
0.8853023648262024,0.23732222616672516,-0.11613357812166214,2023-10-20T12:15:40.062823Z,1697804140062
0.7776826024055481,0.21444137394428253,-0.08912885934114456,2023-10-20T12:15:40.071958Z,1697804140071
0.685893177986145,0.1948862373828888,-0.06598196178674698,2023-10-20T12:15:40.083008Z,1697804140082
0.5982276201248169,0.17439991235733032,-0.03618365898728371,2023-10-20T12:15:40.096276Z,1697804140096
0.523199737071991,0.1569732129573822,-0.010775280185043812,2023-10-20T12:15:40.103107Z,1697804140103
0.46573156118392944,0.13928046822547913,0.0055871824733912945,2023-10-20T12:15:40.111940Z,1697804140111
0.4166441857814789,0.12424829602241516,0.01942211017012596,2023-10-20T12:15:40.122882Z,1697804140122
0.3848504424095154,0.1048261821269989,0.01476612500846386,2023-10-20T12:15:40.132952Z,1697804140132
0.3792632520198822,0.08713343739509583,0.0015963378828018904,2023-10-20T12:15:40.145673Z,1697804140145
0.37088248133659363,0.07223428785800934,-0.020885419100522995,2023-10-20T12:15:40.152713Z,1697804140152
0.37008431553840637,0.05986266955733299,-0.04735802114009857,2023-10-20T12:15:40.163353Z,1697804140163
0.3732770085334778,0.05028464272618294,-0.07436273992061615,2023-10-20T12:15:40.173642Z,1697804140173
0.37686875462532043,0.043500207364559174,-0.09883991628885269,2023-10-20T12:15:40.184433Z,1697804140184
0.3770017921924591,0.03857816383242607,-0.11812900006771088,2023-10-20T12:15:40.195324Z,1697804140195
0.3716806471347809,0.0345873199403286,-0.12970244884490967,2023-10-20T12:15:40.204354Z,1697804140204
0.36077234148979187,0.03166069835424423,-0.13249604403972626,2023-10-20T12:15:40.214043Z,1697804140213
0.3457401692867279,0.02979830652475357,-0.12664279341697693,2023-10-20T12:15:40.228542Z,1697804140228
0.3127491772174835,0.02700471505522728,-0.11280786991119385,2023-10-20T12:15:40.234071Z,1697804140234
0.29292798042297363,0.025807460770010948,-0.09338576346635818,2023-10-20T12:15:40.245286Z,1697804140245
0.2760334014892578,0.024876264855265617,-0.07689027488231659,2023-10-20T12:15:40.254139Z,1697804140254
0.2519553303718567,0.023679010570049286,-0.04988555610179901,2023-10-20T12:15:40.265477Z,1697804140265
0.24064792692661285,0.026605630293488503,-0.015963377431035042,2023-10-20T12:15:40.278292Z,1697804140278
0.22481757402420044,0.03205978497862816,0.00971105508506298,2023-10-20T12:15:40.285904Z,1697804140285
0.21045053005218506,0.03738091140985489,0.0345873199403286,2023-10-20T12:15:40.295341Z,1697804140295
0.18796877562999725,0.03644971549510956,0.0433671772480011,2023-10-20T12:15:40.305478Z,1697804140305
0.166817307472229,0.033390067517757416,0.06850949674844742,2023-10-20T12:15:40.314691Z,1697804140314
0.14885850250720978,0.0307295024394989,0.09006005525588989,2023-10-20T12:15:40.329030Z,1697804140328
0.1273079365491867,0.02447718009352684,0.10562435537576675,2023-10-20T12:15:40.335350Z,1697804140335
0.10908308625221252,0.019289081916213036,0.11906019598245621,2023-10-20T12:15:40.346219Z,1697804140346
0.08567012846469879,0.010642251931130886,0.12438131868839264,2023-10-20T12:15:40.355622Z,1697804140355
0.06558287888765335,0.003325703786686063,0.1289042830467224,2023-10-20T12:15:40.366621Z,1697804140366
0.03884422034025192,-0.005853238515555859,0.1262437105178833,2023-10-20T12:15:40.378228Z,1697804140378
0.015963377431035042,-0.013701899908483028,0.12411526590585709,2023-10-20T12:15:40.386755Z,1697804140386
-0.019555138424038887,-0.02447718009352684,0.12039047479629517,2023-10-20T12:15:40.395667Z,1697804140395
-0.07329851388931274,-0.041637811809778214,0.12557858228683472,2023-10-20T12:15:40.406954Z,1697804140406
-0.11333998292684555,-0.052280064672231674,0.12544554471969604,2023-10-20T12:15:40.416646Z,1697804140416
-0.15484477579593658,-0.06212414801120758,0.12850520014762878,2023-10-20T12:15:40.428959Z,1697804140428
-0.19674864411354065,-0.07063794881105423,0.13435843586921692,2023-10-20T12:15:40.436672Z,1697804140436
-0.23798736929893494,-0.07715632766485214,0.14247314631938934,2023-10-20T12:15:40.447704Z,1697804140447
-0.2782948911190033,-0.0818123146891594,0.15231724083423615,2023-10-20T12:15:40.456658Z,1697804140456
-0.3183363676071167,-0.08567012846469879,0.16349159181118011,2023-10-20T12:15:40.467601Z,1697804140467
-0.35864388942718506,-0.08966097235679626,0.1750650554895401,2023-10-20T12:15:40.478109Z,1697804140478
-0.39921748638153076,-0.09378484636545181,0.18677152693271637,2023-10-20T12:15:40.488500Z,1697804140488
-0.43779563903808594,-0.09777569025754929,0.1986110359430313,2023-10-20T12:15:40.497550Z,1697804140497
-0.4707866311073303,-0.10083533823490143,0.2101844847202301,2023-10-20T12:15:40.508145Z,1697804140508
-0.4956628978252411,-0.10243167728185654,0.22056066989898682,2023-10-20T12:15:40.517960Z,1697804140517
-0.5116262435913086,-0.10256470739841461,0.22920750081539154,2023-10-20T12:15:40.528680Z,1697804140528
-0.5196079611778259,-0.10216562449932098,0.23572587966918945,2023-10-20T12:15:40.538640Z,1697804140538
-0.5198740363121033,-0.10110139846801758,0.24024884402751923,2023-10-20T12:15:40.549100Z,1697804140549
-0.5133556127548218,-0.09910597652196884,0.2431754618883133,2023-10-20T12:15:40.561752Z,1697804140561
-0.5028464198112488,-0.0965784415602684,0.24503785371780396,2023-10-20T12:15:40.569378Z,1697804140569
-0.4924702048301697,-0.09458301961421967,0.24663420021533966,2023-10-20T12:15:40.578332Z,1697804140578
-0.48595184087753296,-0.09431695938110352,0.2486296147108078,2023-10-20T12:15:40.589950Z,1697804140589
-0.48315826058387756,-0.095514215528965,0.251822292804718,2023-10-20T12:15:40.598331Z,1697804140598
-0.4812958538532257,-0.09644541144371033,0.25554707646369934,2023-10-20T12:15:40.612042Z,1697804140612
-0.47677290439605713,-0.09511512517929077,0.2586067318916321,2023-10-20T12:15:40.619262Z,1697804140619
-0.4674609303474426,-0.09139034152030945,0.25927186012268066,2023-10-20T12:15:40.630217Z,1697804140630
-0.4545572102069855,-0.08700041472911835,0.2568773627281189,2023-10-20T12:15:40.639382Z,1697804140639
-0.44098833203315735,-0.08433984965085983,0.2519553303718567,2023-10-20T12:15:40.650347Z,1697804140650
-0.4291488230228424,-0.08447287976741791,0.24463877081871033,2023-10-20T12:15:40.661515Z,1697804140661
-0.4194377660751343,-0.08660132437944412,0.2343956083059311,2023-10-20T12:15:40.670021Z,1697804140670
-0.41025882959365845,-0.08846372365951538,0.2206937074661255,2023-10-20T12:15:40.679378Z,1697804140679
-0.4024101495742798,-0.08979400247335434,0.20433124899864197,2023-10-20T12:15:40.690421Z,1697804140690
-0.3990844488143921,-0.09125731140375137,0.18743667006492615,2023-10-20T12:15:40.699974Z,1697804140699
-0.40147897601127625,-0.09311970323324203,0.1722714602947235,2023-10-20T12:15:40.711530Z,1697804140711
-0.4060019254684448,-0.09365181624889374,0.16016589105129242,2023-10-20T12:15:40.720151Z,1697804140720
-0.4099927544593811,-0.0921885073184967,0.15178512036800385,2023-10-20T12:15:40.731366Z,1697804140731
-0.41398361325263977,-0.09099125862121582,0.14792729914188385,2023-10-20T12:15:40.744541Z,1697804140744
-0.4183735251426697,-0.091656394302845,0.14859244227409363,2023-10-20T12:15:40.751253Z,1697804140751
-0.4194377660751343,-0.09272062033414841,0.15191814303398132,2023-10-20T12:15:40.761134Z,1697804140761
-0.4122542440891266,-0.09178942441940308,0.1552438586950302,2023-10-20T12:15:40.771978Z,1697804140771
-0.3957587480545044,-0.08819766342639923,0.1564411073923111,2023-10-20T12:15:40.780935Z,1697804140780
-0.37301093339920044,-0.08327562361955643,0.15431265532970428,2023-10-20T12:15:40.795059Z,1697804140795
-0.34773558378219604,-0.07822055369615555,0.14912456274032593,2023-10-20T12:15:40.801857Z,1697804140801
-0.31035467982292175,-0.0702388659119606,0.13528962433338165,2023-10-20T12:15:40.812533Z,1697804140812
-0.28787291049957275,-0.06624802201986313,0.12983547151088715,2023-10-20T12:15:40.821910Z,1697804140821
-0.2684507966041565,-0.06265626102685928,0.12531252205371857,2023-10-20T12:15:40.832922Z,1697804140832
-0.24543693661689758,-0.058532387018203735,0.12331710010766983,2023-10-20T12:15:40.845393Z,1697804140845
-0.22588180005550385,-0.05494062602519989,0.12158773094415665,2023-10-20T12:15:40.852768Z,1697804140852
-0.19289082288742065,-0.046958938241004944,0.10389498621225357,2023-10-20T12:15:40.862391Z,1697804140862
-0.159101665019989,-0.03964238986372948,0.11333998292684555,2023-10-20T12:15:40.873423Z,1697804140873
-0.13023455440998077,-0.033390067517757416,0.12145470082759857,2023-10-20T12:15:40.881994Z,1697804140881
-0.08221139758825302,-0.022215701639652252,0.11227575689554214,2023-10-20T12:15:40.894892Z,1697804140894
-0.02354598231613636,-0.008912886492908001,0.10668858140707016,2023-10-20T12:15:40.903228Z,1697804140903
0.015963377431035042,1.3302815204951912E-4,0.095514215528965,2023-10-20T12:15:40.914098Z,1697804140914
0.050683725625276566,0.009045914746820927,0.08646830171346664,2023-10-20T12:15:40.922974Z,1697804140922
0.08034900575876236,0.019023025408387184,0.08061505854129791,2023-10-20T12:15:40.934592Z,1697804140934
0.10456012934446335,0.03046344593167305,0.07835358381271362,2023-10-20T12:15:40.944643Z,1697804140944
0.12278498709201813,0.042569007724523544,0.07928477972745895,2023-10-20T12:15:40.954571Z,1697804140954
0.13542266190052032,0.05374337360262871,0.08261048048734665,2023-10-20T12:15:40.963740Z,1697804140963
0.1459318846464157,0.06332139670848846,0.08713343739509583,2023-10-20T12:15:40.974515Z,1697804140974
0.16003286838531494,0.07263337075710297,0.09125731140375137,2023-10-20T12:15:40.983600Z,1697804140983
0.18557427823543549,0.08407378941774368,0.09285365045070648,2023-10-20T12:15:40.995351Z,1697804140995
0.22987264394760132,0.09977111220359802,0.08952794969081879,2023-10-20T12:15:41.004072Z,1697804141004
0.29771700501441956,0.12092258781194687,0.07941780984401703,2023-10-20T12:15:41.015084Z,1697804141015
0.3875110149383545,0.14633096754550934,0.0614590048789978,2023-10-20T12:15:41.028094Z,1697804141028
0.49380049109458923,0.17360173165798187,0.03525245934724808,2023-10-20T12:15:41.035390Z,1697804141035
0.6094019412994385,0.20060645043849945,0.0017293660202994943,2023-10-20T12:15:41.044767Z,1697804141044
0.7297924160957336,0.22707904875278473,-0.036848798394203186,2023-10-20T12:15:41.055225Z,1697804141055
0.8529765009880066,0.25448286533355713,-0.07742238789796829,2023-10-20T12:15:41.064878Z,1697804141064
0.9764266610145569,0.2826848328113556,-0.11666569113731384,2023-10-20T12:15:41.078721Z,1697804141078
1.0952208042144775,0.3104877173900604,-0.15125301480293274,2023-10-20T12:15:41.085350Z,1697804141085
1.2029736042022705,0.3358960747718811,-0.1783907562494278,2023-10-20T12:15:41.095872Z,1697804141095
1.2959603071212769,0.3585108816623688,-0.1959504634141922,2023-10-20T12:15:41.105188Z,1697804141105
1.3729835748672485,0.37899720668792725,-0.2031339854001999,2023-10-20T12:15:41.116141Z,1697804141116
1.4312498569488525,0.39642390608787537,-0.20020736753940582,2023-10-20T12:15:41.128080Z,1697804141128
1.4679656028747559,0.4099927544593811,-0.18850089609622955,2023-10-20T12:15:41.136681Z,1697804141136
1.481534481048584,0.41957080364227295,-0.16894575953483582,2023-10-20T12:15:41.146052Z,1697804141146
1.4724886417388916,0.4263552129268646,-0.14207406342029572,2023-10-20T12:15:41.156953Z,1697804141156
1.4438875913619995,0.4318093955516815,-0.10775279998779297,2023-10-20T12:15:41.166425Z,1697804141166
1.3987910747528076,0.4364653527736664,-0.06611499190330505,2023-10-20T12:15:41.178264Z,1697804141178
1.34092378616333,0.4405892491340637,-0.017692744731903076,2023-10-20T12:15:41.186622Z,1697804141186
1.2748087644577026,0.44497916102409363,0.03631668537855148,2023-10-20T12:15:41.197601Z,1697804141197
1.2065653800964355,0.4517636001110077,0.09431695938110352,2023-10-20T12:15:41.206363Z,1697804141206
1.1405833959579468,0.46187373995780945,0.15404659509658813,2023-10-20T12:15:41.217530Z,1697804141217
1.0772619247436523,0.4737132489681244,0.2135101854801178,2023-10-20T12:15:41.227702Z,1697804141227
1.013275384902954,0.4842224717140198,0.2711113691329956,2023-10-20T12:15:41.237955Z,1697804141237
0.9466283321380615,0.4911399483680725,0.326185017824173,2023-10-20T12:15:41.247464Z,1697804141247
0.878650963306427,0.4944656491279602,0.37779995799064636,2023-10-20T12:15:41.261577Z,1697804141261
0.8141322731971741,0.4960619807243347,0.4252910017967224,2023-10-20T12:15:41.267039Z,1697804141266
0.7590586543083191,0.4988555610179901,0.4681260585784912,2023-10-20T12:15:41.277815Z,1697804141277
0.7164896130561829,0.5037776231765747,0.5071033239364624,2023-10-20T12:15:41.287718Z,1697804141287
0.6866913437843323,0.5106950998306274,0.5439521074295044,2023-10-20T12:15:41.298540Z,1697804141298
0.6692646145820618,0.5182777047157288,0.5802688002586365,2023-10-20T12:15:41.311243Z,1697804141311
0.6656728982925415,0.5271905660629272,0.6165854930877686,2023-10-20T12:15:41.319083Z,1697804141319
0.6789757013320923,0.5386309623718262,0.6521040201187134,2023-10-20T12:15:41.327618Z,1697804141327
0.708640992641449,0.5524659156799316,0.6864252686500549,2023-10-20T12:15:41.338886Z,1697804141338
0.7516090869903564,0.5666999220848083,0.7190171480178833,2023-10-20T12:15:41.348712Z,1697804141348
0.8058845400810242,0.5800027251243591,0.7496136426925659,2023-10-20T12:15:41.361832Z,1697804141361
0.8710683584213257,0.5917091965675354,0.7775495648384094,2023-10-20T12:15:41.369017Z,1697804141368
0.9458301663398743,0.6015533208847046,0.8016276359558105,2023-10-20T12:15:41.379792Z,1697804141379
1.0300369262695312,0.6094019412994385,0.8201185464859009,2023-10-20T12:15:41.389420Z,1697804141389
1.1251521110534668,0.6167185306549072,0.8318250179290771,2023-10-20T12:15:41.399730Z,1697804141399
1.225588321685791,0.622305691242218,0.8362149596214294,2023-10-20T12:15:41.411451Z,1697804141411
1.3132538795471191,0.6221726536750793,0.8350176811218262,2023-10-20T12:15:41.420637Z,1697804141420
1.3691257238388062,0.6128606796264648,0.8308938145637512,2023-10-20T12:15:41.429526Z,1697804141429
1.386818528175354,0.595966100692749,0.8262378573417664,2023-10-20T12:15:41.440159Z,1697804141440
1.3736486434936523,0.5761449337005615,0.8246415257453918,2023-10-20T12:15:41.449862Z,1697804141449
1.3406577110290527,0.5579200983047485,0.8311598896980286,2023-10-20T12:15:41.461748Z,1697804141461
1.302744746208191,0.5452824234962463,0.8497838377952576,2023-10-20T12:15:41.470138Z,1697804141470
1.278666615486145,0.5416906476020813,0.8817105889320374,2023-10-20T12:15:41.480656Z,1697804141480
1.281061053276062,0.5476769208908081,0.9253438115119934,2023-10-20T12:15:41.490158Z,1697804141490
1.311923623085022,0.5596494078636169,0.9769587516784668,2023-10-20T12:15:41.502008Z,1697804141501
1.3644697666168213,0.5721541047096252,1.0307021141052246,2023-10-20T12:15:41.510978Z,1697804141510
1.4287223815917969,0.5802688002586365,1.0791243314743042,2023-10-20T12:15:41.521692Z,1697804141521
1.4920437335968018,0.5798696875572205,1.1161061525344849,2023-10-20T12:15:41.531140Z,1697804141531
1.5443238019943237,0.5685623288154602,1.137656807899475,2023-10-20T12:15:41.544497Z,1697804141544
1.5859615802764893,0.5468787550926208,1.1441751718521118,2023-10-20T12:15:41.551358Z,1697804141551
1.6238746643066406,0.5162822604179382,1.1385879516601562,2023-10-20T12:15:41.562284Z,1697804141562
1.6629849672317505,0.47836923599243164,1.1252851486206055,2023-10-20T12:15:41.571373Z,1697804141571
1.7048888206481934,0.4347360134124756,1.1087896823883057,2023-10-20T12:15:41.582959Z,1697804141582
1.7553064823150635,0.38671284914016724,1.0929592847824097,2023-10-20T12:15:41.593915Z,1697804141593
1.818361759185791,0.3360291123390198,1.0812528133392334,2023-10-20T12:15:41.602520Z,1697804141602
1.8927245140075684,0.28401511907577515,1.0757986307144165,2023-10-20T12:15:41.611265Z,1697804141611
1.9732065200805664,0.23279926180839539,1.077794075012207,2023-10-20T12:15:41.622065Z,1697804141622
2.0508949756622314,0.1849091351032257,1.0867069959640503,2023-10-20T12:15:41.632315Z,1697804141632
2.1188724040985107,0.1432713270187378,1.102404236793518,2023-10-20T12:15:41.644313Z,1697804141644
2.171285390853882,0.11081244796514511,1.124619960784912,2023-10-20T12:15:41.652287Z,1697804141652
2.202147960662842,0.08926188945770264,1.1517577171325684,2023-10-20T12:15:41.663688Z,1697804141663
2.2072031497955322,0.07915174961090088,1.1811569929122925,2023-10-20T12:15:41.672682Z,1697804141672
2.185253381729126,0.0790187194943428,1.2092258930206299,2023-10-20T12:15:41.683374Z,1697804141683
2.139225721359253,0.08527104556560516,1.2315746545791626,2023-10-20T12:15:41.693584Z,1697804141693
2.0704500675201416,0.09285365045070648,1.2439461946487427,2023-10-20T12:15:41.703597Z,1697804141703
1.978793740272522,0.09777569025754929,1.2431480884552002,2023-10-20T12:15:41.713440Z,1697804141713
1.8659858703613281,0.09684449434280396,1.2278498411178589,2023-10-20T12:15:41.728501Z,1697804141728
1.7366825342178345,0.08899583667516708,1.1985836029052734,2023-10-20T12:15:41.734030Z,1697804141733
1.5976680517196655,0.07449576258659363,1.156945824623108,2023-10-20T12:15:41.744509Z,1697804141744
1.456924319267273,0.056004852056503296,1.1063951253890991,2023-10-20T12:15:41.754138Z,1697804141754
1.3207035064697266,0.03738091140985489,1.0503902435302734,2023-10-20T12:15:41.765026Z,1697804141764
1.1921982765197754,0.02288084290921688,0.9926560521125793,2023-10-20T12:15:41.777668Z,1697804141777
1.0739362239837646,0.01569732278585434,0.9354539513587952,2023-10-20T12:15:41.784732Z,1697804141784
0.967380702495575,0.017692744731903076,0.8793160915374756,2023-10-20T12:15:41.794523Z,1697804141794
0.8706692457199097,0.029665278270840645,0.8238433599472046,2023-10-20T12:15:41.805857Z,1697804141805
0.7808752655982971,0.05148189514875412,0.7698339223861694,2023-10-20T12:15:41.814427Z,1697804141814
0.6979987025260925,0.08154625445604324,0.719150185585022,2023-10-20T12:15:41.828395Z,1697804141828
0.6260305047035217,0.11719780415296555,0.6747187972068787,2023-10-20T12:15:41.835324Z,1697804141835
0.571355938911438,0.15577596426010132,0.6389341950416565,2023-10-20T12:15:41.846244Z,1697804141846
0.5394291281700134,0.19555138051509857,0.6140579581260681,2023-10-20T12:15:41.855332Z,1697804141855
0.530915379524231,0.23532679677009583,0.6008881330490112,2023-10-20T12:15:41.866767Z,1697804141866
0.5430209040641785,0.2727077007293701,0.597296416759491,2023-10-20T12:15:41.877689Z,1697804141877
0.5710898637771606,0.30436840653419495,0.5990257859230042,2023-10-20T12:15:41.886419Z,1697804141886
0.6076725721359253,0.3272492587566376,0.5998239517211914,2023-10-20T12:15:41.895622Z,1697804141895
0.6426590085029602,0.34001997113227844,0.5942367315292358,2023-10-20T12:15:41.911113Z,1697804141911
0.6650077104568481,0.34268051385879517,0.5774751901626587,2023-10-20T12:15:41.916326Z,1697804141916
0.6684664487838745,0.3364281952381134,0.5462135672569275,2023-10-20T12:15:41.928247Z,1697804141928
0.6543654799461365,0.3249877691268921,0.5009840130805969,2023-10-20T12:15:41.936458Z,1697804141936
0.6308194994926453,0.3135473430156708,0.44591036438941956,2023-10-20T12:15:41.946922Z,1697804141946
0.6074065566062927,0.30822622776031494,0.3868458569049835,2023-10-20T12:15:41.955944Z,1697804141955
0.5885165333747864,0.3132812976837158,0.32897862792015076,2023-10-20T12:15:41.967295Z,1697804141967
0.574149489402771,0.3287125527858734,0.27363890409469604,2023-10-20T12:15:41.977665Z,1697804141977
0.5643054246902466,0.35052919387817383,0.21936342120170593,2023-10-20T12:15:41.987055Z,1697804141987
0.5584521889686584,0.37234580516815186,0.16176223754882812,2023-10-20T12:15:41.996979Z,1697804141996
0.5528650283813477,0.3887082636356354,0.09351879358291626,2023-10-20T12:15:42.011474Z,1697804142011
0.5380988717079163,0.3984193205833435,0.0037247883155941963,2023-10-20T12:15:42.017691Z,1697804142017
0.5063051581382751,0.40427255630493164,-0.11879414319992065,2023-10-20T12:15:42.028378Z,1697804142028
0.4572177529335022,0.4131854474544525,-0.2798912227153778,2023-10-20T12:15:42.037838Z,1697804142037
0.39642390608787537,0.43393781781196594,-0.4798325300216675,2023-10-20T12:15:42.048236Z,1697804142048
0.33017587661743164,0.4737132489681244,-0.7155584096908569,2023-10-20T12:15:42.060939Z,1697804142060
0.26046910881996155,0.5392961502075195,-0.9848074316978455,2023-10-20T12:15:42.068583Z,1697804142068
0.1882348358631134,0.637337863445282,-1.284120798110962,2023-10-20T12:15:42.078168Z,1697804142078
0.1136060431599617,0.7743569016456604,-1.6120351552963257,2023-10-20T12:15:42.089067Z,1697804142089
0.033124011009931564,0.948224663734436,-1.9767982959747314,2023-10-20T12:15:42.098268Z,1697804142098
-0.05933055654168129,1.1452393531799316,-2.3998279571533203,2023-10-20T12:15:42.111214Z,1697804142111
-0.1706751137971878,1.3494375944137573,-2.911454200744629,2023-10-20T12:15:42.118104Z,1697804142118
-0.30556565523147583,1.5520395040512085,-3.5376176834106445,2023-10-20T12:15:42.129728Z,1697804142129
-0.4638691544532776,1.7481229305267334,-4.282042980194092,2023-10-20T12:15:42.138764Z,1697804142138
-0.6384021043777466,1.923720121383667,-5.110409259796143,2023-10-20T12:15:42.149739Z,1697804142149
-0.8133341073989868,2.037858247756958,-5.588113784790039,2023-10-20T12:15:42.160762Z,1697804142160
-0.9723027348518372,2.1017117500305176,-6.172240257263184,2023-10-20T12:15:42.170107Z,1697804142170
-1.104665756225586,2.0849502086639404,-6.523700714111328,2023-10-20T12:15:42.179079Z,1697804142179
-1.2116204500198364,1.9749358892440796,-6.556026458740234,2023-10-20T12:15:42.190118Z,1697804142190
-1.2987538576126099,1.7702056169509888,-6.249662399291992,2023-10-20T12:15:42.199617Z,1697804142199
-1.3663321733474731,1.4847272634506226,-5.634008407592773,2023-10-20T12:15:42.210653Z,1697804142210
-1.413690209388733,1.1432439088821411,-5.098569869995117,2023-10-20T12:15:42.219847Z,1697804142219
-1.4220709800720215,0.7558659315109253,-4.230029106140137,2023-10-20T12:15:42.230875Z,1697804142230
-1.3921395540237427,0.34108418226242065,-3.42281436920166,2023-10-20T12:15:42.243462Z,1697804142243
-1.3230979442596436,-0.0905921682715416,-2.7144393920898438,2023-10-20T12:15:42.250698Z,1697804142250
-1.2157442569732666,-0.5250621438026428,-2.099583387374878,2023-10-20T12:15:42.260159Z,1697804142260
-1.0703445672988892,-0.9437016844749451,-1.5562963485717773,2023-10-20T12:15:42.271355Z,1697804142271
-0.8951464295387268,-1.319107174873352,-1.096418023109436,2023-10-20T12:15:42.280709Z,1697804142280
-0.7070446014404297,-1.630126953125,-0.7776826024055481,2023-10-20T12:15:42.294523Z,1697804142294
-0.5182777047157288,-1.8762290477752686,-0.648246169090271,2023-10-20T12:15:42.301132Z,1697804142301
-0.3283134698867798,-2.0729777812957764,-0.6925445795059204,2023-10-20T12:15:42.312315Z,1697804142312
-0.14087681472301483,-2.2254278659820557,-0.8432654738426208,2023-10-20T12:15:42.321217Z,1697804142321
0.029931334778666496,-2.3204100131988525,-1.0394819974899292,2023-10-20T12:15:42.332094Z,1697804142332
0.1761292666196823,-2.3439559936523438,-1.2412856817245483,2023-10-20T12:15:42.343719Z,1697804142343
0.3023729920387268,-2.2988595962524414,-1.4194103479385376,2023-10-20T12:15:42.352721Z,1697804142352
0.4165111482143402,-2.20121693611145,-1.5452550649642944,2023-10-20T12:15:42.361910Z,1697804142361
0.5164152979850769,-2.0697851181030273,-1.6109709739685059,2023-10-20T12:15:42.372438Z,1697804142372
0.5883834958076477,-1.9185320138931274,-1.6478197574615479,2023-10-20T12:15:42.382062Z,1697804142382
0.6171175837516785,-1.753710150718689,-1.6993016004562378,2023-10-20T12:15:42.394152Z,1697804142394
0.5946358442306519,-1.5794432163238525,-1.7885634899139404,2023-10-20T12:15:42.402618Z,1697804142402
0.5243969559669495,-1.399190068244934,-1.9004402160644531,2023-10-20T12:15:42.413037Z,1697804142413
0.41797444224357605,-1.212418556213379,-1.9966195821762085,2023-10-20T12:15:42.421710Z,1697804142421
0.28454720973968506,-1.0168671607971191,-2.0431792736053467,2023-10-20T12:15:42.434084Z,1697804142434
0.1339593529701233,-0.815462589263916,-2.024156332015991,2023-10-20T12:15:42.443847Z,1697804142443
-0.020885419100522995,-0.6189799904823303,-1.9485963582992554,2023-10-20T12:15:42.453690Z,1697804142453
-0.1641567349433899,-0.4439149498939514,-1.8444353342056274,2023-10-20T12:15:42.463422Z,1697804142463
-0.2832169234752655,-0.3047674894332886,-1.7377467155456543,2023-10-20T12:15:42.473451Z,1697804142473
-0.37247881293296814,-0.20566152036190033,-1.636911392211914,2023-10-20T12:15:42.482959Z,1697804142482
-0.43234148621559143,-0.14007864892482758,-1.5340806245803833,2023-10-20T12:15:42.494084Z,1697804142494
-0.4697223901748657,-0.09511512517929077,-1.4156856536865234,2023-10-20T12:15:42.503118Z,1697804142503
-0.4935344457626343,-0.060394782572984695,-1.2738776206970215,2023-10-20T12:15:42.514801Z,1697804142514
-0.5124244689941406,-0.030197391286492348,-1.1091886758804321,2023-10-20T12:15:42.527132Z,1697804142527
-0.5315805077552795,-5.321126081980765E-4,-0.9268071055412292,2023-10-20T12:15:42.535199Z,1697804142535
-0.552332878112793,0.030995558947324753,-0.737774133682251,2023-10-20T12:15:42.543633Z,1697804142543
-0.5737504363059998,0.06425260007381439,-0.5553925633430481,2023-10-20T12:15:42.554924Z,1697804142554
-0.5946358442306519,0.0971105545759201,-0.3917679190635681,2023-10-20T12:15:42.564195Z,1697804142564
-0.615521252155304,0.12544554471969604,-0.25341862440109253,2023-10-20T12:15:42.577366Z,1697804142577
-0.6370718479156494,0.1471291333436966,-0.14034469425678253,2023-10-20T12:15:42.585152Z,1697804142585
-0.6587554216384888,0.16269342601299286,-0.04988555610179901,2023-10-20T12:15:42.595599Z,1697804142595
-0.6812371611595154,0.17320264875888824,0.02008725143969059,2023-10-20T12:15:42.605058Z,1697804142605
-0.7061134576797485,0.17878983914852142,0.0707709789276123,2023-10-20T12:15:42.615940Z,1697804142615
-0.7337833046913147,0.1799870878458023,0.10442709922790527,2023-10-20T12:15:42.626458Z,1697804142626
-0.7629164457321167,0.17799167335033417,0.12424829602241516,2023-10-20T12:15:42.636428Z,1697804142636
-0.7915174961090088,0.1745329350233078,0.13302814960479736,2023-10-20T12:15:42.645614Z,1697804142645
-0.8205176591873169,0.16921180486679077,0.13143181800842285,2023-10-20T12:15:42.656155Z,1697804142656
-0.8528434634208679,0.16016589105129242,0.11666569113731384,2023-10-20T12:15:42.665973Z,1697804142665
-0.8904904723167419,0.14513371884822845,0.08407378941774368,2023-10-20T12:15:42.676622Z,1697804142676
-0.9330594539642334,0.12225287407636642,0.031926754862070084,2023-10-20T12:15:42.686211Z,1697804142686
-0.9770917892456055,0.09032611548900604,-0.03698182478547096,2023-10-20T12:15:42.696727Z,1697804142696
-1.0185965299606323,0.047890134155750275,-0.11600054800510406,2023-10-20T12:15:42.705637Z,1697804142705
-1.0530508756637573,-0.005321125965565443,-0.19728074967861176,2023-10-20T12:15:42.717289Z,1697804142717
-1.0755325555801392,-0.0686425268650055,-0.2716434895992279,2023-10-20T12:15:42.726706Z,1697804142726
-1.0812528133392334,-0.1399456113576889,-0.3283134698867798,2023-10-20T12:15:42.737525Z,1697804142737
-1.0660876035690308,-0.2157716602087021,-0.35877692699432373,2023-10-20T12:15:42.746809Z,1697804142746
-1.0289727449417114,-0.2921298146247864,-0.3585108816623688,2023-10-20T12:15:42.760158Z,1697804142760
-0.9746972918510437,-0.3667586147785187,-0.32844650745391846,2023-10-20T12:15:42.767221Z,1697804142767
-0.911375880241394,-0.43992409110069275,-0.2711113691329956,2023-10-20T12:15:42.779540Z,1697804142779
-0.8471232652664185,-0.511360228061676,-0.1887669414281845,2023-10-20T12:15:42.787222Z,1697804142787
-0.7864624261856079,-0.5785394310951233,-0.08300956338644028,2023-10-20T12:15:42.798379Z,1697804142798
-0.7331181168556213,-0.637337863445282,0.04562865570187569,2023-10-20T12:15:42.810209Z,1697804142810
-0.6913473010063171,-0.6845628619194031,0.19555138051509857,2023-10-20T12:15:42.818589Z,1697804142818
-0.6671361923217773,-0.7202144265174866,0.36356595158576965,2023-10-20T12:15:42.827544Z,1697804142827
-0.6659389138221741,-0.7464209794998169,0.5464796423912048,2023-10-20T12:15:42.838547Z,1697804142838
-0.6901500821113586,-0.7649118900299072,0.7400355935096741,2023-10-20T12:15:42.847961Z,1697804142847
-0.7400355935096741,-0.7763522863388062,0.9385136365890503,2023-10-20T12:15:42.860420Z,1697804142860
-0.815462589263916,-0.7835358381271362,1.1345970630645752,2023-10-20T12:15:42.868090Z,1697804142868
-0.9149676561355591,-0.7904532551765442,1.3220337629318237,2023-10-20T12:15:42.879520Z,1697804142879
-1.0336287021636963,-0.8006964325904846,1.4956355094909668,2023-10-20T12:15:42.888538Z,1697804142888
-1.1674550771713257,-0.819187343120575,1.6476867198944092,2023-10-20T12:15:42.899359Z,1697804142899
-1.3168456554412842,-0.8532425761222839,1.766879916191101,2023-10-20T12:15:42.909851Z,1697804142909
-1.485924482345581,-0.9089813828468323,1.8412426710128784,2023-10-20T12:15:42.919664Z,1697804142919
-1.6808106899261475,-0.9899954795837402,1.8613299131393433,2023-10-20T12:15:42.929288Z,1697804142929
-1.9128117561340332,-1.1002758741378784,1.8207563161849976,2023-10-20T12:15:42.944114Z,1697804142944
-2.200551748275757,-1.245409607887268,1.7138017416000366,2023-10-20T12:15:42.950061Z,1697804142949
-2.556535005569458,-1.4248645305633545,1.5412641763687134,2023-10-20T12:15:42.960304Z,1697804142960
-2.981160879135132,-1.629727840423584,1.3124557733535767,2023-10-20T12:15:42.969838Z,1697804142969
-3.46817684173584,-1.849623441696167,1.0414774417877197,2023-10-20T12:15:42.980218Z,1697804142980
-4.007073879241943,-2.0749731063842773,0.7434943318367004,2023-10-20T12:15:42.993141Z,1697804142993
-4.5801591873168945,-2.2947356700897217,0.43340572714805603,2023-10-20T12:15:43.000285Z,1697804143000
-5.154707908630371,-2.4930806159973145,0.127840057015419,2023-10-20T12:15:43.009697Z,1697804143009
-5.3792595863342285,-2.616131544113159,-0.15723927319049835,2023-10-20T12:15:43.021028Z,1697804143021
-5.7597198486328125,-2.717499017715454,-0.40746521949768066,2023-10-20T12:15:43.029966Z,1697804143029
-6.023115634918213,-2.756476402282715,-0.6112643480300903,2023-10-20T12:15:43.043567Z,1697804143043
-6.145368576049805,-2.7297377586364746,-0.7609210014343262,2023-10-20T12:15:43.050685Z,1697804143050
-6.122487545013428,-2.6432693004608154,-0.8551049828529358,2023-10-20T12:15:43.061847Z,1697804143061
-5.96471643447876,-2.5094430446624756,-0.8963437080383301,2023-10-20T12:15:43.070731Z,1697804143070
-5.68788480758667,-2.3419606685638428,-0.8887611031532288,2023-10-20T12:15:43.082324Z,1697804143082
-5.3143415451049805,-2.1558542251586914,-0.8392745852470398,2023-10-20T12:15:43.092869Z,1697804143092
-5.10029935836792,-1.9802570343017578,-0.7574623227119446,2023-10-20T12:15:43.102063Z,1697804143102
-4.543310642242432,-1.7898937463760376,-0.6510397791862488,2023-10-20T12:15:43.110984Z,1697804143110
-3.9680967330932617,-1.611503005027771,-0.5301172137260437,2023-10-20T12:15:43.126536Z,1697804143126
-3.392350912094116,-1.4476124048233032,-0.40201106667518616,2023-10-20T12:15:43.131761Z,1697804143131
-2.8283114433288574,-1.2992860078811646,-0.27257469296455383,2023-10-20T12:15:43.143335Z,1697804143143
-2.2891483306884766,-1.1661248207092285,-0.14792729914188385,2023-10-20T12:15:43.152239Z,1697804143152
-1.7881643772125244,-1.0465325117111206,-0.03485337644815445,2023-10-20T12:15:43.163483Z,1697804143163
-1.3366668224334717,-0.9362521171569824,0.06252323091030121,2023-10-20T12:15:43.171960Z,1697804143171
-0.9448989629745483,-0.8318250179290771,0.14074379205703735,2023-10-20T12:15:43.183048Z,1697804143183
-0.6270946860313416,-0.7328521013259888,0.1975468099117279,2023-10-20T12:15:43.193046Z,1697804143193
-0.39775416254997253,-0.6411957144737244,0.23226715624332428,2023-10-20T12:15:43.203316Z,1697804143203
-0.2612673044204712,-0.5577870607376099,0.24956081807613373,2023-10-20T12:15:43.212538Z,1697804143212
-0.211381733417511,-0.48262614011764526,0.25661131739616394,2023-10-20T12:15:43.226688Z,1697804143226
-0.22987264394760132,-0.4155799448490143,0.26033610105514526,2023-10-20T12:15:43.233488Z,1697804143233
-0.2904004454612732,-0.35638242959976196,0.26485905051231384,2023-10-20T12:15:43.244678Z,1697804143244
-0.36090537905693054,-0.3051665723323822,0.2723086178302765,2023-10-20T12:15:43.253116Z,1697804143253
-0.4093276262283325,-0.2616663873195648,0.28507933020591736,2023-10-20T12:15:43.263536Z,1697804143263
-0.4050707221031189,-0.2272120863199234,0.3068959414958954,2023-10-20T12:15:43.275047Z,1697804143275
-0.3211299479007721,-0.20459729433059692,0.34174931049346924,2023-10-20T12:15:43.284109Z,1697804143284
-0.13821625709533691,-0.19914314150810242,0.39482754468917847,2023-10-20T12:15:43.293918Z,1697804143293
0.15710625052452087,-0.21537257730960846,0.47185084223747253,2023-10-20T12:15:43.304614Z,1697804143304
0.5740164518356323,-0.25434982776641846,0.5760118961334229,2023-10-20T12:15:43.313713Z,1697804143313
1.1162391901016235,-0.311152845621109,0.7046501040458679,2023-10-20T12:15:43.325244Z,1697804143325
1.7788524627685547,-0.3748733401298523,0.8452608585357666,2023-10-20T12:15:43.334018Z,1697804143333
2.550548791885376,-0.4310111999511719,0.9789541959762573,2023-10-20T12:15:43.345473Z,1697804143345
3.4111077785491943,-0.46453431248664856,1.0831152200698853,2023-10-20T12:15:43.354596Z,1697804143354
4.323281764984131,-0.4686581790447235,1.1365925073623657,2023-10-20T12:15:43.365660Z,1697804143365
5.223350524902344,-0.4472406506538391,1.1256842613220215,2023-10-20T12:15:43.374853Z,1697804143374
5.665402889251709,-0.411190003156662,1.0465325117111206,2023-10-20T12:15:43.385649Z,1697804143385
6.1879377365112305,-0.37287789583206177,0.9169630408287048,2023-10-20T12:15:43.394610Z,1697804143394
6.517847537994385,-0.34108418226242065,0.7541366219520569,2023-10-20T12:15:43.405799Z,1697804143405
6.659522533416748,-0.3194005787372589,0.5805348753929138,2023-10-20T12:15:43.415203Z,1697804143415
6.6381049156188965,-0.30596473813056946,0.4149148166179657,2023-10-20T12:15:43.425692Z,1697804143425
6.48658561706543,-0.29452434182167053,0.270446240901947,2023-10-20T12:15:43.436215Z,1697804143436
6.236758708953857,-0.27896004915237427,0.1547117382287979,2023-10-20T12:15:43.446593Z,1697804143446
5.913234233856201,-0.25607919692993164,0.07130309194326401,2023-10-20T12:15:43.455253Z,1697804143455
5.533971309661865,-0.2244184911251068,0.022747814655303955,2023-10-20T12:15:43.466393Z,1697804143466
5.116795063018799,-0.18251462280750275,0.010243168100714684,2023-10-20T12:15:43.475601Z,1697804143475
4.887321472167969,-0.12850520014762878,0.03418823331594467,2023-10-20T12:15:43.486511Z,1697804143486
4.3979105949401855,-0.06159203499555588,0.09431695938110352,2023-10-20T12:15:43.496150Z,1697804143496
3.9332432746887207,0.01888999715447426,0.19062934815883636,2023-10-20T12:15:43.511057Z,1697804143511
3.508484363555908,0.11280786991119385,0.3209969401359558,2023-10-20T12:15:43.516961Z,1697804143516
3.1382670402526855,0.21909736096858978,0.4807637333869934,2023-10-20T12:15:43.527662Z,1697804143527
2.8344309329986572,0.33443278074264526,0.6623471975326538,2023-10-20T12:15:43.537479Z,1697804143537
2.606952667236328,0.4540250897407532,0.8571003675460815,2023-10-20T12:15:43.547857Z,1697804143547
2.46474552154541,0.5725531578063965,1.055578351020813,2023-10-20T12:15:43.560063Z,1697804143560
2.419649124145508,0.6848289370536804,1.2490012645721436,2023-10-20T12:15:43.568784Z,1697804143568
2.4833695888519287,0.7852652072906494,1.4303187131881714,2023-10-20T12:15:43.577784Z,1697804143577
2.6625585556030273,0.8660132884979248,1.5944753885269165,2023-10-20T12:15:43.588377Z,1697804143588
2.9596102237701416,0.918692409992218,1.7377467155456543,2023-10-20T12:15:43.597612Z,1697804143597
3.3782498836517334,0.9358530640602112,1.8569400310516357,2023-10-20T12:15:43.610191Z,1697804143610
3.909165382385254,0.910976767539978,1.9475321769714355,2023-10-20T12:15:43.618345Z,1697804143618
4.501406669616699,0.840072751045227,2.0052664279937744,2023-10-20T12:15:43.629147Z,1697804143629
5.053872585296631,0.7250034213066101,2.0257527828216553,2023-10-20T12:15:43.638294Z,1697804143638
5.172666549682617,0.5762779712677002,1.990633249282837,2023-10-20T12:15:43.649268Z,1697804143649
5.312878131866455,0.4126533269882202,1.9371559619903564,2023-10-20T12:15:43.658123Z,1697804143658
5.244901180267334,0.2507580518722534,1.856407880783081,2023-10-20T12:15:43.669858Z,1697804143669
5.006115436553955,0.1037619560956955,1.7587652206420898,2023-10-20T12:15:43.678627Z,1697804143678
4.844486236572266,-0.020486336201429367,1.6625858545303345,2023-10-20T12:15:43.691662Z,1697804143691
4.340176582336426,-0.11719780415296555,1.5533697605133057,2023-10-20T12:15:43.698973Z,1697804143698
3.78611421585083,-0.18424399197101593,1.4453508853912354,2023-10-20T12:15:43.709228Z,1697804143709
3.2148914337158203,-0.2217579334974289,1.3385292291641235,2023-10-20T12:15:43.719220Z,1697804143719
2.6456639766693115,-0.23040476441383362,1.232372760772705,2023-10-20T12:15:43.729567Z,1697804143729
2.09426212310791,-0.21204687654972076,1.1279456615447998,2023-10-20T12:15:43.741269Z,1697804143741
1.5802414417266846,-0.17040906846523285,1.0275094509124756,2023-10-20T12:15:43.750391Z,1697804143750
1.1275466680526733,-0.11121153831481934,0.9350548982620239,2023-10-20T12:15:43.759261Z,1697804143759
0.7541366219520569,-0.040307529270648956,0.8549719452857971,2023-10-20T12:15:43.770912Z,1697804143770
0.4649333953857422,0.03698182478547096,0.7908523678779602,2023-10-20T12:15:43.779574Z,1697804143779
0.2572764456272125,0.11546843498945236,0.7442924976348877,2023-10-20T12:15:43.791395Z,1697804143791
0.11786293983459473,0.19023025035858154,0.7124987840652466,2023-10-20T12:15:43.800284Z,1697804143800
0.02540837787091732,0.2578085660934448,0.6898840069770813,2023-10-20T12:15:43.810803Z,1697804143810
-0.042569007724523544,0.3167400360107422,0.6689985990524292,2023-10-20T12:15:43.820485Z,1697804143820
-0.10402801632881165,0.3662264943122864,0.6431910991668701,2023-10-20T12:15:43.831360Z,1697804143831
-0.168546661734581,0.4073322117328644,0.6080716848373413,2023-10-20T12:15:43.841007Z,1697804143840
-0.2387855350971222,0.4417864978313446,0.5628421306610107,2023-10-20T12:15:43.851055Z,1697804143851
-0.30982255935668945,0.4714517593383789,0.5101629495620728,2023-10-20T12:15:43.860855Z,1697804143860
-0.36968523263931274,0.4973922669887543,0.4545572102069855,2023-10-20T12:15:43.874258Z,1697804143874
-0.40759825706481934,0.5200070738792419,0.400015652179718,2023-10-20T12:15:43.881549Z,1697804143881
-0.4193047285079956,0.5395621657371521,0.34946495294570923,2023-10-20T12:15:43.891992Z,1697804143891
-0.4089285433292389,0.5568558573722839,0.3039693236351013,2023-10-20T12:15:43.901402Z,1697804143901
-0.38591468334198,0.5729522705078125,0.2645930051803589,2023-10-20T12:15:43.912548Z,1697804143912
-0.35864388942718506,0.589181661605835,0.23173503577709198,2023-10-20T12:15:43.924227Z,1697804143924
-0.3293777108192444,0.6055441498756409,0.20486335456371307,2023-10-20T12:15:43.932781Z,1697804143932
-0.29612067341804504,0.6228377819061279,0.1827806830406189,2023-10-20T12:15:43.941955Z,1697804143941
-0.25701040029525757,0.6423929333686829,0.16428977251052856,2023-10-20T12:15:43.953585Z,1697804143953
-0.21390926837921143,0.6659389138221741,0.14859244227409363,2023-10-20T12:15:43.962320Z,1697804143962
-0.16828061640262604,0.6946730017662048,0.13515660166740417,2023-10-20T12:15:43.974274Z,1697804143974
-0.1223858967423439,0.7287282347679138,0.12251892685890198,2023-10-20T12:15:43.982681Z,1697804143982
-0.07981689274311066,0.7686366438865662,0.10801886022090912,2023-10-20T12:15:43.993355Z,1697804143993
-0.04456442967057228,0.8137332201004028,0.08899583667516708,2023-10-20T12:15:44.003106Z,1697804144003
-0.017958801239728928,0.8622884750366211,0.06372048705816269,2023-10-20T12:15:44.014285Z,1697804144014
0.0022614786867052317,0.9121740460395813,0.03205978497862816,2023-10-20T12:15:44.024230Z,1697804144024
0.017825772985816002,0.9619265794754028,-0.005055069923400879,2023-10-20T12:15:44.034050Z,1697804144034
0.02953225001692772,1.0103487968444824,-0.04549562931060791,2023-10-20T12:15:44.043057Z,1697804144043
0.038445137441158295,1.055977463722229,-0.08567012846469879,2023-10-20T12:15:44.053636Z,1697804144053
0.04655985161662102,1.0973491668701172,-0.12251892685890198,2023-10-20T12:15:44.063506Z,1697804144063
0.056004852056503296,1.133266806602478,-0.15404659509658813,2023-10-20T12:15:44.076582Z,1697804144076
0.06944069266319275,1.1624000072479248,-0.17958800494670868,2023-10-20T12:15:44.084624Z,1697804144084
0.0883306935429573,1.1840835809707642,-0.1992761790752411,2023-10-20T12:15:44.095413Z,1697804144095
0.11174365133047104,1.1984505653381348,-0.21444137394428253,2023-10-20T12:15:44.104358Z,1697804144104
0.13688597083091736,1.2068313360214233,-0.2272120863199234,2023-10-20T12:15:44.115281Z,1697804144115
0.16043195128440857,1.211753487586975,-0.2403818666934967,2023-10-20T12:15:44.126292Z,1697804144126
0.18012011051177979,1.215611219406128,-0.2552810311317444,2023-10-20T12:15:44.135591Z,1697804144135
0.1938220113515854,1.2214645147323608,-0.27310678362846375,2023-10-20T12:15:44.145003Z,1697804144144
0.2003403902053833,1.231441617012024,-0.29452434182167053,2023-10-20T12:15:44.155261Z,1697804144155
0.20100553333759308,1.2467398643493652,-0.318868488073349,2023-10-20T12:15:44.165428Z,1697804144165
0.198078915476799,1.2661619186401367,-0.3457401692867279,2023-10-20T12:15:44.176244Z,1697804144176
0.1936889886856079,1.286914348602295,-0.3747403025627136,2023-10-20T12:15:44.185928Z,1697804144185
0.18850089609622955,1.3071346282958984,-0.4071991741657257,2023-10-20T12:15:44.196253Z,1697804144196
0.18078525364398956,1.3268227577209473,-0.44484615325927734,2023-10-20T12:15:44.209348Z,1697804144209
0.16761547327041626,1.3473091125488281,-0.4895435869693756,2023-10-20T12:15:44.216594Z,1697804144216
0.14699611067771912,1.3687266111373901,-0.5423557758331299,2023-10-20T12:15:44.225922Z,1697804144225
0.11985836178064346,1.3902772665023804,-0.6038147807121277,2023-10-20T12:15:44.237082Z,1697804144237
0.08646830171346664,1.4140892028808594,-0.6756500005722046,2023-10-20T12:15:44.246311Z,1697804144246
0.04296809434890747,1.4489426612854004,-0.7625173926353455,2023-10-20T12:15:44.259016Z,1697804144258
-0.01662851870059967,1.5057456493377686,-0.8718665242195129,2023-10-20T12:15:44.267027Z,1697804144266
-0.09631238132715225,1.5890213251113892,-1.0111470222473145,2023-10-20T12:15:44.277482Z,1697804144277
-0.1938220113515854,1.6911869049072266,-1.188340425491333,2023-10-20T12:15:44.287318Z,1697804144287
-0.3019739091396332,1.7978755235671997,-1.4104975461959839,2023-10-20T12:15:44.298137Z,1697804144298
-0.4121212065219879,1.8915272951126099,-1.683205246925354,2023-10-20T12:15:44.308918Z,1697804144308
-0.5166813135147095,1.9543166160583496,-2.0088582038879395,2023-10-20T12:15:44.317500Z,1697804144317
-0.6066083908081055,1.9689496755599976,-2.384662628173828,2023-10-20T12:15:44.326884Z,1697804144326
-0.6697967648506165,1.919729232788086,-2.8031692504882812,2023-10-20T12:15:44.337674Z,1697804144337
-0.6945399641990662,1.7990727424621582,-3.253469467163086,2023-10-20T12:15:44.347496Z,1697804144347
-0.6755169630050659,1.611103892326355,-3.725985527038574,2023-10-20T12:15:44.358165Z,1697804144358
-0.622305691242218,1.3757771253585815,-4.21113920211792,2023-10-20T12:15:44.367902Z,1697804144367
-0.5541952848434448,1.1179685592651367,-4.690040588378906,2023-10-20T12:15:44.378315Z,1697804144378
-0.4835573434829712,0.8516462445259094,-5.11067533493042,2023-10-20T12:15:44.387830Z,1697804144387
-0.41039183735847473,0.5761449337005615,-5.123180389404297,2023-10-20T12:15:44.398267Z,1697804144398
-0.33829060196876526,0.29053348302841187,-5.1950154304504395,2023-10-20T12:15:44.407899Z,1697804144407
-0.2797582149505615,-0.0014633096288889647,-5.097771644592285,2023-10-20T12:15:44.419117Z,1697804144419
-0.2403818666934967,-0.2913316488265991,-5.108813285827637,2023-10-20T12:15:44.428387Z,1697804144428
-0.2129780650138855,-0.5750806927680969,-4.767063617706299,2023-10-20T12:15:44.442624Z,1697804144442
-0.18756969273090363,-0.8565682768821716,-4.381681442260742,2023-10-20T12:15:44.448951Z,1697804144448
-0.15763835608959198,-1.1393861770629883,-3.988450050354004,2023-10-20T12:15:44.459370Z,1697804144459
-0.1218537837266922,-1.4155526161193848,-3.6238198280334473,2023-10-20T12:15:44.469368Z,1697804144469
-0.08221139758825302,-1.667773962020874,-3.31998348236084,2023-10-20T12:15:44.479325Z,1697804144479
-0.04749105125665665,-1.8807519674301147,-3.0790696144104004,2023-10-20T12:15:44.491805Z,1697804144491
-0.03166069835424423,-2.0433123111724854,-2.8768668174743652,2023-10-20T12:15:44.500033Z,1697804144500
-0.050417669117450714,-2.1442806720733643,-2.721090793609619,2023-10-20T12:15:44.509205Z,1697804144509
-0.11041336506605148,-2.1801984310150146,-2.659897804260254,2023-10-20T12:15:44.520491Z,1697804144520
-0.19342292845249176,-2.1678266525268555,-2.711911916732788,2023-10-20T12:15:44.529556Z,1697804144529
-0.26033610105514526,-2.134702682495117,-2.8285775184631348,2023-10-20T12:15:44.541077Z,1697804144541
-0.2772306799888611,-2.0981199741363525,-2.9395229816436768,2023-10-20T12:15:44.550279Z,1697804144550
-0.2349277138710022,-2.0564823150634766,-3.014417886734009,2023-10-20T12:15:44.560575Z,1697804144560
-0.14207406342029572,-2.0024728775024414,-3.0444822311401367,2023-10-20T12:15:44.570417Z,1697804144570
-0.011573448777198792,-1.9322339296340942,-3.0129547119140625,2023-10-20T12:15:44.581497Z,1697804144581
0.1366199105978012,-1.8421738147735596,-2.9187707901000977,2023-10-20T12:15:44.592096Z,1697804144592
0.27151045203208923,-1.7279026508331299,-2.792526960372925,2023-10-20T12:15:44.601784Z,1697804144601
0.3617035448551178,-1.5898194313049316,-2.6781227588653564,2023-10-20T12:15:44.610807Z,1697804144610
0.3933642506599426,-1.4385664463043213,-2.5995030403137207,2023-10-20T12:15:44.625922Z,1697804144625
0.37966233491897583,-1.2881115674972534,-2.552544116973877,2023-10-20T12:15:44.631113Z,1697804144631
0.3464052975177765,-1.148698091506958,-2.518887996673584,2023-10-20T12:15:44.642429Z,1697804144642
0.31474462151527405,-1.0244498252868652,-2.4741907119750977,2023-10-20T12:15:44.651628Z,1697804144651
0.2919968068599701,-0.9141694903373718,-2.39676833152771,2023-10-20T12:15:44.662311Z,1697804144662
0.2749691903591156,-0.8147974610328674,-2.278639316558838,2023-10-20T12:15:44.675522Z,1697804144675
0.25927186012268066,-0.7250034213066101,-2.129514694213867,2023-10-20T12:15:44.682648Z,1697804144682
0.24118003249168396,-0.6453195810317993,-1.969614863395691,2023-10-20T12:15:44.692035Z,1697804144691
0.21869827806949615,-0.577741265296936,-1.812774658203125,2023-10-20T12:15:44.702691Z,1697804144702
0.19142751395702362,-0.5237318277359009,-1.6612555980682373,2023-10-20T12:15:44.711927Z,1697804144711
0.16123011708259583,-0.4830252230167389,-1.5111998319625854,2023-10-20T12:15:44.725908Z,1697804144725
0.13023455440998077,-0.45256176590919495,-1.355157732963562,2023-10-20T12:15:44.733082Z,1697804144733
0.0999041423201561,-0.4280845820903778,-1.1864781379699707,2023-10-20T12:15:44.743044Z,1697804144743
0.07010583579540253,-0.40693312883377075,-1.004096508026123,2023-10-20T12:15:44.752974Z,1697804144752
0.03977541625499725,-0.3868458569049835,-0.8141322731971741,2023-10-20T12:15:44.763667Z,1697804144763
0.008779858238995075,-0.36702466011047363,-0.6281589269638062,2023-10-20T12:15:44.775507Z,1697804144775
-0.02288084290921688,-0.34760257601737976,-0.4566856324672699,2023-10-20T12:15:44.784093Z,1697804144784
-0.05520668253302574,-0.3293777108192444,-0.30436840653419495,2023-10-20T12:15:44.793430Z,1697804144793
-0.08739949762821198,-0.31155192852020264,-0.17134025692939758,2023-10-20T12:15:44.804072Z,1697804144804
-0.11879414319992065,-0.29173073172569275,-0.05400943011045456,2023-10-20T12:15:44.813656Z,1697804144813
-0.1492575854063034,-0.2684507966041565,0.05121583864092827,2023-10-20T12:15:44.825841Z,1697804144825
-0.17905589938163757,-0.2421112358570099,0.14673005044460297,2023-10-20T12:15:44.834209Z,1697804144834
-0.20898722112178802,-0.21377624571323395,0.23253321647644043,2023-10-20T12:15:44.844804Z,1697804144844
-0.23998278379440308,-0.18451005220413208,0.30609777569770813,2023-10-20T12:15:44.853943Z,1697804144853
-0.27244165539741516,-0.15497779846191406,0.3644971251487732,2023-10-20T12:15:44.865216Z,1697804144865
-0.30716201663017273,-0.12690885365009308,0.40533676743507385,2023-10-20T12:15:44.875547Z,1697804144875
-0.34613925218582153,-0.10229864716529846,0.4282176196575165,2023-10-20T12:15:44.885037Z,1697804144885
-0.39096975326538086,-0.0828765407204628,0.43500205874443054,2023-10-20T12:15:44.894514Z,1697804144894
-0.44311678409576416,-0.0697067528963089,0.42848366498947144,2023-10-20T12:15:44.909311Z,1697804144909
-0.5033785104751587,-0.06518379598855972,0.4110569953918457,2023-10-20T12:15:44.914605Z,1697804144914
-0.5724201202392578,-0.07156914472579956,0.3836531937122345,2023-10-20T12:15:44.926530Z,1697804144926
-0.6493104100227356,-0.09032611548900604,0.34547412395477295,2023-10-20T12:15:44.935946Z,1697804144935
-0.7311227321624756,-0.12118864804506302,0.2954555153846741,2023-10-20T12:15:44.946489Z,1697804144946
-0.8139992356300354,-0.16322554647922516,0.23359742760658264,2023-10-20T12:15:44.958925Z,1697804144958
-0.8940821886062622,-0.21537257730960846,0.16202828288078308,2023-10-20T12:15:44.966123Z,1697804144966
-0.9675137400627136,-0.2744370698928833,0.08686738461256027,2023-10-20T12:15:44.975478Z,1697804144975
-1.0312342643737793,-0.3365612328052521,0.015431265346705914,2023-10-20T12:15:44.987271Z,1697804144987
-1.0847115516662598,-0.4006807804107666,-0.04576168581843376,2023-10-20T12:15:44.995517Z,1697804144995
-1.1271475553512573,-0.46613064408302307,-0.09125731140375137,2023-10-20T12:15:45.007521Z,1697804145007
-1.1570788621902466,-0.5321125984191895,-0.11945927888154984,2023-10-20T12:15:45.015938Z,1697804145015
-1.172377109527588,-0.5955670475959778,-0.1327620893716812,2023-10-20T12:15:45.026657Z,1697804145026
-1.1726431846618652,-0.6546315550804138,-0.13768413662910461,2023-10-20T12:15:45.036754Z,1697804145036
-1.160138487815857,-0.7095721364021301,-0.1416749805212021,2023-10-20T12:15:45.047136Z,1697804145047
-1.1401842832565308,-0.7647788524627686,-0.14952364563941956,2023-10-20T12:15:45.058429Z,1697804145058
-1.1206291913986206,-0.827302098274231,-0.16216132044792175,2023-10-20T12:15:45.067899Z,1697804145067
-1.1041336059570312,-0.8986051678657532,-0.17160631716251373,2023-10-20T12:15:45.076834Z,1697804145076
-1.0880372524261475,-0.9719036817550659,-0.16428977251052856,2023-10-20T12:15:45.087898Z,1697804145087
-1.0704774856567383,-1.0412113666534424,-0.12983547151088715,2023-10-20T12:15:45.097558Z,1697804145097
-1.0575737953186035,-1.1106520891189575,-0.06877555698156357,2023-10-20T12:15:45.109014Z,1697804145108
-1.0598353147506714,-1.1879414319992065,0.010908308438956738,2023-10-20T12:15:45.117846Z,1697804145117
-1.0848445892333984,-1.2784005403518677,0.10163351148366928,2023-10-20T12:15:45.128234Z,1697804145128
-1.1389870643615723,-1.3858872652053833,0.1954183578491211,2023-10-20T12:15:45.141556Z,1697804145141
-1.231441617012024,-1.5173190832138062,0.28228574991226196,2023-10-20T12:15:45.148887Z,1697804145148
-1.374579906463623,-1.6840033531188965,0.35052919387817383,2023-10-20T12:15:45.158143Z,1697804145158
-1.5769157409667969,-1.8956512212753296,0.39150184392929077,2023-10-20T12:15:45.169153Z,1697804145169
-1.8332610130310059,-2.15079927444458,0.4029422700405121,2023-10-20T12:15:45.178064Z,1697804145178
-2.125922918319702,-2.436410665512085,0.3875110149383545,2023-10-20T12:15:45.192200Z,1697804145192
-2.436410665512085,-2.7370541095733643,0.3469374179840088,2023-10-20T12:15:45.198916Z,1697804145198
-2.757939577102661,-3.0452804565429688,0.27896004915237427,2023-10-20T12:15:45.209899Z,1697804145209
-3.092372417449951,-3.358428716659546,0.18264764547348022,2023-10-20T12:15:45.219061Z,1697804145219
-3.4446308612823486,-3.6741044521331787,0.05959661304950714,2023-10-20T12:15:45.229957Z,1697804145229
-3.829747438430786,-3.99603271484375,-0.09099125862121582,2023-10-20T12:15:45.241815Z,1697804145241
-4.273529529571533,-4.33352518081665,-0.27257469296455383,2023-10-20T12:15:45.250193Z,1697804145250
-4.798857688903809,-4.692302227020264,-0.485685795545578,2023-10-20T12:15:45.259358Z,1697804145259
-5.123712539672852,-4.827458381652832,-0.7170217633247375,2023-10-20T12:15:45.270396Z,1697804145270
-5.635471820831299,-5.101097583770752,-0.9387796521186829,2023-10-20T12:15:45.279736Z,1697804145279
-6.0561065673828125,-5.2754974365234375,-1.1167713403701782,2023-10-20T12:15:45.292260Z,1697804145292
-6.320034503936768,-5.3151397705078125,-1.2265195846557617,2023-10-20T12:15:45.299949Z,1697804145299
-6.407700061798096,-5.218029499053955,-1.2629692554473877,2023-10-20T12:15:45.311057Z,1697804145311
-6.336662769317627,-5.006514549255371,-1.2349003553390503,2023-10-20T12:15:45.320208Z,1697804145320
-6.143239974975586,-4.7119903564453125,-1.1576110124588013,2023-10-20T12:15:45.331272Z,1697804145331
-5.869335174560547,-4.366915225982666,-1.046931505203247,2023-10-20T12:15:45.341795Z,1697804145341
-5.544347286224365,-3.9943032264709473,-0.9136373400688171,2023-10-20T12:15:45.351508Z,1697804145351
-5.186235427856445,-3.609851837158203,-0.7643797397613525,2023-10-20T12:15:45.360724Z,1697804145360
-5.027666091918945,-3.2933778762817383,-0.603681743144989,2023-10-20T12:15:45.371492Z,1697804145371
-4.5789618492126465,-2.8972201347351074,-0.4347360134124756,2023-10-20T12:15:45.381264Z,1697804145381
-4.1307902336120605,-2.5271358489990234,-0.26539117097854614,2023-10-20T12:15:45.392307Z,1697804145392
-3.6886045932769775,-2.1885790824890137,-0.10056928545236588,2023-10-20T12:15:45.401215Z,1697804145401
-3.2512080669403076,-1.8827474117279053,0.05813330411911011,2023-10-20T12:15:45.412516Z,1697804145412
-2.8209950923919678,-1.6096405982971191,0.2096523642539978,2023-10-20T12:15:45.425433Z,1697804145425
-2.4116673469543457,-1.3727174997329712,0.3506622016429901,2023-10-20T12:15:45.432417Z,1697804145432
-2.0405187606811523,-1.1761019229888916,0.4770389497280121,2023-10-20T12:15:45.441844Z,1697804145441
-1.71247136592865,-1.0177984237670898,0.5903789401054382,2023-10-20T12:15:45.452864Z,1697804145452
-1.427259087562561,-0.8946143388748169,0.6934757828712463,2023-10-20T12:15:45.461556Z,1697804145461
-1.1876753568649292,-0.8049533367156982,0.7863293886184692,2023-10-20T12:15:45.475376Z,1697804145475
-0.9946514964103699,-0.7478842735290527,0.8681417107582092,2023-10-20T12:15:45.482531Z,1697804145482
-0.8427333235740662,-0.7207465171813965,0.940509021282196,2023-10-20T12:15:45.493498Z,1697804145493
-0.7212786674499512,-0.7203474640846252,1.0058258771896362,2023-10-20T12:15:45.502722Z,1697804145502
-0.6181818246841431,-0.7434943318367004,1.0658215284347534,2023-10-20T12:15:45.513568Z,1697804145513
-0.5197409987449646,-0.784600019454956,1.1212942600250244,2023-10-20T12:15:45.525194Z,1697804145525
-0.4177083969116211,-0.8380773663520813,1.1711798906326294,2023-10-20T12:15:45.534186Z,1697804145534
-0.3067629039287567,-0.8962106704711914,1.2146800756454468,2023-10-20T12:15:45.542834Z,1697804145542
-0.17360173165798187,-0.9480916261672974,1.2547215223312378,2023-10-20T12:15:45.553937Z,1697804145553
-0.006252323277294636,-0.98640376329422,1.2948960065841675,2023-10-20T12:15:45.562713Z,1697804145562
0.19581744074821472,-1.0107479095458984,1.336932897567749,2023-10-20T12:15:45.575380Z,1697804145575
0.42076805233955383,-1.028174638748169,1.3812313079833984,2023-10-20T12:15:45.583632Z,1697804145583
0.6623471975326538,-1.0474636554718018,1.429121494293213,2023-10-20T12:15:45.594981Z,1697804145594
0.9297337532043457,-1.0796564817428589,1.4828648567199707,2023-10-20T12:15:45.607489Z,1697804145607
1.2629692554473877,-1.1319365501403809,1.546452283859253,2023-10-20T12:15:45.614736Z,1697804145614
1.786967158317566,-1.1940606832504272,1.6343839168548584,2023-10-20T12:15:45.624312Z,1697804145624
2.842944622039795,-1.2226617336273193,1.7817790508270264,2023-10-20T12:15:45.634998Z,1697804145634
5.436062335968018,-1.0698124170303345,2.0756382942199707,2023-10-20T12:15:45.644328Z,1697804145644
13.296163558959961,-0.326185017824173,2.772838830947876,2023-10-20T12:15:45.658257Z,1697804145658
23.485986709594727,0.6368057727813721,3.4125711917877197,2023-10-20T12:15:45.664894Z,1697804145664
27.546138763427734,0.8970088362693787,3.4081811904907227,2023-10-20T12:15:45.675269Z,1697804145675
26.007402420043945,0.6018193364143372,3.050734519958496,2023-10-20T12:15:45.684768Z,1697804145684
23.166454315185547,0.23359742760658264,2.66748046875,2023-10-20T12:15:45.695553Z,1697804145695
20.20351791381836,-0.09351879358291626,2.320276975631714,2023-10-20T12:15:45.707511Z,1697804145707
17.447973251342773,-0.3574466407299042,2.0192344188690186,2023-10-20T12:15:45.716537Z,1697804145716
14.997859954833984,-0.559117317199707,1.7654166221618652,2023-10-20T12:15:45.725615Z,1697804145725
12.874731063842773,-0.7045170664787292,1.5574935674667358,2023-10-20T12:15:45.736473Z,1697804145736
11.065680503845215,-0.8001643419265747,1.393602967262268,2023-10-20T12:15:45.745520Z,1697804145745
9.54290771484375,-0.8517792820930481,1.2705519199371338,2023-10-20T12:15:45.758204Z,1697804145758
8.267699241638184,-0.8648160099983215,1.1832853555679321,2023-10-20T12:15:45.766226Z,1697804145766
7.197488307952881,-0.8441966772079468,1.1258172988891602,2023-10-20T12:15:45.776595Z,1697804145776
6.293961048126221,-0.7948431968688965,1.0918951034545898,2023-10-20T12:15:45.785992Z,1697804145785
5.523062705993652,-0.7222098112106323,1.0751335620880127,2023-10-20T12:15:45.797130Z,1697804145797
5.086331367492676,-0.6324158310890198,1.0727390050888062,2023-10-20T12:15:45.807294Z,1697804145807
4.426511764526367,-0.5294520258903503,1.074202299118042,2023-10-20T12:15:45.817164Z,1697804145817
3.8499677181243896,-0.4182405173778534,1.0767298936843872,2023-10-20T12:15:45.826558Z,1697804145826
3.3340845108032227,-0.30263903737068176,1.0740692615509033,2023-10-20T12:15:45.841111Z,1697804145841
2.8594400882720947,-0.1877027153968811,1.0607664585113525,2023-10-20T12:15:45.846912Z,1697804145846
2.4116673469543457,-0.07822055369615555,1.0322984457015991,2023-10-20T12:15:45.858270Z,1697804145858
1.983183741569519,0.022348729893565178,0.985073447227478,2023-10-20T12:15:45.867319Z,1697804145867
1.5719937086105347,0.11174365133047104,0.9166970252990723,2023-10-20T12:15:45.878648Z,1697804145878
1.1786293983459473,0.18969814479351044,0.8266369104385376,2023-10-20T12:15:45.890416Z,1697804145890
0.8057515025138855,0.25701040029525757,0.7171547412872314,2023-10-20T12:15:45.898620Z,1697804145898
0.4566856324672699,0.31700608134269714,0.5937046408653259,2023-10-20T12:15:45.907396Z,1697804145907
0.13489054143428802,0.3752724230289459,0.4628049433231354,2023-10-20T12:15:45.918486Z,1697804145918
-0.15431265532970428,0.43832775950431824,0.33230432868003845,2023-10-20T12:15:45.928140Z,1697804145928
-0.40254318714141846,0.5110941529273987,0.21084962785243988,2023-10-20T12:15:45.941510Z,1697804145941
-0.6016863584518433,0.5970303416252136,0.10615646839141846,2023-10-20T12:15:45.948872Z,1697804145948
-0.7484163641929626,0.6981317400932312,0.024876264855265617,2023-10-20T12:15:45.959411Z,1697804145959
-0.844994843006134,0.8136001825332642,-0.02886710874736309,2023-10-20T12:15:45.969123Z,1697804145969
-0.8946143388748169,0.9386466145515442,-0.0521470345556736,2023-10-20T12:15:45.979392Z,1697804145979
-0.8998024463653564,1.0656884908676147,-0.04549562931060791,2023-10-20T12:15:45.990642Z,1697804145990
-0.8646829724311829,1.1866111755371094,-0.013302815146744251,2023-10-20T12:15:46.000227Z,1697804146000
-0.7965725660324097,1.2948960065841675,0.03738091140985489,2023-10-20T12:15:46.009601Z,1697804146009
-0.7035859227180481,1.3850891590118408,0.09923899918794632,2023-10-20T12:15:46.020177Z,1697804146020
-0.5943697690963745,1.4539977312088013,0.16615216434001923,2023-10-20T12:15:46.029770Z,1697804146029
-0.4775710701942444,1.5006905794143677,0.23253321647644043,2023-10-20T12:15:46.041105Z,1697804146041
-0.3611714243888855,1.5266311168670654,0.2941252589225769,2023-10-20T12:15:46.049718Z,1697804146049
-0.25009292364120483,1.5344797372817993,0.34773558378219604,2023-10-20T12:15:46.060467Z,1697804146060
-0.1460649073123932,1.5280944108963013,0.39256608486175537,2023-10-20T12:15:46.069688Z,1697804146069
-0.05081675574183464,1.510933756828308,0.4275524914264679,2023-10-20T12:15:46.080860Z,1697804146080
0.03392218053340912,1.4868556261062622,0.45242875814437866,2023-10-20T12:15:46.091208Z,1697804146091
0.10695463418960571,1.4591858386993408,0.46679577231407166,2023-10-20T12:15:46.101082Z,1697804146101
0.16867969930171967,1.4309837818145752,0.470919668674469,2023-10-20T12:15:46.110247Z,1697804146110
0.2189643383026123,1.404644250869751,0.4648003578186035,2023-10-20T12:15:46.124778Z,1697804146124
0.25714340806007385,1.3821624517440796,0.4483048617839813,2023-10-20T12:15:46.130760Z,1697804146130
0.2842811644077301,1.3644697666168213,0.4214331805706024,2023-10-20T12:15:46.142121Z,1697804146142
0.30277207493782043,1.3509008884429932,0.38325411081314087,2023-10-20T12:15:46.150781Z,1697804146150
0.31261616945266724,1.339194416999817,0.3309740424156189,2023-10-20T12:15:46.162014Z,1697804146161
0.3118179738521576,1.3256255388259888,0.25980398058891296,2023-10-20T12:15:46.174667Z,1697804146174
0.2997124195098877,1.3048731088638306,0.16402371227741241,2023-10-20T12:15:46.181975Z,1697804146181
0.27629947662353516,1.2740106582641602,0.037247881293296814,2023-10-20T12:15:46.191135Z,1697804146191
0.2414460927248001,1.234235167503357,-0.12637674808502197,2023-10-20T12:15:46.202222Z,1697804146202
0.1892990618944168,1.1972533464431763,-0.3341667056083679,2023-10-20T12:15:46.211353Z,1697804146211
0.11028033494949341,1.1822211742401123,-0.5958331227302551,2023-10-20T12:15:46.225077Z,1697804146225
-0.004922041669487953,1.2062993049621582,-0.9266741275787354,2023-10-20T12:15:46.232261Z,1697804146232
-0.16282646358013153,1.2716161012649536,-1.3528963327407837,2023-10-20T12:15:46.243280Z,1697804146243
-0.3650292456150055,1.3560889959335327,-1.9262475967407227,2023-10-20T12:15:46.252035Z,1697804146251
-0.6011542081832886,1.4207406044006348,-2.710315465927124,2023-10-20T12:15:46.263204Z,1697804146263
-0.8338204622268677,1.4285893440246582,-3.7350313663482666,2023-10-20T12:15:46.274634Z,1697804146274
-1.0015689134597778,1.3636715412139893,-4.954766750335693,2023-10-20T12:15:46.283206Z,1697804146283
-1.0436058044433594,1.2301113605499268,-5.8294267654418945,2023-10-20T12:15:46.293009Z,1697804146292
-0.9452980756759644,1.0586379766464233,-6.731623649597168,2023-10-20T12:15:46.308085Z,1697804146308
-0.7456228137016296,0.874127984046936,-7.310429096221924,2023-10-20T12:15:46.313644Z,1697804146313
-0.52639240026474,0.7019895315170288,-7.511168479919434,2023-10-20T12:15:46.324625Z,1697804146324
-0.35771268606185913,0.5458145141601562,-7.36018180847168,2023-10-20T12:15:46.333221Z,1697804146333
-0.2607351839542389,0.38551557064056396,-6.927441120147705,2023-10-20T12:15:46.344154Z,1697804146344
-0.20127159357070923,0.1931568831205368,-6.30220890045166,2023-10-20T12:15:46.357788Z,1697804146357
-0.12717491388320923,-0.04655985161662102,-5.5678935050964355,2023-10-20T12:15:46.364467Z,1697804146364
-0.0047890134155750275,-0.32911163568496704,-5.012500762939453,2023-10-20T12:15:46.374251Z,1697804146374
0.16508793830871582,-0.6338791251182556,-4.143959999084473,2023-10-20T12:15:46.384959Z,1697804146384
0.35159340500831604,-0.9254768490791321,-3.3178551197052,2023-10-20T12:15:46.394156Z,1697804146394
0.5221354961395264,-1.167322039604187,-2.542433977127075,2023-10-20T12:15:46.408184Z,1697804146408
0.6554297208786011,-1.3336071968078613,-1.8538802862167358,2023-10-20T12:15:46.414683Z,1697804146414
0.7480173110961914,-1.4175479412078857,-1.3063364028930664,2023-10-20T12:15:46.425040Z,1697804146425
0.8056184649467468,-1.4297865629196167,-0.9506191611289978,2023-10-20T12:15:46.434738Z,1697804146434
0.8327562212944031,-1.3898781538009644,-0.8076139092445374,2023-10-20T12:15:46.445370Z,1697804146445
0.8374122381210327,-1.3225659132003784,-0.8509811162948608,2023-10-20T12:15:46.457735Z,1697804146457
0.8335543870925903,-1.2484692335128784,-1.0249818563461304,2023-10-20T12:15:46.465629Z,1697804146465
0.8367470502853394,-1.174106478691101,-1.2697536945343018,2023-10-20T12:15:46.475003Z,1697804146474
0.8561691641807556,-1.0895005464553833,-1.5424613952636719,2023-10-20T12:15:46.486056Z,1697804146486
0.8864995837211609,-0.9778899550437927,-1.8022654056549072,2023-10-20T12:15:46.495026Z,1697804146494
0.9143024682998657,-0.8282333016395569,-2.0059316158294678,2023-10-20T12:15:46.508166Z,1697804146508
0.9248117208480835,-0.6442553400993347,-2.1393587589263916,2023-10-20T12:15:46.515363Z,1697804146515
0.9069859385490417,-0.4419195353984833,-2.230483055114746,2023-10-20T12:15:46.526542Z,1697804146526
0.8609582185745239,-0.24251031875610352,-2.3148229122161865,2023-10-20T12:15:46.535739Z,1697804146535
0.7961735129356384,-0.06305534392595291,-2.3980984687805176,2023-10-20T12:15:46.546903Z,1697804146546
0.7281960844993591,0.0921885073184967,-2.4530391693115234,2023-10-20T12:15:46.557651Z,1697804146557
0.6697967648506165,0.22574877738952637,-2.4497134685516357,2023-10-20T12:15:46.566709Z,1697804146566
0.6277598738670349,0.3425475060939789,-2.3748185634613037,2023-10-20T12:15:46.576547Z,1697804146576
0.6074065566062927,0.44710761308670044,-2.23008394241333,2023-10-20T12:15:46.587249Z,1697804146587
0.611796498298645,0.54182368516922,-2.0324041843414307,2023-10-20T12:15:46.596615Z,1697804146596
0.6389341950416565,0.6250993013381958,-1.805191993713379,2023-10-20T12:15:46.608101Z,1697804146608
0.680971086025238,0.6940078735351562,-1.5684019327163696,2023-10-20T12:15:46.616889Z,1697804146616
0.7276639938354492,0.7496136426925659,-1.3320108652114868,2023-10-20T12:15:46.628041Z,1697804146628
0.7707651257514954,0.7955083250999451,-1.0994776487350464,2023-10-20T12:15:46.640973Z,1697804146640
0.8050863742828369,0.8350176811218262,-0.8730637431144714,2023-10-20T12:15:46.648361Z,1697804146648
0.8270360231399536,0.8701371550559998,-0.6575581431388855,2023-10-20T12:15:46.657531Z,1697804146657
0.8323571681976318,0.901398777961731,-0.4586810767650604,2023-10-20T12:15:46.668638Z,1697804146668
0.8185222148895264,0.9276053309440613,-0.28228574991226196,2023-10-20T12:15:46.677643Z,1697804146677
0.785531222820282,0.9462292194366455,-0.13076667487621307,2023-10-20T12:15:46.691562Z,1697804146691
0.7365768551826477,0.9552751779556274,-0.0,2023-10-20T12:15:46.698196Z,1697804146698
0.6764481663703918,0.9574036002159119,0.11772991716861725,2023-10-20T12:15:46.709245Z,1697804146709
0.6098010540008545,0.9580687284469604,0.23093686997890472,2023-10-20T12:15:46.718171Z,1697804146718
0.540493369102478,0.9627247452735901,0.344542920589447,2023-10-20T12:15:46.729046Z,1697804146729
0.46905726194381714,0.9724357724189758,0.4577498733997345,2023-10-20T12:15:46.741056Z,1697804146741
0.3936302959918976,0.9845413565635681,0.566433846950531,2023-10-20T12:15:46.749278Z,1697804146749
0.31141889095306396,0.9950505495071411,0.663677453994751,2023-10-20T12:15:46.758656Z,1697804146758
0.2212258130311966,1.0022341012954712,0.7428292036056519,2023-10-20T12:15:46.769682Z,1697804146769
0.12371618300676346,1.007688283920288,0.7996322512626648,2023-10-20T12:15:46.779048Z,1697804146778
0.019688166677951813,1.0120781660079956,0.8327562212944031,2023-10-20T12:15:46.791394Z,1697804146791
-0.09085822850465775,1.013275384902954,0.8439306020736694,2023-10-20T12:15:46.799492Z,1697804146799
-0.207523912191391,1.0084863901138306,0.8344855904579163,2023-10-20T12:15:46.810436Z,1697804146810
-0.3304419219493866,0.9949175715446472,0.8044212460517883,2023-10-20T12:15:46.819452Z,1697804146819
-0.45974528789520264,0.9699082374572754,0.7529393434524536,2023-10-20T12:15:46.830534Z,1697804146830
-0.596365213394165,0.9311970472335815,0.6797738671302795,2023-10-20T12:15:46.840817Z,1697804146840
-0.7391043901443481,0.8783848881721497,0.5862550735473633,2023-10-20T12:15:46.850878Z,1697804146850
-0.8858344554901123,0.8125359416007996,0.47504353523254395,2023-10-20T12:15:46.860085Z,1697804146860
-1.034160852432251,0.7329851388931274,0.3485337495803833,2023-10-20T12:15:46.874404Z,1697804146874
-1.1816890239715576,0.6366727352142334,0.2091202586889267,2023-10-20T12:15:46.880305Z,1697804146880
-1.325093388557434,0.5206722021102905,0.05866541340947151,2023-10-20T12:15:46.891259Z,1697804146891
-1.4594519138336182,0.3836531937122345,-0.10269773006439209,2023-10-20T12:15:46.900807Z,1697804146900
-1.580507516860962,0.22481757402420044,-0.27643251419067383,2023-10-20T12:15:46.912044Z,1697804146911
-1.685599684715271,0.042835064232349396,-0.46360310912132263,2023-10-20T12:15:46.923632Z,1697804146923
-1.7733982801437378,-0.16149617731571198,-0.662746250629425,2023-10-20T12:15:46.931483Z,1697804146931
-1.8427059650421143,-0.38232290744781494,-0.8666784167289734,2023-10-20T12:15:46.941271Z,1697804146941
-1.8921924829483032,-0.6119294762611389,-1.0670188665390015,2023-10-20T12:15:46.951911Z,1697804146951
-1.9203944206237793,-0.8451278209686279,-1.2571160793304443,2023-10-20T12:15:46.961388Z,1697804146961
-1.9243851900100708,-1.0771290063858032,-1.4324471950531006,2023-10-20T12:15:46.974431Z,1697804146974
-1.9003071784973145,-1.3024786710739136,-1.589287281036377,2023-10-20T12:15:46.982091Z,1697804146982
-1.846031665802002,-1.5165209770202637,-1.7248430252075195,2023-10-20T12:15:46.992827Z,1697804146992
-1.764086365699768,-1.7148659229278564,-1.8357884883880615,2023-10-20T12:15:47.002066Z,1697804147002
-1.66098952293396,-1.8913942575454712,-1.91826593875885,2023-10-20T12:15:47.013175Z,1697804147013
-1.5471173524856567,-2.0425143241882324,-1.9697479009628296,2023-10-20T12:15:47.023415Z,1697804147023
-1.434309482574463,-2.172349691390991,-1.9936928749084473,2023-10-20T12:15:47.033208Z,1697804147033
-1.3314787149429321,-2.286620855331421,-1.9944911003112793,2023-10-20T12:15:47.042393Z,1697804147042
-1.2439461946487427,-2.388786554336548,-1.975601077079773,2023-10-20T12:15:47.053381Z,1697804147053
-1.172377109527588,-2.4795117378234863,-1.9392844438552856,2023-10-20T12:15:47.062897Z,1697804147062
-1.1137117147445679,-2.5582644939422607,-1.8882015943527222,2023-10-20T12:15:47.074070Z,1697804147074
-1.0620967149734497,-2.6231820583343506,-1.8235498666763306,2023-10-20T12:15:47.083115Z,1697804147083
-1.0128763914108276,-2.6737327575683594,-1.7453293800354004,2023-10-20T12:15:47.094345Z,1697804147094
-0.9640550017356873,-2.7096505165100098,-1.651544451713562,2023-10-20T12:15:47.103161Z,1697804147103
-0.9140364527702332,-2.727609157562256,-1.538204550743103,2023-10-20T12:15:47.114497Z,1697804147114
-0.8634857535362244,-2.726811170578003,-1.4033139944076538,2023-10-20T12:15:47.123368Z,1697804147123
-0.8151965141296387,-2.7120449542999268,-1.2480701208114624,2023-10-20T12:15:47.134273Z,1697804147134
-0.7702329754829407,-2.68703556060791,-1.0736702680587769,2023-10-20T12:15:47.143715Z,1697804147143
-0.726466715335846,-2.649920701980591,-0.8778527975082397,2023-10-20T12:15:47.157453Z,1697804147157
-0.6801729202270508,-2.598572015762329,-0.65915447473526,2023-10-20T12:15:47.164452Z,1697804147164
-0.6288240551948547,-2.5349843502044678,-0.4214331805706024,2023-10-20T12:15:47.174910Z,1697804147174
-0.5698925852775574,-2.4616858959198,-0.17413385212421417,2023-10-20T12:15:47.184414Z,1697804147184
-0.5024473071098328,-2.3813369274139404,0.06983978301286697,2023-10-20T12:15:47.195260Z,1697804147195
-0.4307451546192169,-2.2995245456695557,0.2953225076198578,2023-10-20T12:15:47.206706Z,1697804147206
-0.36369895935058594,-2.2231664657592773,0.48994266986846924,2023-10-20T12:15:47.216077Z,1697804147216
-0.31088680028915405,-2.157982587814331,0.6499755382537842,2023-10-20T12:15:47.224939Z,1697804147224
-0.2766985595226288,-2.104771375656128,0.7800770998001099,2023-10-20T12:15:47.235994Z,1697804147235
-0.2633957266807556,-2.063798666000366,0.8900913596153259,2023-10-20T12:15:47.245512Z,1697804147245
-0.2756343185901642,-2.0375921726226807,0.9877340197563171,2023-10-20T12:15:47.257208Z,1697804147257
-0.31807032227516174,-2.0289454460144043,1.0779271125793457,2023-10-20T12:15:47.265287Z,1697804147265
-0.3917679190635681,-2.037858247756958,1.1631981134414673,2023-10-20T12:15:47.276701Z,1697804147276
-0.49380049109458923,-2.0608720779418945,1.2423498630523682,2023-10-20T12:15:47.285675Z,1697804147285
-0.622704803943634,-2.095592498779297,1.3097951412200928,2023-10-20T12:15:47.296645Z,1697804147296
-0.7800770998001099,-2.140423059463501,1.3584834337234497,2023-10-20T12:15:47.306694Z,1697804147306
-0.9661834836006165,-2.1921708583831787,1.3834928274154663,2023-10-20T12:15:47.316916Z,1697804147316
-1.1815561056137085,-2.2476437091827393,1.3817634582519531,2023-10-20T12:15:47.326063Z,1697804147326
-1.4271260499954224,-2.305510997772217,1.3516989946365356,2023-10-20T12:15:47.340455Z,1697804147340
-1.7007648944854736,-2.3633780479431152,1.2938318252563477,2023-10-20T12:15:47.346605Z,1697804147346
-1.9931608438491821,-2.4156582355499268,1.2118864059448242,2023-10-20T12:15:47.357587Z,1697804147357
-2.2879512310028076,-2.4530391693115234,1.1117162704467773,2023-10-20T12:15:47.366854Z,1697804147366
-2.5686404705047607,-2.4682042598724365,0.9990414381027222,2023-10-20T12:15:47.377887Z,1697804147377
-2.8174033164978027,-2.456098794937134,0.8799812197685242,2023-10-20T12:15:47.390268Z,1697804147390
-3.015083074569702,-2.4136626720428467,0.7625173926353455,2023-10-20T12:15:47.398176Z,1697804147398
-3.1451845169067383,-2.340630292892456,0.656360924243927,2023-10-20T12:15:47.407148Z,1697804147407
-3.203051805496216,-2.2407262325286865,0.5678972005844116,2023-10-20T12:15:47.418194Z,1697804147418
-3.1986618041992188,-2.1221981048583984,0.49925464391708374,2023-10-20T12:15:47.427486Z,1697804147427
-3.1467809677124023,-1.9920965433120728,0.44803881645202637,2023-10-20T12:15:47.440032Z,1697804147440
-3.057119846343994,-1.8530821800231934,0.41092395782470703,2023-10-20T12:15:47.447936Z,1697804147447
-2.935133218765259,-1.7055538892745972,0.3836531937122345,2023-10-20T12:15:47.459319Z,1697804147459
-2.79093074798584,-1.552837610244751,0.3622356653213501,2023-10-20T12:15:47.468347Z,1697804147468
-2.639012575149536,-1.4011855125427246,0.34387776255607605,2023-10-20T12:15:47.478795Z,1697804147478
-2.487626552581787,-1.2565839290618896,0.3288455903530121,2023-10-20T12:15:47.490500Z,1697804147490
-2.3319835662841797,-1.1224915981292725,0.32126298546791077,2023-10-20T12:15:47.499289Z,1697804147499
-2.159712076187134,-1.0030322074890137,0.32738229632377625,2023-10-20T12:15:47.508489Z,1697804147508
-1.9626973867416382,-0.9039263129234314,0.35372185707092285,2023-10-20T12:15:47.519514Z,1697804147519
-1.7358843088150024,-0.8310268521308899,0.4045386016368866,2023-10-20T12:15:47.528768Z,1697804147528
-1.4739519357681274,-0.7868615388870239,0.4802316427230835,2023-10-20T12:15:47.540469Z,1697804147540
-1.1719779968261719,-0.767306387424469,0.5754798054695129,2023-10-20T12:15:47.549455Z,1697804147549
-0.8311598896980286,-0.763714611530304,0.6801729202270508,2023-10-20T12:15:47.560327Z,1697804147560
-0.4658645987510681,-0.7642467617988586,0.7806091904640198,2023-10-20T12:15:47.573574Z,1697804147573
-0.10056928545236588,-0.7593246698379517,0.8638848066329956,2023-10-20T12:15:47.580367Z,1697804147580
0.23186807334423065,-0.7446916103363037,0.9202887415885925,2023-10-20T12:15:47.590072Z,1697804147590
0.4999198019504547,-0.7202144265174866,0.9448989629745483,2023-10-20T12:15:47.600544Z,1697804147600
0.6817692518234253,-0.6884207129478455,0.9393118023872375,2023-10-20T12:15:47.610044Z,1697804147609
0.7691687941551208,-0.6519709825515747,0.9099125862121582,2023-10-20T12:15:47.623977Z,1697804147623
0.7654439806938171,-0.6137918829917908,0.8662793040275574,2023-10-20T12:15:47.630310Z,1697804147630
0.6787096261978149,-0.5769430994987488,0.8178570866584778,2023-10-20T12:15:47.641619Z,1697804147641
0.522268533706665,-0.5443512201309204,0.7727605104446411,2023-10-20T12:15:47.650492Z,1697804147650
0.3123500943183899,-0.5185437202453613,0.7376410961151123,2023-10-20T12:15:47.661534Z,1697804147661
0.06624802201986313,-0.5005849599838257,0.7170217633247375,2023-10-20T12:15:47.673585Z,1697804147673
-0.20153765380382538,-0.4922041594982147,0.7132969498634338,2023-10-20T12:15:47.681870Z,1697804147681
-0.47890135645866394,-0.49433261156082153,0.7269988656044006,2023-10-20T12:15:47.691091Z,1697804147691
-0.7541366219520569,-0.5085666179656982,0.7577283382415771,2023-10-20T12:15:47.701892Z,1697804147701
-1.0124772787094116,-0.5347731709480286,0.8052194118499756,2023-10-20T12:15:47.710850Z,1697804147710
-1.2358314990997314,-0.5724201202392578,0.8686738610267639,2023-10-20T12:15:47.723847Z,1697804147723
-1.4022496938705444,-0.6215075254440308,0.9451650381088257,2023-10-20T12:15:47.731631Z,1697804147731
-1.4875208139419556,-0.6844298243522644,1.0320323705673218,2023-10-20T12:15:47.742767Z,1697804147742
-1.4611811637878418,-0.7610540390014648,1.1279456615447998,2023-10-20T12:15:47.751577Z,1697804147751
-1.2851849794387817,-0.8463250994682312,1.2326388359069824,2023-10-20T12:15:47.764110Z,1697804147764
-0.9206878542900085,-0.9298667907714844,1.343717336654663,2023-10-20T12:15:47.773578Z,1697804147773
-0.33895573019981384,-0.9987753629684448,1.45413076877594,2023-10-20T12:15:47.782769Z,1697804147782
0.45615354180336,-1.0392159223556519,1.5513743162155151,2023-10-20T12:15:47.792366Z,1697804147792
1.426460862159729,-1.040147066116333,1.6213470697402954,2023-10-20T12:15:47.807167Z,1697804147807
2.500796318054199,-0.9985092878341675,1.651544451713562,2023-10-20T12:15:47.812706Z,1697804147812
3.5941545963287354,-0.9210869073867798,1.635581135749817,2023-10-20T12:15:47.824264Z,1697804147824
4.616343021392822,-0.8214488625526428,1.575053334236145,2023-10-20T12:15:47.832488Z,1697804147832
5.200336456298828,-0.7136960625648499,1.4712913036346436,2023-10-20T12:15:47.843642Z,1697804147843
5.758788585662842,-0.6119294762611389,1.3514330387115479,2023-10-20T12:15:47.856178Z,1697804147856
6.12328577041626,-0.5224015712738037,1.2197351455688477,2023-10-20T12:15:47.863683Z,1697804147863
6.32602071762085,-0.4479057788848877,1.08364737033844,2023-10-20T12:15:47.873210Z,1697804147873
6.397058010101318,-0.3887082636356354,0.9459632039070129,2023-10-20T12:15:47.883713Z,1697804147883
6.349833011627197,-0.3430795967578888,0.8097423911094666,2023-10-20T12:15:47.893291Z,1697804147893
6.194589138031006,-0.30796018242836,0.6830995678901672,2023-10-20T12:15:47.905067Z,1697804147905
5.951014518737793,-0.2776297628879547,0.5772091746330261,2023-10-20T12:15:47.914069Z,1697804147914
5.653031349182129,-0.24610207974910736,0.5001858472824097,2023-10-20T12:15:47.924649Z,1697804147924
5.336025238037109,-0.20885419845581055,0.4545572102069855,2023-10-20T12:15:47.934083Z,1697804147934
5.021147727966309,-0.16548702120780945,0.4380617141723633,2023-10-20T12:15:47.944936Z,1697804147944
4.932151794433594,-0.1174638569355011,0.4457773268222809,2023-10-20T12:15:47.954835Z,1697804147954
4.621264934539795,-0.06678013503551483,0.4707866311073303,2023-10-20T12:15:47.965500Z,1697804147965
4.349621295928955,-0.013834928162395954,0.5065711736679077,2023-10-20T12:15:47.974644Z,1697804147974
4.110836029052734,0.04044055938720703,0.5478099584579468,2023-10-20T12:15:47.986054Z,1697804147986
3.8856194019317627,0.09458301961421967,0.5933055877685547,2023-10-20T12:15:47.995257Z,1697804147995
3.66159987449646,0.14899152517318726,0.6439892649650574,2023-10-20T12:15:48.005409Z,1697804148005
3.446892499923706,0.2052624374628067,0.7015904784202576,2023-10-20T12:15:48.015377Z,1697804148015
3.2627813816070557,0.26379483938217163,0.767306387424469,2023-10-20T12:15:48.026232Z,1697804148026
3.124831199645996,0.32179510593414307,0.8392745852470398,2023-10-20T12:15:48.037976Z,1697804148037
3.0354363918304443,0.37394213676452637,0.9137703776359558,2023-10-20T12:15:48.046100Z,1697804148046
2.9952619075775146,0.41451573371887207,0.9853395223617554,2023-10-20T12:15:48.055409Z,1697804148055
3.008298635482788,0.43925896286964417,1.0497251749038696,2023-10-20T12:15:48.066084Z,1697804148066
3.0737485885620117,0.44471311569213867,1.1053309440612793,2023-10-20T12:15:48.075733Z,1697804148075
3.1824324131011963,0.4292818605899811,1.1530879735946655,2023-10-20T12:15:48.088506Z,1697804148088
3.319185495376587,0.39442846179008484,1.195124864578247,2023-10-20T12:15:48.096221Z,1697804148096
3.4655163288116455,0.3434786796569824,1.2330379486083984,2023-10-20T12:15:48.107003Z,1697804148106
3.6004068851470947,0.28029030561447144,1.2657629251480103,2023-10-20T12:15:48.116499Z,1697804148116
3.7043018341064453,0.20925328135490417,1.2903730869293213,2023-10-20T12:15:48.127448Z,1697804148127
3.757779121398926,0.1350235790014267,1.3022125959396362,2023-10-20T12:15:48.138140Z,1697804148138
3.739288330078125,0.0647847130894661,1.2967584133148193,2023-10-20T12:15:48.147352Z,1697804148147
3.6325998306274414,0.00611929502338171,1.271882176399231,2023-10-20T12:15:48.157203Z,1697804148157
3.4375805854797363,-0.035651545971632004,1.2283819913864136,2023-10-20T12:15:48.167780Z,1697804148167
3.1727213859558105,-0.05986266955733299,1.1702486276626587,2023-10-20T12:15:48.177024Z,1697804148176
2.8683531284332275,-0.07037189602851868,1.102271318435669,2023-10-20T12:15:48.188398Z,1697804148188
2.55533766746521,-0.07316548377275467,1.0293718576431274,2023-10-20T12:15:48.197742Z,1697804148197
2.2568225860595703,-0.0730324536561966,0.9548760652542114,2023-10-20T12:15:48.208616Z,1697804148208
1.9802570343017578,-0.07196822762489319,0.8791830539703369,2023-10-20T12:15:48.217694Z,1697804148217
1.7208521366119385,-0.06957372277975082,0.8008294701576233,2023-10-20T12:15:48.228591Z,1697804148228
1.4771445989608765,-0.06305534392595291,0.7049161791801453,2023-10-20T12:15:48.238266Z,1697804148238
1.218803882598877,-0.04948647320270538,0.61592036485672,2023-10-20T12:15:48.249177Z,1697804148249
0.9507521986961365,-0.02514232136309147,0.533176839351654,2023-10-20T12:15:48.258030Z,1697804148257
0.7059804201126099,0.011839505285024643,0.4356671869754791,2023-10-20T12:15:48.273372Z,1697804148273
0.48661696910858154,0.05999569594860077,0.3434786796569824,2023-10-20T12:15:48.278559Z,1697804148278
0.3018408715724945,0.11706477403640747,0.2624645531177521,2023-10-20T12:15:48.290613Z,1697804148290
0.15617504715919495,0.18025314807891846,0.1975468099117279,2023-10-20T12:15:48.299232Z,1697804148299
0.051348865032196045,0.24716630578041077,0.1525832861661911,2023-10-20T12:15:48.309642Z,1697804148309
-0.011706477031111717,0.3160748779773712,0.12930336594581604,2023-10-20T12:15:48.322579Z,1697804148322
-0.03485337644815445,0.38564860820770264,0.12744097411632538,2023-10-20T12:15:48.330349Z,1697804148330
-0.022747814655303955,0.4550893008708954,0.14513371884822845,2023-10-20T12:15:48.340128Z,1697804148340
0.019688166677951813,0.5235987901687622,0.17958800494670868,2023-10-20T12:15:48.350364Z,1697804148350
0.08686738461256027,0.5887826085090637,0.2272120863199234,2023-10-20T12:15:48.359139Z,1697804148359
0.17160631716251373,0.6474480032920837,0.28414812684059143,2023-10-20T12:15:48.373406Z,1697804148373
0.26472601294517517,0.6960033178329468,0.3453410863876343,2023-10-20T12:15:48.380108Z,1697804148380
0.35917600989341736,0.7309896945953369,0.40467163920402527,2023-10-20T12:15:48.390983Z,1697804148390
0.4479057788848877,0.7516090869903564,0.455488383769989,2023-10-20T12:15:48.400539Z,1697804148400
0.5238648653030396,0.7589256167411804,0.49153903126716614,2023-10-20T12:15:48.411345Z,1697804148411
0.5825302600860596,0.7553338408470154,0.5076354146003723,2023-10-20T12:15:48.422594Z,1697804148422
0.6193791031837463,0.744159460067749,0.5003188848495483,2023-10-20T12:15:48.431693Z,1697804148431
0.6301543712615967,0.7296594381332397,0.46852514147758484,2023-10-20T12:15:48.441275Z,1697804148441
0.6115304231643677,0.7156914472579956,0.4126533269882202,2023-10-20T12:15:48.451726Z,1697804148451
0.5672320127487183,0.7051822543144226,0.3364281952381134,2023-10-20T12:15:48.460962Z,1697804148460
0.5071033239364624,0.6989299058914185,0.24450574815273285,2023-10-20T12:15:48.471750Z,1697804148471
0.4419195353984833,0.697333574295044,0.14247314631938934,2023-10-20T12:15:48.481632Z,1697804148481
0.3780660033226013,0.7017235159873962,0.035651545971632004,2023-10-20T12:15:48.492216Z,1697804148492
0.3171391189098358,0.7151593565940857,-0.07156914472579956,2023-10-20T12:15:48.501341Z,1697804148501
0.25927186012268066,0.7414989471435547,-0.17479899525642395,2023-10-20T12:15:48.512292Z,1697804148512
0.20699180662631989,0.7831367254257202,-0.2693819999694824,2023-10-20T12:15:48.522380Z,1697804148522
0.16442279517650604,0.8398067355155945,-0.3511943221092224,2023-10-20T12:15:48.532410Z,1697804148532
0.13236300647258759,0.9105777144432068,-0.41957080364227295,2023-10-20T12:15:48.541796Z,1697804148541
0.10655555129051208,0.9946514964103699,-0.4763738214969635,2023-10-20T12:15:48.554544Z,1697804148554
0.08074808865785599,1.089633584022522,-0.5261263251304626,2023-10-20T12:15:48.562478Z,1697804148562
0.05281217768788338,1.1896708011627197,-0.5732182860374451,2023-10-20T12:15:48.573692Z,1697804148573
0.025940489023923874,1.2887767553329468,-0.6212414503097534,2023-10-20T12:15:48.582949Z,1697804148582
0.0011972533538937569,1.3848230838775635,-0.6732555031776428,2023-10-20T12:15:48.593706Z,1697804148593
-0.024344151839613914,1.4782087802886963,-0.7315217852592468,2023-10-20T12:15:48.606214Z,1697804148606
-0.05547273904085159,1.567470669746399,-0.7984349727630615,2023-10-20T12:15:48.614039Z,1697804148614
-0.09192245453596115,1.6498150825500488,-0.8735958933830261,2023-10-20T12:15:48.622509Z,1697804148622
-0.13089969754219055,1.7223154306411743,-0.9554082155227661,2023-10-20T12:15:48.634266Z,1697804148634
-0.17267054319381714,1.7848386764526367,-1.0430737733840942,2023-10-20T12:15:48.643028Z,1697804148642
-0.2201615869998932,1.8371187448501587,-1.1377897262573242,2023-10-20T12:15:48.656330Z,1697804148656
-0.2749691903591156,1.8776923418045044,-1.2436802387237549,2023-10-20T12:15:48.663502Z,1697804148663
-0.33722636103630066,1.905096173286438,-1.3692587614059448,2023-10-20T12:15:48.674835Z,1697804148674
-0.4101257920265198,1.9207935333251953,-1.5308879613876343,2023-10-20T12:15:48.684088Z,1697804148684
-0.5021812915802002,1.9299724102020264,-1.7539762258529663,2023-10-20T12:15:48.694812Z,1697804148694
-0.6243011355400085,1.9406147003173828,-2.069918155670166,2023-10-20T12:15:48.706094Z,1697804148706
-0.7819395065307617,1.9568440914154053,-2.5058512687683105,2023-10-20T12:15:48.714922Z,1697804148714
-0.9653853178024292,1.9726744890213013,-3.0706887245178223,2023-10-20T12:15:48.724563Z,1697804148724
-1.1463035345077515,1.969614863395691,-3.7482011318206787,2023-10-20T12:15:48.735074Z,1697804148735
-1.2802629470825195,1.9226559400558472,-4.489567279815674,2023-10-20T12:15:48.744403Z,1697804148744
-1.3216346502304077,1.8158342838287354,-5.220423698425293,2023-10-20T12:15:48.756380Z,1697804148756
-1.2370288372039795,1.6424986124038696,-5.522131443023682,2023-10-20T12:15:48.764873Z,1697804148764
-1.0354911088943481,1.4405618906021118,-5.929330825805664,2023-10-20T12:15:48.775705Z,1697804148775
-0.7379071712493896,1.2173405885696411,-6.187804698944092,2023-10-20T12:15:48.785035Z,1697804148785
-0.3984193205833435,0.9880000948905945,-6.311121463775635,2023-10-20T12:15:48.795984Z,1697804148795
-0.05906450003385544,0.7615861892700195,-6.319635391235352,2023-10-20T12:15:48.805833Z,1697804148805
0.27297377586364746,0.5396952033042908,-6.228511333465576,2023-10-20T12:15:48.816241Z,1697804148816
0.597296416759491,0.318203330039978,-6.033491611480713,2023-10-20T12:15:48.825788Z,1697804148825
0.9079171419143677,0.09045914560556412,-5.715820789337158,2023-10-20T12:15:48.839418Z,1697804148839
1.1929965019226074,-0.14739519357681274,-5.25886869430542,2023-10-20T12:15:48.845971Z,1697804148845
1.451470136642456,-0.39003854990005493,-4.87282133102417,2023-10-20T12:15:48.856881Z,1697804148856
1.666975736618042,-0.6241680979728699,-4.115757942199707,2023-10-20T12:15:48.866181Z,1697804148866
1.8353893756866455,-0.8356828689575195,-3.3561673164367676,2023-10-20T12:15:48.877036Z,1697804148877
1.9503257274627686,-1.0150047540664673,-2.665485143661499,2023-10-20T12:15:48.889095Z,1697804148889
2.0107204914093018,-1.15774405002594,-2.085881471633911,2023-10-20T12:15:48.897789Z,1697804148897
2.023491144180298,-1.2623041868209839,-1.6275994777679443,2023-10-20T12:15:48.906653Z,1697804148906
2.0011425018310547,-1.3288182020187378,-1.2859832048416138,2023-10-20T12:15:48.917920Z,1697804148917
1.951922059059143,-1.3558229207992554,-1.0654224157333374,2023-10-20T12:15:48.926550Z,1697804148926
1.87503182888031,-1.3453136682510376,-0.9793532490730286,2023-10-20T12:15:48.937614Z,1697804148937
1.7743295431137085,-1.3050061464309692,-1.0204589366912842,2023-10-20T12:15:48.947259Z,1697804148947
1.6644482612609863,-1.2451435327529907,-1.1530879735946655,2023-10-20T12:15:48.958103Z,1697804148958
1.5590898990631104,-1.172377109527588,-1.333341121673584,2023-10-20T12:15:48.967281Z,1697804148967
1.4571903944015503,-1.0888354778289795,-1.5335485935211182,2023-10-20T12:15:48.978780Z,1697804148978
1.352763295173645,-0.9945184588432312,-1.7305632829666138,2023-10-20T12:15:48.988876Z,1697804148988
1.2475379705429077,-0.8896923065185547,-1.8953851461410522,2023-10-20T12:15:48.998684Z,1697804148998
1.1480329036712646,-0.7754210829734802,-2.0028717517852783,2023-10-20T12:15:49.007850Z,1697804149007
1.0553122758865356,-0.6539663672447205,-2.046372175216675,2023-10-20T12:15:49.018716Z,1697804149018
0.9639219641685486,-0.5289199352264404,-2.0365278720855713,2023-10-20T12:15:49.028141Z,1697804149028
0.8688068389892578,-0.4068000912666321,-1.9881057739257812,2023-10-20T12:15:49.038994Z,1697804149038
0.7732926607131958,-0.29452434182167053,-1.9124127626419067,2023-10-20T12:15:49.049018Z,1697804149048
0.6860261559486389,-0.19555138051509857,-1.8157012462615967,2023-10-20T12:15:49.059856Z,1697804149059
0.6137918829917908,-0.11067942529916763,-1.700631856918335,2023-10-20T12:15:49.072159Z,1697804149072
0.5567228198051453,-0.03791302442550659,-1.567470669746399,2023-10-20T12:15:49.079685Z,1697804149079
0.5104290246963501,0.023679010570049286,-1.4183461666107178,2023-10-20T12:15:49.089278Z,1697804149089
0.47012150287628174,0.07422970980405807,-1.2587124109268188,2023-10-20T12:15:49.100210Z,1697804149100
0.4331396520137787,0.11440420895814896,-1.0961519479751587,2023-10-20T12:15:49.109283Z,1697804149109
0.39762115478515625,0.14553280174732208,-0.9358530640602112,2023-10-20T12:15:49.122669Z,1697804149122
0.3632998764514923,0.1696108877658844,-0.7779486179351807,2023-10-20T12:15:49.130103Z,1697804149130
0.3313731253147125,0.18836785852909088,-0.6201772689819336,2023-10-20T12:15:49.141063Z,1697804149140
0.30436840653419495,0.20379912853240967,-0.4616076946258545,2023-10-20T12:15:49.150072Z,1697804149150
0.2838820815086365,0.21816617250442505,-0.30436840653419495,2023-10-20T12:15:49.160660Z,1697804149160
0.26818475127220154,0.2321341186761856,-0.15378054976463318,2023-10-20T12:15:49.172354Z,1697804149172
0.25341862440109253,0.2458360195159912,-0.01556429360061884,2023-10-20T12:15:49.180791Z,1697804149180
0.23452863097190857,0.25834065675735474,0.10615646839141846,2023-10-20T12:15:49.190661Z,1697804149190
0.20765694975852966,0.26858383417129517,0.2091202586889267,2023-10-20T12:15:49.201386Z,1697804149201
0.1706751137971878,0.27576735615730286,0.29173073172569275,2023-10-20T12:15:49.210660Z,1697804149210
0.12424829602241516,0.2798912227153778,0.3522585332393646,2023-10-20T12:15:49.222345Z,1697804149222
0.07170217484235764,0.28135454654693604,0.3908367156982422,2023-10-20T12:15:49.231585Z,1697804149231
0.015963377431035042,0.28082242608070374,0.40972670912742615,2023-10-20T12:15:49.241755Z,1697804149241
-0.041637811809778214,0.2776297628879547,0.41358453035354614,2023-10-20T12:15:49.250823Z,1697804149250
-0.10176653414964676,0.27097833156585693,0.4060019254684448,2023-10-20T12:15:49.262510Z,1697804149262
-0.16615216434001923,0.2607351839542389,0.39057064056396484,2023-10-20T12:15:49.272022Z,1697804149271
-0.23506075143814087,0.24902869760990143,0.3716806471347809,2023-10-20T12:15:49.282711Z,1697804149282
-0.30875834822654724,0.2382534146308899,0.3533227741718292,2023-10-20T12:15:49.291479Z,1697804149291
-0.3875110149383545,0.22920750081539154,0.33829060196876526,2023-10-20T12:15:49.305956Z,1697804149305
-0.4726490378379822,0.22056066989898682,0.3267171382904053,2023-10-20T12:15:49.311987Z,1697804149311
-0.5637733340263367,0.21164779365062714,0.318203330039978,2023-10-20T12:15:49.322906Z,1697804149322
-0.6596866250038147,0.20326702296733856,0.31101980805397034,2023-10-20T12:15:49.332476Z,1697804149332
-0.7597237825393677,0.19448715448379517,0.30263903737068176,2023-10-20T12:15:49.342999Z,1697804149342
-0.8644169569015503,0.18251462280750275,0.2892031967639923,2023-10-20T12:15:49.355234Z,1697804149355
-0.974564254283905,0.16402371227741241,0.2667214572429657,2023-10-20T12:15:49.363123Z,1697804149363
-1.0898996591567993,0.13568872213363647,0.23000568151474,2023-10-20T12:15:49.373337Z,1697804149373
-1.209625005722046,0.09272062033414841,0.17147329449653625,2023-10-20T12:15:49.384011Z,1697804149383
-1.333341121673584,0.027403799816966057,0.08101414144039154,2023-10-20T12:15:49.393116Z,1697804149393
-1.459717869758606,-0.06651407480239868,-0.04842224717140198,2023-10-20T12:15:49.403630Z,1697804149403
-1.5844982862472534,-0.1894320845603943,-0.21484047174453735,2023-10-20T12:15:49.413381Z,1697804149413
-1.7020951509475708,-0.33842360973358154,-0.40813037753105164,2023-10-20T12:15:49.424318Z,1697804149424
-1.8081187009811401,-0.5100299119949341,-0.6148561239242554,2023-10-20T12:15:49.433853Z,1697804149433
-1.8981786966323853,-0.69773268699646,-0.8225130438804626,2023-10-20T12:15:49.444815Z,1697804149444
-1.9670872688293457,-0.8914216756820679,-1.0204589366912842,2023-10-20T12:15:49.454953Z,1697804149454
-2.0120508670806885,-1.0827161073684692,-1.2008451223373413,2023-10-20T12:15:49.464950Z,1697804149464
-2.0349316596984863,-1.270019769668579,-1.3615431785583496,2023-10-20T12:15:49.474064Z,1697804149473
-2.0387895107269287,-1.4535986185073853,-1.5042823553085327,2023-10-20T12:15:49.485139Z,1697804149485
-2.026683807373047,-1.6330535411834717,-1.6317232847213745,2023-10-20T12:15:49.494356Z,1697804149494
-2.0012755393981934,-1.8077195882797241,-1.7453293800354004,2023-10-20T12:15:49.505747Z,1697804149505
-1.96455979347229,-1.9777295589447021,-1.8453664779663086,2023-10-20T12:15:49.515100Z,1697804149515
-1.9183989763259888,-2.1426844596862793,-1.931967854499817,2023-10-20T12:15:49.526030Z,1697804149526
-1.8645225763320923,-2.3012540340423584,-2.0052664279937744,2023-10-20T12:15:49.538256Z,1697804149538
-1.806921362876892,-2.4530391693115234,-2.067922592163086,2023-10-20T12:15:49.546036Z,1697804149546
-1.7551734447479248,-2.6030948162078857,-2.123661518096924,2023-10-20T12:15:49.555075Z,1697804149555
-1.720054030418396,-2.758737802505493,-2.1738131046295166,2023-10-20T12:15:49.566404Z,1697804149566
-1.7058199644088745,-2.9197018146514893,-2.2110610008239746,2023-10-20T12:15:49.575179Z,1697804149575
-1.7088795900344849,-3.078005313873291,-2.222501277923584,2023-10-20T12:15:49.587332Z,1697804149587
-1.7177925109863281,-3.2220749855041504,-2.1942994594573975,2023-10-20T12:15:49.595242Z,1697804149595
-1.7175264358520508,-3.3416671752929688,-2.1172759532928467,2023-10-20T12:15:49.606670Z,1697804149606
-1.6906547546386719,-3.4230804443359375,-1.985578179359436,2023-10-20T12:15:49.616003Z,1697804149615
-1.6224113702774048,-3.4539430141448975,-1.7974764108657837,2023-10-20T12:15:49.627364Z,1697804149627
-1.5056126117706299,-3.428933620452881,-1.5590898990631104,2023-10-20T12:15:49.637104Z,1697804149637
-1.3406577110290527,-3.3477864265441895,-1.2807950973510742,2023-10-20T12:15:49.646420Z,1697804149646
-1.1363264322280884,-3.2184832096099854,-0.9789541959762573,2023-10-20T12:15:49.656251Z,1697804149656
-0.9085822701454163,-3.0577850341796875,-0.6743196845054626,2023-10-20T12:15:49.666964Z,1697804149666
-0.6772463321685791,-2.8872430324554443,-0.38604769110679626,2023-10-20T12:15:49.676742Z,1697804149676
-0.4594792425632477,-2.721622943878174,-0.12424829602241516,2023-10-20T12:15:49.689060Z,1697804149689
-0.270446240901947,-2.5715672969818115,0.1081518903374672,2023-10-20T12:15:49.697453Z,1697804149697
