ACC_X,ACC_Y,ACC_Z,DATE,UNIX_TIMESTAMP,norm
0.58282470703125,0.218902587890625,-0.2548763751983642,2023-10-20T11:53:00.661383Z,1697802780661,0.672729476643868
0.5892868041992188,0.2296235561370849,-0.2599384784698486,2023-10-20T11:53:00.681120Z,1697802780681,0.6837791512802868
0.606536865234375,0.2471466064453125,-0.2683045864105224,2023-10-20T11:53:00.701428Z,1697802780701,0.7077822864798878
0.6254110336303711,0.2676851749420166,-0.2758412361145019,2023-10-20T11:53:00.722163Z,1697802780722,0.7340863037896318
0.6373510360717773,0.287081241607666,-0.2787902355194092,2023-10-20T11:53:00.741981Z,1697802780741,0.752566261458574
0.6371135711669922,0.3021368980407715,-0.2750935554504394,2023-10-20T11:53:00.762311Z,1697802780762,0.7568863005585592
0.6220159530639648,0.3105502128601074,-0.2640087604522705,2023-10-20T11:53:00.782899Z,1697802780782,0.7436705629303038
0.5900964736938477,0.3101620674133301,-0.2453672885894775,2023-10-20T11:53:00.803214Z,1697802780803,0.7103657245657176
0.5405445098876953,0.2991271018981933,-0.2196524143218994,2023-10-20T11:53:00.823662Z,1697802780823,0.65567718686651
0.4749965667724609,0.2767815589904785,-0.1884334087371826,2023-10-20T11:53:00.843994Z,1697802780843,0.5811513738873365
0.4009418487548828,0.2460522651672363,-0.1553218364715576,2023-10-20T11:53:00.865738Z,1697802780865,0.49539979426904146
0.3278732299804687,0.2119898796081543,-0.1242015361785888,2023-10-20T11:53:00.884005Z,1697802780883,0.40971524939063025
0.2650504112243652,0.1806206703186035,-0.0983991622924804,2023-10-20T11:53:00.904783Z,1697802780904,0.33549656060294963
0.2212810516357422,0.1588907241821289,-0.0807244777679443,2023-10-20T11:53:00.925124Z,1697802780925,0.28412674523009745
0.2028532028198242,0.1532506942749023,-0.0728895664215087,2023-10-20T11:53:00.945204Z,1697802780945,0.2644770048286161
0.2127528190612793,0.1686000823974609,-0.0754354000091552,2023-10-20T11:53:00.965141Z,1697802780965,0.2817450077241712
0.2498526573181152,0.2068371772766113,-0.0875239372253418,2023-10-20T11:53:00.985601Z,1697802780985,0.33595893775892527
0.3102545738220215,0.2668995857238769,-0.1074481010437011,2023-10-20T11:53:01.006019Z,1697802781005,0.4231292755824852
0.3889880180358886,0.3455066680908203,-0.1331017017364502,2023-10-20T11:53:01.029474Z,1697802781029,0.5370312829583096
0.4785261154174804,0.4355931282043457,-0.1614813804626464,2023-10-20T11:53:01.046339Z,1697802781046,0.6669369180900944
0.5679168701171875,0.5256295204162598,-0.188554048538208,2023-10-20T11:53:01.066570Z,1697802781066,0.7964725942032648
0.6444153785705566,0.6015748977661133,-0.2101073265075683,2023-10-20T11:53:01.087659Z,1697802781087,0.9062607938185903
0.6957182884216309,0.6499629020690918,-0.2226922512054443,2023-10-20T11:53:01.107752Z,1697802781107,0.9777870676468103
0.7110958099365234,0.6602077484130859,-0.2240400314331054,2023-10-20T11:53:01.129249Z,1697802781129,0.9958541347298326
0.6831259727478027,0.6268324851989746,-0.2131905555725097,2023-10-20T11:53:01.147852Z,1697802781147,0.9513307900665624
0.6073389053344727,0.5485177040100098,-0.1894519329071045,2023-10-20T11:53:01.168460Z,1697802781168,0.8400144358447218
0.4847402572631836,0.4293751716613769,-0.1526834964752197,2023-10-20T11:53:01.188410Z,1697802781188,0.6653182735704114
0.3214211463928222,0.2783260345458984,-0.1033518314361572,2023-10-20T11:53:01.208600Z,1697802781208,0.43755975125201874
0.1277198791503906,0.1077699661254882,-0.0424418449401855,2023-10-20T11:53:01.228955Z,1697802781228,0.17241822215417374
-0.0811843872070312,-0.0665435791015625,0.0282526016235351,2023-10-20T11:53:01.249318Z,1697802781249,0.10870677138212345
-0.2890944480895996,-0.2295508384704589,0.1066646575927734,2023-10-20T11:53:01.269868Z,1697802781269,0.3842480143580504
-0.4829015731811523,-0.37091064453125,0.1906626224517822,2023-10-20T11:53:01.290122Z,1697802781290,0.6380602410490799
-0.6505303382873535,-0.4832515716552734,0.2759294509887695,2023-10-20T11:53:01.312643Z,1697802781312,0.856071763617113
-0.7803206443786621,-0.5605621337890625,0.3548052310943603,2023-10-20T11:53:01.329523Z,1697802781329,1.0242152927454264
-0.8635635375976562,-0.5990891456604004,0.4175977706909179,2023-10-20T11:53:01.350660Z,1697802781350,1.1309454832140724
-0.8967304229736328,-0.5995011329650879,0.4560940265655517,2023-10-20T11:53:01.371251Z,1697802781371,1.1711314277149567
-0.8834147453308105,-0.5683636665344238,0.4673507213592529,2023-10-20T11:53:01.391158Z,1697802781391,1.1497284751015644
-0.8312892913818359,-0.5148019790649414,0.4531857967376709,2023-10-20T11:53:01.412453Z,1697802781412,1.0777014104008833
-0.7514462471008301,-0.44915771484375,0.4195382595062256,2023-10-20T11:53:01.431332Z,1697802781431,0.97078651941356
-0.6572113037109375,-0.381082534790039,0.3743002414703369,2023-10-20T11:53:01.452162Z,1697802781452,0.8469068820196137
-0.5589909553527832,-0.3162329196929931,0.3238778114318847,2023-10-20T11:53:01.472094Z,1697802781472,0.7192850508676513
-0.4578185081481933,-0.2539165019989013,0.2690324783325195,2023-10-20T11:53:01.495478Z,1697802781495,0.5885999072274247
-0.3507065773010254,-0.191554307937622,0.2085070610046386,2023-10-20T11:53:01.512813Z,1697802781512,0.4507364537514727
-0.2397470474243164,-0.1297807693481445,0.1441488265991211,2023-10-20T11:53:01.533208Z,1697802781533,0.3083838177518029
-0.1300978660583496,-0.0704507827758789,0.0792303085327148,2023-10-20T11:53:01.553190Z,1697802781553,0.16782791584494974
-0.0243639945983886,-0.0133376121520996,0.0150518417358398,2023-10-20T11:53:01.573128Z,1697802781573,0.031591993769797315
0.0808925628662109,0.0452151298522949,-0.050692081451416,2023-10-20T11:53:01.595202Z,1697802781595,0.1056300232722722
0.1920428276062011,0.1105198860168457,-0.1217198371887207,2023-10-20T11:53:01.613873Z,1697802781613,0.252805877315798
0.315371036529541,0.1877956390380859,-0.2007818222045898,2023-10-20T11:53:01.634023Z,1697802781633,0.4183771418842522
0.4556307792663574,0.2810316085815429,-0.2883849143981933,2023-10-20T11:53:01.654924Z,1697802781654,0.608065811314245
0.6161737442016602,0.3930897712707519,-0.3831562995910644,2023-10-20T11:53:01.674713Z,1697802781674,0.8252262727503908
0.7953786849975586,0.5236163139343262,-0.4808230400085449,2023-10-20T11:53:01.695417Z,1697802781695,1.0667671219950843
0.9877328872680664,0.6692142486572266,-0.5755887031555176,2023-10-20T11:53:01.715348Z,1697802781715,1.3246759310854175
1.1871862411499023,0.8249449729919434,-0.6620616912841797,2023-10-20T11:53:01.735883Z,1697802781735,1.5900537923939493
1.3856964111328125,0.9831748008728028,-0.7345507144927979,2023-10-20T11:53:01.756058Z,1697802781756,1.8510407842777294
1.5747017860412598,1.1355352401733398,-0.7888529300689697,2023-10-20T11:53:01.778631Z,1697802781778,2.095570314237978
1.747020244598389,1.2744197845458984,-0.8233737945556641,2023-10-20T11:53:01.796844Z,1697802781796,2.313907934175347
1.895406723022461,1.3924565315246582,-0.8382489681243896,2023-10-20T11:53:01.816368Z,1697802781816,2.496830625097752
2.0107154846191406,1.4828553199768066,-0.8347082138061523,2023-10-20T11:53:01.836852Z,1697802781836,2.634117397206541
2.082467555999756,1.5398025512695312,-0.8143301010131836,2023-10-20T11:53:01.857091Z,1697802781857,2.714921091321789
2.1021671295166016,1.5586743354797363,-0.7786111831665039,2023-10-20T11:53:01.878910Z,1697802781878,2.7303493730757626
2.0685291290283203,1.5386028289794922,-0.7297828197479248,2023-10-20T11:53:01.897363Z,1697802781897,2.679308565093164
1.987237930297852,1.4827923774719238,-0.6706154346466064,2023-10-20T11:53:01.917688Z,1697802781917,2.568562416506476
1.8699626922607424,1.398547649383545,-0.6047561168670654,2023-10-20T11:53:01.937929Z,1697802781937,2.412141363795127
1.7301340103149414,1.295395851135254,-0.5366001129150391,2023-10-20T11:53:01.958115Z,1697802781958,2.2269606610731416
1.5761194229125977,1.180559158325195,-0.4691751003265381,2023-10-20T11:53:01.978119Z,1697802781978,2.024351164288017
1.407057762145996,1.0547428131103516,-0.4029042720794678,2023-10-20T11:53:01.998923Z,1697802781998,1.8040581477001019
1.2201147079467771,0.9162921905517578,-0.3371407985687256,2023-10-20T11:53:02.019262Z,1697802782019,1.5626692538965967
1.0189619064331057,0.7667584419250488,-0.2725141048431396,2023-10-20T11:53:02.039486Z,1697802782039,1.3040190996927827
0.8123311996459961,0.6112627983093262,-0.2107868194580078,2023-10-20T11:53:02.061595Z,1697802782061,1.0382462471747604
0.6088981628417969,0.4566097259521484,-0.153759479522705,2023-10-20T11:53:02.080174Z,1697802782080,0.7764608116893631
0.4133729934692383,0.3076763153076172,-0.1020467281341552,2023-10-20T11:53:02.100723Z,1697802782100,0.5253146499517003
0.2282476425170898,0.1679768562316894,-0.0555126667022705,2023-10-20T11:53:02.120334Z,1697802782120,0.2887816938597186
0.0539541244506835,0.0391530990600585,-0.0131044387817382,2023-10-20T11:53:02.140545Z,1697802782140,0.0679392303976938
-0.1089715957641601,-0.0778312683105468,0.0269004106521606,2023-10-20T11:53:02.161586Z,1697802782161,0.13658750712810713
-0.2572112083435058,-0.1804509162902832,0.0657597780227661,2023-10-20T11:53:02.181557Z,1697802782181,0.32100543187480896
-0.3831996917724609,-0.2633485794067383,0.1029474735260009,2023-10-20T11:53:02.202048Z,1697802782202,0.4762275300268169
-0.4796600341796875,-0.3219962120056152,0.1364984512329101,2023-10-20T11:53:02.221603Z,1697802782221,0.5936220482126714
-0.5447239875793457,-0.3566298484802246,0.1645278930664062,2023-10-20T11:53:02.244915Z,1697802782244,0.6715493273529816
-0.5809321403503418,-0.3710103034973144,0.1857683658599853,2023-10-20T11:53:02.261892Z,1697802782261,0.713891226131466
-0.5917820930480957,-0.3691573143005371,0.1993381977081298,2023-10-20T11:53:02.281965Z,1697802782281,0.7254094605252237
-0.5798130035400391,-0.354154109954834,0.2045583724975586,2023-10-20T11:53:02.302971Z,1697802782302,0.7095437833078886
-0.5494227409362793,-0.32989501953125,0.2019717693328857,2023-10-20T11:53:02.322945Z,1697802782322,0.6719290645424665
-0.5057916641235352,-0.2999296188354492,0.1926531791687011,2023-10-20T11:53:02.344763Z,1697802782344,0.6187877109279405
-0.4535198211669922,-0.266728401184082,0.1778547763824463,2023-10-20T11:53:02.363282Z,1697802782363,0.5553886834205457
-0.3954930305480957,-0.2315049171447754,0.1585686206817627,2023-10-20T11:53:02.383948Z,1697802782383,0.48492604728890676
-0.3334684371948242,-0.1948184967041015,0.1357402801513672,2023-10-20T11:53:02.404229Z,1697802782404,0.4093664237804269
-0.2693500518798828,-0.1574549674987793,0.1107470989227294,2023-10-20T11:53:02.424394Z,1697802782424,0.3310686290749065
-0.205754280090332,-0.1206808090209961,0.0852377414703369,2023-10-20T11:53:02.444690Z,1697802782444,0.25330644289559023
-0.1449227333068847,-0.0855412483215332,0.0604927539825439,2023-10-20T11:53:02.464772Z,1697802782464,0.1788275064914154
-0.0883293151855468,-0.0526213645935058,0.0371875762939453,2023-10-20T11:53:02.485500Z,1697802782485,0.10933431192195951
-0.0370674133300781,-0.0223417282104492,0.0157501697540283,2023-10-20T11:53:02.505728Z,1697802782505,0.046056636847398455
0.0092577934265136,0.0056538581848144,-0.0039677619934082,2023-10-20T11:53:02.528208Z,1697802782528,0.011550583826730397
0.0519189834594726,0.0321559906005859,-0.0224201679229736,2023-10-20T11:53:02.545819Z,1697802782545,0.06505576457674056
0.0921926498413086,0.0579757690429687,-0.040097951889038,2023-10-20T11:53:02.565873Z,1697802782565,0.11605395394634942
0.1296124458312988,0.0829443931579589,-0.0567972660064697,2023-10-20T11:53:02.586392Z,1697802782586,0.16402770466150865
0.163093090057373,0.1065936088562011,-0.0721113681793212,2023-10-20T11:53:02.606624Z,1697802782606,0.2077537072933833
0.1923122406005859,0.128939151763916,-0.0859003067016601,2023-10-20T11:53:02.628014Z,1697802782627,0.24695782116356443
0.2191047668457031,0.1513628959655761,-0.0988740921020507,2023-10-20T11:53:02.646977Z,1697802782646,0.28406638523169286
0.2450551986694336,0.1751866340637207,-0.1116552352905273,2023-10-20T11:53:02.667344Z,1697802782667,0.32126204057945373
0.2694311141967773,0.2002134323120117,-0.1238851547241211,2023-10-20T11:53:02.687695Z,1697802782687,0.35780731593483767
0.291264533996582,0.2259454727172851,-0.1351065635681152,2023-10-20T11:53:02.711271Z,1697802782711,0.3926068885346622
0.3109874725341797,0.2527484893798828,-0.1455123424530029,2023-10-20T11:53:02.728718Z,1697802782728,0.42634358065200173
0.329963207244873,0.2816972732543945,-0.1557047367095947,2023-10-20T11:53:02.749101Z,1697802782749,0.4609479763792094
0.3485226631164551,0.313138484954834,-0.165783405303955,2023-10-20T11:53:02.769195Z,1697802782769,0.49699888826814315
0.3652534484863281,0.3456568717956543,-0.1749188899993896,2023-10-20T11:53:02.789029Z,1697802782788,0.5324334444128493
0.3780088424682617,0.3764629364013672,-0.1817550659179687,2023-10-20T11:53:02.811303Z,1697802782811,0.563604410428964
0.3859815597534179,0.4033012390136719,-0.1855747699737548,2023-10-20T11:53:02.829485Z,1697802782829,0.5882785472125056
0.3891162872314453,0.4246425628662109,-0.1862883567810058,2023-10-20T11:53:02.850096Z,1697802782850,0.6053396922873436
0.3883509635925293,0.4403605461120605,-0.1843631267547607,2023-10-20T11:53:02.869822Z,1697802782869,0.6154052680974954
0.3853535652160644,0.4514613151550293,-0.1806390285491943,2023-10-20T11:53:02.890243Z,1697802782890,0.6204394796766538
0.3803181648254394,0.4576144218444824,-0.1752173900604248,2023-10-20T11:53:02.911282Z,1697802782911,0.6202854176553219
0.3714828491210937,0.4560651779174804,-0.1672229766845703,2023-10-20T11:53:02.931388Z,1697802782931,0.6115214449479892
0.3553805351257324,0.4418559074401855,-0.1552276611328125,2023-10-20T11:53:02.950912Z,1697802782950,0.5879010073701226
0.3285493850708008,0.4101953506469726,-0.1382834911346435,2023-10-20T11:53:02.971484Z,1697802782971,0.543440197301579
0.2903585433959961,0.3607501983642578,-0.1172201633453369,2023-10-20T11:53:02.994844Z,1697802782994,0.4776916955920454
0.2432680130004882,0.2981200218200683,-0.0941753387451171,2023-10-20T11:53:03.012116Z,1697802783012,0.3961361735400609
0.1912064552307129,0.2293672561645507,-0.0713036060333252,2023-10-20T11:53:03.031753Z,1697802783031,0.30700724902794213
0.1370954513549804,0.1599507331848144,-0.04960298538208,2023-10-20T11:53:03.052678Z,1697802783052,0.21642517410735826
0.0816435813903808,0.0921211242675781,-0.0288889408111572,2023-10-20T11:53:03.072883Z,1697802783072,0.12643791685946446
