ACC_X,ACC_Y,ACC_Z,DATE,UNIX_TIMESTAMP,norm
0.1607847213745117,0.0848703384399414,-0.0524969100952148,2023-10-21T15:56:26.661082Z,1697903786661,0.18923695871561297
0.1749677658081054,0.0941920280456543,-0.0575184822082519,2023-10-21T15:56:26.681354Z,1697903786681,0.2068676702986098
0.1897783279418945,0.1041483879089355,-0.0628321170806884,2023-10-21T15:56:26.701567Z,1697903786701,0.22541201253991033
0.2053298950195312,0.1147365570068359,-0.0684616565704345,2023-10-21T15:56:26.721832Z,1697903786721,0.24497314490140085
0.2190370559692382,0.1244611740112304,-0.0735485553741455,2023-10-21T15:56:26.742152Z,1697903786742,0.26244467173396513
0.2286405563354492,0.1319518089294433,-0.0773286819458007,2023-10-21T15:56:26.762412Z,1697903786762,0.2750772781103718
0.2335786819458007,0.13676118850708,-0.0795860290527343,2023-10-21T15:56:26.782609Z,1697903786782,0.28212862201802436
0.2345504760742187,0.139139175415039,-0.0804708003997802,2023-10-21T15:56:26.804912Z,1697903786804,0.2843399122156453
0.2314739227294922,0.1388940811157226,-0.0798642635345459,2023-10-21T15:56:26.823168Z,1697903786823,0.2815138420445347
0.2242240905761718,0.1358604431152343,-0.0776474475860595,2023-10-21T15:56:26.843447Z,1697903786843,0.27342938560953717
0.212956428527832,0.1301422119140625,-0.073904275894165,2023-10-21T15:56:26.863724Z,1697903786863,0.2602869143246645
0.1989030838012695,0.1225724220275878,-0.0691242218017578,2023-10-21T15:56:26.883970Z,1697903786883,0.24364850384737136
0.1832728385925293,0.1139459609985351,-0.0637767314910888,2023-10-21T15:56:26.904637Z,1697903786904,0.2250335238877297
0.1669387817382812,0.1048460006713867,-0.0582008361816406,2023-10-21T15:56:26.924496Z,1697903786924,0.20554458892728866
0.1522445678710937,0.0967206954956054,-0.0532050132751464,2023-10-21T15:56:26.944809Z,1697903786944,0.18805338290235085
0.1415324211120605,0.0910453796386718,-0.0495953559875488,2023-10-21T15:56:26.965031Z,1697903786964,0.1754434003173764
0.1359481811523437,0.0886034965515136,-0.0477759838104248,2023-10-21T15:56:26.988127Z,1697903786988,0.16915978301250717
0.134192943572998,0.0886754989624023,-0.0473175048828125,2023-10-21T15:56:27.005558Z,1697903787005,0.16766047980771087
0.134955883026123,0.09049654006958,-0.0477938652038574,2023-10-21T15:56:27.025852Z,1697903787025,0.1693722754143965
0.1379151344299316,0.0938901901245117,-0.0491149425506591,2023-10-21T15:56:27.046119Z,1697903787046,0.1739201819461951
0.1433520317077636,0.0990519523620605,-0.0514001846313476,2023-10-21T15:56:27.066378Z,1697903787066,0.18166747986807155
0.1515703201293945,0.1062026023864746,-0.0547738075256347,2023-10-21T15:56:27.087937Z,1697903787087,0.19300964921122993
0.1600418090820312,0.113616943359375,-0.0583245754241943,2023-10-21T15:56:27.106952Z,1697903787106,0.20475337987683934
0.1662125587463379,0.1194343566894531,-0.0610742568969726,2023-10-21T15:56:27.127170Z,1697903787127,0.2135913038921429
0.1695203781127929,0.1231398582458496,-0.0627555847167968,2023-10-21T15:56:27.147404Z,1697903787147,0.2187209333773502
0.1704440116882324,0.1249880790710449,-0.0635392665863037,2023-10-21T15:56:27.167649Z,1697903787167,0.2207043711134273
0.1702446937561035,0.1259016990661621,-0.0639135837554931,2023-10-21T15:56:27.187983Z,1697903787187,0.22117739434292633
0.169044017791748,0.1259756088256836,-0.0639302730560302,2023-10-21T15:56:27.208279Z,1697903787208,0.22030164271561176
0.1666741371154785,0.1250758171081543,-0.0634970664978027,2023-10-21T15:56:27.228513Z,1697903787228,0.21784422292612712
0.1635279655456543,0.1234784126281738,-0.0627245903015136,2023-10-21T15:56:27.248764Z,1697903787248,0.21429579587375713
0.1601157188415527,0.1215519905090332,-0.0617847442626953,2023-10-21T15:56:27.271137Z,1697903787271,0.21030759482353914
0.1561126708984375,0.1190638542175293,-0.0605466365814209,2023-10-21T15:56:27.289215Z,1697903787289,0.205458663963094
0.1524033546447754,0.1166749000549316,-0.059359073638916,2023-10-21T15:56:27.309613Z,1697903787309,0.2009062329373574
0.1502609252929687,0.1153717041015625,-0.058732271194458,2023-10-21T15:56:27.329807Z,1697903787329,0.1983392433606042
0.1500391960144043,0.1154322624206543,-0.0588278770446777,2023-10-21T15:56:27.349975Z,1697903787349,0.19823492796624753
0.1513147354125976,0.116528034210205,-0.059476613998413,2023-10-21T15:56:27.371206Z,1697903787371,0.20003099640454564
0.1531987190246582,0.1179566383361816,-0.0603251457214355,2023-10-21T15:56:27.390682Z,1697903787390,0.20254071009227093
0.1559333801269531,0.1198792457580566,-0.0614740848541259,2023-10-21T15:56:27.410897Z,1697903787410,0.20607114235134832
1.133413314819336,0.0851062536239624,-0.5998687744140625,2023-10-21T15:56:33.916603Z,1697903793916,1.2851892324217047
1.1570396423339844,0.0914069414138794,-0.5977606773376465,2023-10-21T15:56:33.935790Z,1697903793935,1.3055319951047377
1.173405647277832,0.0973893404006958,-0.5901403427124023,2023-10-21T15:56:33.956009Z,1697903793955,1.317053955152902
1.1821374893188477,0.1025986075401306,-0.5767993927001953,2023-10-21T15:56:33.976238Z,1697903793976,1.3193456928877876
1.1828861236572266,0.1066038012504577,-0.5576972961425781,2023-10-21T15:56:33.996369Z,1697903793996,1.312101454197277
1.1758337020874023,0.1091002225875854,-0.5332164764404297,2023-10-21T15:56:34.016746Z,1697903794016,1.295688065963708
1.1611700057983398,0.1099982261657714,-0.5039873123168945,2023-10-21T15:56:34.037056Z,1697903794037,1.270597734572882
1.1386327743530271,0.109460175037384,-0.4706788063049316,2023-10-21T15:56:34.057307Z,1697903794057,1.2369335727737047
1.106715202331543,0.1077569723129272,-0.4336593151092529,2023-10-21T15:56:34.077517Z,1697903794077,1.1935202158886222
1.062578201293945,0.1050198674201965,-0.3928468227386474,2023-10-21T15:56:34.099552Z,1697903794099,1.1377302986885256
1.0029335021972656,0.1010924577713012,-0.3481528759002685,2023-10-21T15:56:34.118063Z,1697903794118,1.066445366554491
0.9252719879150392,0.0956596732139587,-0.3000767230987549,2023-10-21T15:56:34.138343Z,1697903794138,0.9774073175730457
0.8275794982910156,0.0884054899215698,-0.2495341300964355,2023-10-21T15:56:34.158591Z,1697903794158,0.8688904641684513
0.7069921493530273,0.0789099931716919,-0.1972417831420898,2023-10-21T15:56:34.178826Z,1697903794178,0.7382201617987963
0.5604438781738281,0.0663715600967407,-0.1438336372375488,2023-10-21T15:56:34.199706Z,1697903794199,0.5824007552992859
0.3881139755249023,0.0496770143508911,-0.0908350944519043,2023-10-21T15:56:34.219356Z,1697903794219,0.401685546337741
0.1962547302246093,0.0277479887008667,-0.0413601398468017,2023-10-21T15:56:34.239686Z,1697903794239,0.20247600149307718
-0.0050153732299804,-0.0008013248443603516,0.0009349584579467772,2023-10-21T15:56:34.259938Z,1697903794259,0.00516432352397479
-0.2063369750976562,-0.0382020473480224,0.0334001779556274,2023-10-21T15:56:34.282885Z,1697903794282,0.21248509501021223
-0.3974103927612304,-0.0865561962127685,0.0543767213821411,2023-10-21T15:56:34.300429Z,1697903794300,0.4103459798825007
-0.5609712600708008,-0.1450197696685791,0.062806487083435,2023-10-21T15:56:34.320721Z,1697903794320,0.5828071233606462
-0.6735219955444336,-0.2074751853942871,0.0592024326324462,2023-10-21T15:56:34.341006Z,1697903794340,0.7072359995547096
-0.7113971710205078,-0.2614154815673828,0.0466765165328979,2023-10-21T15:56:34.361207Z,1697903794361,0.7593435889863918
-0.6555471420288086,-0.2863435745239258,0.0301271975040435,2023-10-21T15:56:34.382757Z,1697903794382,0.7159904651060136
-0.4906158447265625,-0.252448558807373,0.0143104195594787,2023-10-21T15:56:34.401770Z,1697903794401,0.5519410929154003
-0.2244882583618164,-0.1343770027160644,0.0033871382474899,2023-10-21T15:56:34.422056Z,1697903794422,0.2616555554670728
0.1049041748046875,0.0723133087158203,-0.0004612505435943604,2023-10-21T15:56:34.442361Z,1697903794442,0.12741394453098895
0.4698257446289062,0.369821548461914,0.0011869762092828,2023-10-21T15:56:34.462526Z,1697903794462,0.5979177342539652
0.8426351547241211,0.7527284622192383,0.0044143013656139,2023-10-21T15:56:34.482804Z,1697903794482,1.1298909805235322
1.221637725830078,1.2264270782470703,0.005444973707199,2023-10-21T15:56:34.503124Z,1697903794503,1.731055099980241
1.5922718048095703,1.7784981727600098,0.0019139861688017,2023-10-21T15:56:34.523399Z,1697903794523,2.387129848635234
1.9319090843200684,2.3819780349731445,-0.0072868634015321,2023-10-21T15:56:34.543565Z,1697903794543,3.0669439459421426
2.2250332832336426,3.009817600250244,-0.0214005783200263,2023-10-21T15:56:34.565937Z,1697903794565,3.7430245902246027
2.4644088745117188,3.637273788452149,-0.038426250219345,2023-10-21T15:56:34.584141Z,1697903794584,4.393694150670832
2.644252300262451,4.240578651428223,-0.0578289031982421,2023-10-21T15:56:34.604421Z,1697903794604,4.997791683177399
2.7669177055358887,4.806395530700684,-0.0816115140914917,2023-10-21T15:56:34.624682Z,1697903794624,5.546524319425616
2.849130630493164,5.328095436096191,-0.1094378232955932,2023-10-21T15:56:34.644894Z,1697903794644,6.043022667749238
2.901328086853028,5.792806625366211,-0.1393759250640869,2023-10-21T15:56:34.665946Z,1697903794665,6.480257627204059
2.9383177757263184,6.190645217895508,-0.1676215827465057,2023-10-21T15:56:34.685446Z,1697903794685,6.854625924148175
2.95425796508789,6.511070251464844,-0.1934792399406433,2023-10-21T15:56:34.705737Z,1697903794705,7.1525596928710575
2.950233697891236,6.752853393554688,-0.2181054353713989,2023-10-21T15:56:34.725933Z,1697903794725,7.372413296062193
2.931515693664551,6.915240287780762,-0.2414240837097168,2023-10-21T15:56:34.749272Z,1697903794749,7.514826550769005
2.899174451828003,6.98991584777832,-0.2615455985069275,2023-10-21T15:56:34.766498Z,1697903794766,7.571825550106992
2.852535486221313,6.973779678344727,-0.2762660384178161,2023-10-21T15:56:34.786816Z,1697903794786,7.539687302947571
2.7903876304626465,6.868696212768555,-0.2836512923240661,2023-10-21T15:56:34.807084Z,1697903794807,7.419279536934644
2.710575819015503,6.679354667663574,-0.2818567752838135,2023-10-21T15:56:34.827290Z,1697903794827,7.213906243419312
2.6083717346191406,6.406474113464356,-0.268776535987854,2023-10-21T15:56:34.849133Z,1697903794849,6.922337358056642
2.477252244949341,6.045194625854492,-0.2419235706329345,2023-10-21T15:56:34.867878Z,1697903794867,6.5375594653964235
2.311384677886963,5.594843864440918,-0.2008081674575805,2023-10-21T15:56:34.888155Z,1697903794888,6.05682267503024
2.103018283843994,5.055826187133789,-0.148579329252243,2023-10-21T15:56:34.908380Z,1697903794908,5.47778606316192
1.8536407947540283,4.436820983886719,-0.0908194482326507,2023-10-21T15:56:34.928554Z,1697903794928,4.80932560877418
1.5791239738464355,3.755029678344727,-0.0312560871243476,2023-10-21T15:56:34.949048Z,1697903794949,4.073678602075597
1.2877628803253174,3.026754379272461,0.0243527591228485,2023-10-21T15:56:34.969188Z,1697903794969,3.2894024328539784
0.9872188568115234,2.27303409576416,0.0678406357765197,2023-10-21T15:56:34.989421Z,1697903794989,2.479090039432454
0.6718950271606445,1.5087556838989258,0.0868265628814697,2023-10-21T15:56:35.009658Z,1697903795009,1.6538819465857677
0.3456964492797851,0.7537155151367188,0.0688745975494384,2023-10-21T15:56:35.032375Z,1697903795032,0.8320677995151943
0.017580509185791,0.0368938446044921,0.004861831665039,2023-10-21T15:56:35.050177Z,1697903795050,0.04115662133935763
-0.3064827919006347,-0.6116218566894531,-0.1094176769256591,2023-10-21T15:56:35.070512Z,1697903795070,0.6928096602496747
-0.6216678619384766,-1.1645636558532717,-0.2706642150878906,2023-10-21T15:56:35.090737Z,1697903795090,1.3475676444730476
-0.9206953048706056,-1.5959925651550293,-0.465877890586853,2023-10-21T15:56:35.110988Z,1697903795110,1.9005037020165374
-1.1964480876922607,-1.8934326171875,-0.6759974956512451,2023-10-21T15:56:35.132209Z,1697903795132,2.3395614367865463
-1.438518524169922,-2.0702199935913086,-0.8798589706420898,2023-10-21T15:56:35.151551Z,1697903795151,2.6700745634653287
-1.6347668170928955,-2.148056507110596,-1.0547490119934082,2023-10-21T15:56:35.171856Z,1697903795171,2.898120905398752
-1.7805581092834473,-2.1633639335632324,-1.1873269081115725,2023-10-21T15:56:35.192072Z,1697903795192,3.0430701398921145
-1.87777042388916,-2.125833511352539,-1.2649319171905518,2023-10-21T15:56:35.212279Z,1697903795212,3.1056790944895942
-1.9308204650878904,-2.047682762145996,-1.2874398231506348,2023-10-21T15:56:35.232588Z,1697903795232,3.0949270849288535
-1.9445443153381348,-1.9435081481933596,-1.262537956237793,2023-10-21T15:56:35.252866Z,1697903795252,3.025306365865933
-1.92047119140625,-1.8213958740234373,-1.1973772048950195,2023-10-21T15:56:35.273106Z,1697903795273,2.9050653517146827
-1.8595147132873533,-1.6817574501037598,-1.0985653400421145,2023-10-21T15:56:35.293329Z,1697903795293,2.737325135283256
-1.7607755661010742,-1.5217056274414062,-0.9727792739868164,2023-10-21T15:56:35.315437Z,1697903795315,2.5223437764634147
-1.622586727142334,-1.3408002853393557,-0.8281261920928955,2023-10-21T15:56:35.333962Z,1697903795333,2.2619297253219095
-1.4454150199890137,-1.1425132751464844,-0.6742644309997559,2023-10-21T15:56:35.354200Z,1697903795354,1.961936208648796
-1.231853485107422,-0.932253360748291,-0.5201785564422607,2023-10-21T15:56:35.374435Z,1697903795374,1.6300751724936304
-0.9883632659912108,-0.7175555229187012,-0.3745052814483642,2023-10-21T15:56:35.394624Z,1697903795394,1.2774983678520542
-0.7237129211425781,-0.505739688873291,-0.2439022064208984,2023-10-21T15:56:35.415375Z,1697903795415,0.9159810649939
-0.4488382339477539,-0.3031625747680664,-0.1331284046173095,2023-10-21T15:56:35.435233Z,1697903795435,0.5577512699306854
-0.1738457679748535,-0.1139283180236816,-0.0447094440460205,2023-10-21T15:56:35.455508Z,1697903795455,0.21260514358165458
0.0926055908203125,0.0590548515319824,0.0202082395553588,2023-10-21T15:56:35.475745Z,1697903795475,0.11167651448075552
0.3431720733642578,0.2134008407592773,0.0615837574005126,2023-10-21T15:56:35.498926Z,1697903795498,0.4087781182370886
0.5712594985961914,0.3470211029052734,0.0805654525756836,2023-10-21T15:56:35.516267Z,1697903795516,0.6732398181530034
0.7739200592041016,0.4597158432006836,0.079805314540863,2023-10-21T15:56:35.536582Z,1697903795536,0.903692316420341
0.9526948928833008,0.5532889366149902,0.0626159310340881,2023-10-21T15:56:35.556810Z,1697903795556,1.1034840103625136
1.1106853485107422,0.6298441886901855,0.0318838953971862,2023-10-21T15:56:35.577Z,1697903795576,1.277240082446885
1.2513885498046875,0.6916699409484863,-0.0101219564676284,2023-10-21T15:56:35.598632Z,1697903795598,1.4298542106790797
1.378605842590332,0.7409567832946777,-0.0614406466484069,2023-10-21T15:56:35.617596Z,1697903795617,1.5663160527157889
1.497140884399414,0.7800135612487793,-0.1202874779701232,2023-10-21T15:56:35.637888Z,1697903795637,1.692430518759537
1.6080331802368164,0.8092041015625,-0.1846855878829956,2023-10-21T15:56:35.658062Z,1697903795658,1.809610663402432
1.7087583541870115,0.8277440071105957,-0.2521699666976928,2023-10-21T15:56:35.678282Z,1697903795678,1.9153602654372168
1.7944631576538086,0.8341636657714844,-0.3201862573623657,2023-10-21T15:56:35.698626Z,1697903795698,2.0046062667950326
1.8624601364135744,0.8282909393310547,-0.3875038623809814,2023-10-21T15:56:35.718914Z,1697903795718,2.074845267307365
1.9113121032714844,0.8112444877624512,-0.4542505741119385,2023-10-21T15:56:35.739141Z,1697903795739,2.125458811437675
1.9381790161132808,0.7839303016662598,-0.5201816558837891,2023-10-21T15:56:35.759398Z,1697903795759,2.1544543558614553
1.940378189086914,0.7475149631500244,-0.5838587284088135,2023-10-21T15:56:35.781866Z,1697903795781,2.1598002573285684
1.9158134460449217,0.7026975154876709,-0.642519474029541,2023-10-21T15:56:35.799978Z,1697903795799,2.1393822082148533
1.861722946166992,0.6498043537139893,-0.6924335956573486,2023-10-21T15:56:35.820249Z,1697903795820,2.0899096417752907
1.777078628540039,0.5896022319793701,-0.7300617694854736,2023-10-21T15:56:35.840451Z,1697903795840,2.0096341535794675
1.6657381057739258,0.5240797996520996,-0.7534096240997314,2023-10-21T15:56:35.860724Z,1697903795860,1.9018330986489824
1.537332534790039,0.4563868045806885,-0.7631254196166992,2023-10-21T15:56:35.882039Z,1697903795882,1.775961892604822
1.404078483581543,0.3902485370635986,-0.7619800567626953,2023-10-21T15:56:35.901303Z,1697903795901,1.6444889527269573
1.2746829986572266,0.328181505203247,-0.752197265625,2023-10-21T15:56:35.921623Z,1697903795921,1.5160212972900395
1.1522836685180664,0.270958662033081,-0.7340021133422852,2023-10-21T15:56:35.941828Z,1697903795941,1.3928156201217559
1.037468433380127,0.2185375690460205,-0.7071056365966797,2023-10-21T15:56:35.965144Z,1697903795965,1.2744009575685176
0.9317388534545898,0.1709877252578735,-0.6727819442749023,2023-10-21T15:56:35.982345Z,1697903795982,1.1618991512898413
0.8384323120117188,0.1286628246307373,-0.6346645355224609,2023-10-21T15:56:36.002602Z,1697903796002,1.0593969685237055
0.7609043121337891,0.0916935205459594,-0.5973672866821289,2023-10-21T15:56:36.022818Z,1697903796022,0.9717153642563627
0.6986198425292969,0.0596246123313903,-0.5630483627319336,2023-10-21T15:56:36.043060Z,1697903796043,0.8992487072809386
0.6482434272766113,0.031657338142395,-0.5312991142272949,2023-10-21T15:56:36.064948Z,1697903796064,0.8387493528130423
0.6055774688720703,0.0071225389838218,-0.5001926422119141,2023-10-21T15:56:36.083677Z,1697903796083,0.7854727752697831
0.5671796798706055,-0.0145112425088882,-0.4678468704223633,2023-10-21T15:56:36.103977Z,1697903796103,0.735380214298205
0.5289139747619629,-0.0333801507949829,-0.431924819946289,2023-10-21T15:56:36.124169Z,1697903796124,0.6836836090263012
0.4854192733764648,-0.0488994121551513,-0.3894267082214355,2023-10-21T15:56:36.144352Z,1697903796144,0.6242404861514811
0.4338221549987793,-0.0600130558013916,-0.3396215438842773,2023-10-21T15:56:36.164849Z,1697903796164,0.5542075622948012
0.3745803833007812,-0.0657640695571899,-0.2844529151916504,2023-10-21T15:56:36.184979Z,1697903796184,0.4749198220326367
0.3083200454711914,-0.0652492046356201,-0.225898265838623,2023-10-21T15:56:36.205257Z,1697903796205,0.3877482890405008
0.231602668762207,-0.0568485260009765,-0.1628646850585937,2023-10-21T15:56:36.225464Z,1697903796225,0.2887844468206264
0.1380147933959961,-0.0381286144256591,-0.0925922393798828,2023-10-21T15:56:36.248218Z,1697903796248,0.17051450738145885
0.0221643447875976,-0.0067250728607177,-0.014082908630371,2023-10-21T15:56:36.266014Z,1697903796265,0.027107436255331206
-0.1184391975402832,0.038663625717163,0.0706586837768554,2023-10-21T15:56:36.286314Z,1697903796286,0.14323187166500598
-0.2853832244873047,0.0983903408050537,0.1583409309387207,2023-10-21T15:56:36.306549Z,1697903796306,0.34087548224101816
-0.4770655632019043,0.1705548763275146,0.2435512542724609,2023-10-21T15:56:36.326772Z,1697903796326,0.5621367546157544
-0.6936187744140625,0.2516865730285644,0.3219945430755615,2023-10-21T15:56:36.348024Z,1697903796347,0.8050674636531827
-0.9433040618896484,0.3368306159973144,0.3930366039276123,2023-10-21T15:56:36.367354Z,1697903796367,1.0759903294535647
