ACC_X,ACC_Y,ACC_Z,DATE,UNIX_TIMESTAMP,norm
1.3705148696899414,0.352668285369873,0.0564574599266052,2023-10-20T12:14:53.435753Z,1697804093435,1.416288590764018
1.4089422225952148,0.3368074893951416,0.0647361278533935,2023-10-20T12:14:53.456158Z,1697804093456,1.4500855967058128
1.4050817489624023,0.3085012435913086,0.0706129670143127,2023-10-20T12:14:53.477654Z,1697804093477,1.4402825867430293
1.3634920120239258,0.2715393304824829,0.0732643008232116,2023-10-20T12:14:53.496117Z,1697804093496,1.392196729139615
1.2910308837890625,0.230208158493042,0.0724833011627197,2023-10-20T12:14:53.517042Z,1697804093516,1.31339650071156
1.1966934204101562,0.1885799169540405,0.0686028599739074,2023-10-20T12:14:53.537290Z,1697804093537,1.2134017800909769
1.0905046463012695,0.1501439809799194,0.0621083974838256,2023-10-20T12:14:53.560857Z,1697804093560,1.1025429931150823
0.9803581237792968,0.1169986724853515,0.0536270141601562,2023-10-20T12:14:53.577876Z,1697804093577,0.9887702447338973
0.8721637725830078,0.0898674726486206,0.0438210368156433,2023-10-20T12:14:53.597774Z,1697804093597,0.8778758979001947
0.770380973815918,0.0684782266616821,0.0334052145481109,2023-10-20T12:14:53.617896Z,1697804093617,0.7741395356802907
0.6791934967041016,0.0519247651100158,0.0232089459896087,2023-10-20T12:14:53.638341Z,1697804093638,0.6815707170725744
0.5989408493041992,0.0389453172683715,0.0137615054845809,2023-10-20T12:14:53.660840Z,1697804093660,0.6003634380403022
0.5298471450805664,0.0284564495086669,0.0054177269339561,2023-10-20T12:14:53.678430Z,1697804093678,0.5306384064820384
0.4692802429199219,0.0195381045341491,-0.0018530972301959,2023-10-20T12:14:53.698850Z,1697804093698,0.4696904490120198
0.4113445281982422,0.0115554630756378,-0.0080698430538177,2023-10-20T12:14:53.719626Z,1697804093719,0.4115859229522314
0.3458547592163086,0.0043167620897293,-0.012818694114685,2023-10-20T12:14:53.739248Z,1697804093739,0.346119152643011
0.2641105651855469,-0.001538049429655,-0.0149633884429931,2023-10-20T12:14:53.760645Z,1697804093760,0.26453857796618807
0.1631107330322265,-0.0044650733470916,-0.0129182338714599,2023-10-20T12:14:53.780232Z,1697804093780,0.16368240246484322
0.0468397140502929,-0.0024546384811401,-0.0049573183059692,2023-10-20T12:14:53.800782Z,1697804093800,0.04716523155008356
-0.0773458480834961,0.0062662959098815,0.0106655359268188,2023-10-20T12:14:53.821011Z,1697804093820,0.07832879634458656
-0.1988821029663086,0.0224767923355102,0.0352258682250976,2023-10-20T12:14:53.843685Z,1697804093843,0.20322440519338952
-0.3057212829589844,0.0450880527496337,0.0689141750335693,2023-10-20T12:14:53.861064Z,1697804093861,0.31661901218246286
-0.393198013305664,0.0714664459228515,0.1120853424072265,2023-10-20T12:14:53.881569Z,1697804093881,0.41506054322581687
-0.4611463546752929,0.0977141857147216,0.1655018329620361,2023-10-20T12:14:53.902022Z,1697804093901,0.4995947149780468
-0.4917764663696289,0.1148074865341186,0.2203016281127929,2023-10-20T12:14:53.921608Z,1697804093921,0.5509606693661789
-0.460205078125,0.1111506223678588,0.2537417411804199,2023-10-20T12:14:53.943583Z,1697804093943,0.5371480671119193
-0.3556976318359375,0.0822923183441162,0.23699951171875,2023-10-20T12:14:53.962533Z,1697804093962,0.43527186849952687
-0.192422866821289,0.0381126403808593,0.1519351005554199,2023-10-20T12:14:53.983034Z,1697804093982,0.2481197449081991
0.0094189643859863,-0.0013039708137512,-0.0086293220520019,2023-10-20T12:14:54.002771Z,1697804094002,0.01284065532068981
0.2205667495727539,-0.011857271194458,-0.2299003601074218,2023-10-20T12:14:54.022896Z,1697804094022,0.3188172854077882
0.4362401962280273,0.0238669216632843,-0.506314754486084,2023-10-20T12:14:54.043389Z,1697804094043,0.6687523976518159
0.646975040435791,0.11880624294281,-0.8205370903015137,2023-10-20T12:14:54.064135Z,1697804094064,1.0516523868986147
0.8598446846008301,0.2827498912811279,-1.1697912216186523,2023-10-20T12:14:54.083999Z,1697804094083,1.4790848132652332
1.078871250152588,0.5200161933898926,-1.5409650802612305,2023-10-20T12:14:54.104533Z,1697804094104,1.9516540150287967
1.295362949371338,0.8222193717956543,-1.905440330505371,2023-10-20T12:14:54.127366Z,1697804094127,2.4463672494285214
1.500776767730713,1.1746833324432373,-2.239931583404541,2023-10-20T12:14:54.145352Z,1697804094145,2.941004137435609
1.6898293495178225,1.5613775253295898,-2.530314445495605,2023-10-20T12:14:54.165291Z,1697804094165,3.419928975897001
1.8638944625854488,1.9651145935058596,-2.7708797454833984,2023-10-20T12:14:54.186002Z,1697804094185,3.8747325710552647
2.026460647583008,2.372893810272217,-2.964731216430664,2023-10-20T12:14:54.205827Z,1697804094205,4.304276823893787
2.1933178901672363,2.7907257080078125,-3.129587173461914,2023-10-20T12:14:54.227178Z,1697804094227,4.732135799082767
2.3608522415161133,3.220276355743408,-3.270902156829834,2023-10-20T12:14:54.246490Z,1697804094246,5.161647414652202
2.5351529121398926,3.667094230651856,-3.3904237747192383,2023-10-20T12:14:54.266607Z,1697804094266,5.600852949024189
2.707335948944092,4.119690895080566,-3.472572326660156,2023-10-20T12:14:54.286853Z,1697804094286,6.0299485549497565
2.8688201904296875,4.567207336425781,-3.507218360900879,2023-10-20T12:14:54.310426Z,1697804094310,6.433513252489557
3.019343376159668,5.008569240570068,-3.4930291175842285,2023-10-20T12:14:54.327468Z,1697804094327,6.812007976876946
3.1554746627807617,5.438755989074707,-3.426076412200928,2023-10-20T12:14:54.347166Z,1697804094347,7.160662444102985
3.274098873138428,5.849618911743164,-3.302928924560547,2023-10-20T12:14:54.368189Z,1697804094368,7.473092018997779
3.374063014984131,6.22408390045166,-3.1200287342071533,2023-10-20T12:14:54.387737Z,1697804094387,7.73680172495222
3.457592010498047,6.53720760345459,-2.874961853027344,2023-10-20T12:14:54.410035Z,1697804094409,7.934445879712511
3.5189337730407715,6.764645576477051,-2.572841167449951,2023-10-20T12:14:54.428928Z,1697804094428,8.047536042002093
3.5469136238098145,6.886279106140137,-2.223566055297852,2023-10-20T12:14:54.449371Z,1697804094449,8.058888396342434
3.5336174964904785,6.891315460205078,-1.8430757522583008,2023-10-20T12:14:54.469675Z,1697804094469,7.960754336878363
3.484802722930908,6.771466255187988,-1.4519774913787842,2023-10-20T12:14:54.493304Z,1697804094493,7.7527313830911835
3.4090800285339355,6.525199890136719,-1.0763335227966309,2023-10-20T12:14:54.510280Z,1697804094510,7.44033292934429
3.328479766845703,6.1759796142578125,-0.7439359426498413,2023-10-20T12:14:54.529830Z,1697804094529,7.055135891022625
3.239570140838623,5.738012313842773,-0.4725701808929443,2023-10-20T12:14:54.550470Z,1697804094550,6.606279027341614
3.1472206115722656,5.236701011657715,-0.2694074511528015,2023-10-20T12:14:54.570969Z,1697804094570,6.115604257809598
3.042211532592773,4.690094947814941,-0.1311880946159362,2023-10-20T12:14:54.593546Z,1697804094593,5.5918916249091115
2.913478374481201,4.120707511901856,-0.0534927546977996,2023-10-20T12:14:54.610599Z,1697804094610,5.046924619213088
2.7705440521240234,3.561513900756836,-0.0260778740048408,2023-10-20T12:14:54.630901Z,1697804094630,4.51231378181489
2.6262521743774414,3.038766384124756,-0.0347291156649589,2023-10-20T12:14:54.652043Z,1697804094651,4.016529314244296
2.4898757934570312,2.570034503936768,-0.0659785419702529,2023-10-20T12:14:54.671621Z,1697804094671,3.5789540352272353
2.3626251220703125,2.165712356567383,-0.1091170608997345,2023-10-20T12:14:54.693377Z,1697804094693,3.2069009981297834
2.243616104125977,1.826250076293945,-0.154767096042633,2023-10-20T12:14:54.711938Z,1697804094711,2.8970597884535514
2.109675884246826,1.5288023948669434,-0.1940159797668457,2023-10-20T12:14:54.733289Z,1697804094733,2.612587089367246
1.964674949645996,1.2676239013671875,-0.2221499681472778,2023-10-20T12:14:54.752956Z,1697804094752,2.3486525118526376
1.7969636917114258,1.0312466621398926,-0.2377068996429443,2023-10-20T12:14:54.772466Z,1697804094772,2.0854382651235897
1.617711067199707,0.8246378898620605,-0.2438851594924926,2023-10-20T12:14:54.793351Z,1697804094793,1.8320744300811704
1.443079948425293,0.6528565883636475,-0.2439918518066406,2023-10-20T12:14:54.813860Z,1697804094813,1.60257089898232
1.2789573669433594,0.5134434700012207,-0.2398848533630371,2023-10-20T12:14:54.834397Z,1697804094834,1.3988927357801924
1.137582778930664,0.4056370258331299,-0.2352552413940429,2023-10-20T12:14:54.854015Z,1697804094853,1.230439354153519
1.0321645736694336,0.3273427486419678,-0.2343955039978027,2023-10-20T12:14:54.876988Z,1697804094876,1.1079071416508994
0.9718351364135742,0.2744667530059814,-0.2414362430572509,2023-10-20T12:14:54.894648Z,1697804094894,1.0383096793997622
0.9608821868896484,0.2420148849487304,-0.2599680423736572,2023-10-20T12:14:54.914773Z,1697804094914,1.0244262612185282
0.9974098205566406,0.2246875762939453,-0.2922477722167969,2023-10-20T12:14:54.935496Z,1697804094935,1.0633530069780959
1.0750761032104492,0.2177262306213379,-0.3389613628387451,2023-10-20T12:14:54.955044Z,1697804094955,1.148080199590708
1.1859617233276367,0.2173018455505371,-0.3990182876586914,2023-10-20T12:14:54.976466Z,1697804094976,1.2700161003562127
1.3157234191894531,0.2196605205535888,-0.4676296710968017,2023-10-20T12:14:54.996287Z,1697804094996,1.4135262181450905
1.4472761154174805,0.2222075462341308,-0.5373003482818604,2023-10-20T12:14:55.015916Z,1697804095015,1.5597038219242505
1.564682960510254,0.2235209941864013,-0.5996031761169434,2023-10-20T12:14:55.037033Z,1697804095036,1.690478740050503
1.654017448425293,0.2228608131408691,-0.646155834197998,2023-10-20T12:14:55.059569Z,1697804095059,1.7896809838061187
1.7043838500976562,0.2196967601776123,-0.6698606014251709,2023-10-20T12:14:55.077261Z,1697804095077,1.8444251679718375
1.7063226699829102,0.2136459350585937,-0.6651887893676758,2023-10-20T12:14:55.097570Z,1697804095097,1.8438160876739043
1.653484344482422,0.2045967578887939,-0.6302189826965332,2023-10-20T12:14:55.118115Z,1697804095118,1.7813046558458563
1.543771743774414,0.1923718452453613,-0.567180871963501,2023-10-20T12:14:55.137724Z,1697804095137,1.655878094921446
1.3848657608032229,0.176967978477478,-0.4837613105773926,2023-10-20T12:14:55.159452Z,1697804095159,1.4775641598465534
1.190778732299805,0.1584569215774536,-0.3901453018188476,2023-10-20T12:14:55.178134Z,1697804095178,1.263042335721433
0.9769515991210938,0.1368101835250854,-0.2961125373840332,2023-10-20T12:14:55.198248Z,1697804095198,1.0299680034532337
0.7582998275756836,0.1120747327804565,-0.2095608711242675,2023-10-20T12:14:55.218707Z,1697804095218,0.7946666803984449
0.5467710494995117,0.0850359201431274,-0.1357114315032959,2023-10-20T12:14:55.238947Z,1697804095238,0.5697431710218733
0.3539724349975586,0.0575376749038696,-0.0777380466461181,2023-10-20T12:14:55.259547Z,1697804095259,0.36694723417379543
0.1871042251586914,0.0315136909484863,-0.0358599424362182,2023-10-20T12:14:55.279863Z,1697804095279,0.19309852216151185
0.0535793304443359,0.0092419385910034,-0.0088626146316528,2023-10-20T12:14:55.299786Z,1697804095299,0.055088147707945345
-0.040999412536621,-0.0071305036544799,0.0058023929595947,2023-10-20T12:14:55.320023Z,1697804095319,0.042017421086641436
-0.0930461883544921,-0.0160201787948608,0.0112055540084838,2023-10-20T12:14:55.342454Z,1697804095342,0.09507788247829238
-0.1058912277221679,-0.0177301168441772,0.0108017325401306,2023-10-20T12:14:55.360756Z,1697804095360,0.10790730548801927
-0.0870256423950195,-0.013938546180725,0.0074749588966369,2023-10-20T12:14:55.381350Z,1697804095381,0.08845123240749352
-0.0409278869628906,-0.0061638355255126,0.0029353499412536,2023-10-20T12:14:55.401528Z,1697804095401,0.04149338596584206
0.0296125411987304,0.0041117668151855,-0.0017526149749755,2023-10-20T12:14:55.421530Z,1697804095421,0.02994796957791086
0.1206197738647461,0.0150824785232543,-0.0058099627494812,2023-10-20T12:14:55.442704Z,1697804095442,0.12169784991008374
