ACC_X,ACC_Y,ACC_Z,DATE,UNIX_TIMESTAMP,norm
0.1829843521118164,0.2620210647583008,-0.0575690269470214,2023-10-21T15:35:06.866250Z,1697902506866,0.3247345136545879
0.1833677291870117,0.2628602981567383,-0.0577539205551147,2023-10-21T15:35:06.893934Z,1697902506893,0.32566052231386156
0.1837158203125,0.2637062072753906,-0.0579264163970947,2023-10-21T15:35:06.926137Z,1697902506926,0.32656995591339333
0.1839332580566406,0.2644319534301758,-0.058058738708496,2023-10-21T15:35:06.928385Z,1697902506928,0.3273018767967132
0.1837787628173828,0.2646903991699219,-0.05807626247406,2023-10-21T15:35:07.008610Z,1697902507008,0.327427080948379
0.182952880859375,0.2640457153320312,-0.0578742027282714,2023-10-21T15:35:07.010869Z,1697902507010,0.32640667845707716
0.1813740730285644,0.2623634338378906,-0.0574387311935424,2023-10-21T15:35:07.012546Z,1697902507012,0.3240838373373535
0.1791357994079589,0.2597603797912597,-0.0568035840988159,2023-10-21T15:35:07.014256Z,1697902507014,0.3206115043246253
0.1763768196105957,0.2564058303833008,-0.0560142993927001,2023-10-21T15:35:07.028381Z,1697902507028,0.3162124824970603
0.1733169555664062,0.252601146697998,-0.0551437139511108,2023-10-21T15:35:07.048649Z,1697902507048,0.3112666631495783
0.1699752807617187,0.248356819152832,-0.0541903972625732,2023-10-21T15:35:07.076907Z,1697902507076,0.3057929116987722
0.1665487289428711,0.2439384460449218,-0.0532083511352539,2023-10-21T15:35:07.092474Z,1697902507092,0.3001259289062337
0.163280963897705,0.2397012710571289,-0.0522699356079101,2023-10-21T15:35:07.109456Z,1697902507109,0.2947024239571536
0.160346508026123,0.2359042167663574,-0.051422119140625,2023-10-21T15:35:07.129736Z,1697902507129,0.28983794862169565
0.1579241752624511,0.2328004837036132,-0.0507044792175293,2023-10-21T15:35:07.149917Z,1697902507149,0.2858444586793358
-0.4195101261138916,-1.1449189186096191,-0.3426852226257324,2023-10-21T15:35:39.592443Z,1697902539592,1.2665943462325895
-0.4175567626953125,-1.1320128440856934,-0.3208184242248535,2023-10-21T15:35:39.612689Z,1697902539612,1.2484915660787173
-0.4177265167236328,-1.110295295715332,-0.2957055568695068,2023-10-21T15:35:39.636239Z,1697902539636,1.2225763218814445
-0.4214775562286377,-1.0849452018737793,-0.2689324617385864,2023-10-21T15:35:39.653253Z,1697902539653,1.1946020636388406
-0.4285225868225097,-1.0546951293945312,-0.2400383949279785,2023-10-21T15:35:39.673541Z,1697902539673,1.163456855420605
-0.4361963272094726,-1.0126419067382812,-0.2077898979187011,2023-10-21T15:35:39.693733Z,1697902539693,1.122001563648928
-0.4394271373748779,-0.9501094818115234,-0.1718106269836425,2023-10-21T15:35:39.713942Z,1697902539713,1.060812484859673
-0.4319710731506347,-0.8629412651062012,-0.1337275505065918,2023-10-21T15:35:39.736287Z,1697902539736,0.9742431384549214
-0.4101648330688476,-0.7558598518371582,-0.0961741805076599,2023-10-21T15:35:39.754631Z,1697902539754,0.8653373786575999
-0.3737950325012207,-0.6386122703552246,-0.0625963807106018,2023-10-21T15:35:39.774870Z,1697902539774,0.7426080157451236
-0.3237543106079101,-0.5162224769592285,-0.0347750186920166,2023-10-21T15:35:39.795043Z,1697902539795,0.6103374486955183
-0.2593607902526855,-0.3881745338439941,-0.0138327777385711,2023-10-21T15:35:39.819508Z,1697902539819,0.4670533523972013
-0.1784920692443847,-0.2517600059509277,-0.0008944366127252579,2023-10-21T15:35:39.836498Z,1697902539836,0.3086151639119626
-0.0823845863342285,-0.1099658012390136,0.0030890703201293,2023-10-21T15:35:39.855945Z,1697902539855,0.13743813103736133
0.0242519378662109,0.0307865142822265,-0.0017983317375183,2023-10-21T15:35:39.876248Z,1697902539876,0.03923263882221607
0.136082649230957,0.1651997566223144,-0.014368712902069,2023-10-21T15:35:39.896387Z,1697902539896,0.21451318588900234
0.2487378120422363,0.2902092933654785,-0.032896339893341,2023-10-21T15:35:39.919411Z,1697902539919,0.3836327700726666
0.3595108985900879,0.4047150611877441,-0.0556943416595459,2023-10-21T15:35:39.937019Z,1697902539936,0.5441913511350048
0.4661102294921875,0.5078411102294922,-0.0812687873840332,2023-10-21T15:35:39.957281Z,1697902539957,0.6940936212639143
0.5654301643371582,0.5980129241943359,-0.1081686019897461,2023-10-21T15:35:39.977487Z,1697902539977,0.8300790171436828
0.6548032760620117,0.6743683815002441,-0.1352035999298095,2023-10-21T15:35:39.997695Z,1697902539997,0.9496420682250666
0.7312326431274414,0.7358083724975586,-0.1611826419830322,2023-10-21T15:35:40.019395Z,1697902540019,1.0498071172788268
0.7920761108398438,0.7813506126403809,-0.184995412826538,2023-10-21T15:35:40.038326Z,1697902540038,1.1278814866835665
0.8360819816589355,0.8109474182128906,-0.2058819532394409,2023-10-21T15:35:40.058526Z,1697902540058,1.1828170500253083
0.8639249801635742,0.8259429931640625,-0.2235875129699707,2023-10-21T15:35:40.078776Z,1697902540078,1.2159521270442926
0.8776869773864746,0.8286895751953125,-0.2382073402404785,2023-10-21T15:35:40.102714Z,1697902540102,1.2303672538131192
0.8796124458312988,0.8216814994812012,-0.2499217987060547,2023-10-21T15:35:40.119458Z,1697902540119,1.229365465156503
0.870246410369873,0.8058571815490723,-0.2585444450378418,2023-10-21T15:35:40.139653Z,1697902540139,1.2139109695013839
0.849125862121582,0.7811517715454102,-0.2635993957519531,2023-10-21T15:35:40.159854Z,1697902540159,1.183510651136291
0.8175187110900879,0.7485060691833496,-0.2650454044342041,2023-10-21T15:35:40.180036Z,1697902540180,1.1396697964754523
0.7776517868041992,0.7095098495483398,-0.2630987167358398,2023-10-21T15:35:40.202633Z,1697902540202,1.0850656491078856
0.7329583168029785,0.6668004989624023,-0.2584068775177002,2023-10-21T15:35:40.220684Z,1697902540220,1.0240238834790973
0.686255931854248,0.6226420402526855,-0.2515511512756347,2023-10-21T15:35:40.240944Z,1697902540240,0.960160557408638
0.6388540267944336,0.5781416893005371,-0.2427859306335449,2023-10-21T15:35:40.261134Z,1697902540261,0.8951688603678851
0.5908770561218262,0.5334854125976562,-0.2321031093597412,2023-10-21T15:35:40.285935Z,1697902540285,0.8292250805903951
0.5421080589294434,0.4886045455932617,-0.2194612026214599,2023-10-21T15:35:40.302550Z,1697902540302,0.7620884259629614
0.4930267333984375,0.4439363479614258,-0.2051618099212646,2023-10-21T15:35:40.322011Z,1697902540321,0.694439492783231
0.445068359375,0.4006309509277344,-0.1898961067199707,2023-10-21T15:35:40.342257Z,1697902540342,0.6282129692273293
0.4003448486328125,0.3603138923645019,-0.1746397018432617,2023-10-21T15:35:40.362495Z,1697902540362,0.5662164995102057
0.3607358932495117,0.3245143890380859,-0.1603474617004394,2023-10-21T15:35:40.385766Z,1697902540385,0.5110296291263934
0.3271713256835937,0.2940073013305664,-0.1476280689239502,2023-10-21T15:35:40.403081Z,1697902540403,0.46397781877958044
0.2997961044311523,0.268956184387207,-0.136793851852417,2023-10-21T15:35:40.423350Z,1697902540423,0.42535595829474476
0.278012752532959,0.2488527297973632,-0.1278069019317627,2023-10-21T15:35:40.443531Z,1697902540443,0.39440255562045606
0.2615132331848144,0.2333202362060547,-0.1206881999969482,2023-10-21T15:35:40.463721Z,1697902540463,0.37066581360104905
0.2513136863708496,0.2229490280151367,-0.1159665584564209,2023-10-21T15:35:40.485716Z,1697902540485,0.35540551589758207
0.2481188774108886,0.2178936004638672,-0.1139585971832275,2023-10-21T15:35:40.504375Z,1697902540504,0.3493238616566524
0.2523088455200195,0.2179722785949707,-0.1148386001586914,2023-10-21T15:35:40.524562Z,1697902540524,0.3526465253620633
0.2632045745849609,0.2220516204833984,-0.1183085441589355,2023-10-21T15:35:40.544824Z,1697902540544,0.3641160280223328
0.2790689468383789,0.2281708717346191,-0.1236112117767334,2023-10-21T15:35:40.569107Z,1697902540569,0.3810789360152702
0.2976832389831543,0.2340126037597656,-0.1297967433929443,2023-10-21T15:35:40.585679Z,1697902540585,0.40028040682169375
0.3181276321411133,0.2383594512939453,-0.1365008354187011,2023-10-21T15:35:40.605713Z,1697902540605,0.4203009593408817
0.3415193557739258,0.2415452003479004,-0.1443221569061279,2023-10-21T15:35:40.625887Z,1697902540625,0.44250247361272643
0.3726100921630859,0.2461824417114257,-0.1553938388824463,2023-10-21T15:35:40.646144Z,1697902540646,0.47285443907338603
0.4178314208984375,0.2551765441894531,-0.172492504119873,2023-10-21T15:35:40.669221Z,1697902540669,0.5190874964512472
0.4817790985107422,0.2693905830383301,-0.1976947784423828,2023-10-21T15:35:40.686755Z,1697902540686,0.5863152832861664
0.566990852355957,0.2880740165710449,-0.2324731349945068,2023-10-21T15:35:40.707011Z,1697902540706,0.6771329442383405
0.6735658645629883,0.309478759765625,-0.2778952121734619,2023-10-21T15:35:40.727186Z,1697902540727,0.7916399595772619
0.7988395690917969,0.331775426864624,-0.3346397876739502,2023-10-21T15:35:40.752257Z,1697902540752,0.9274714974124205
0.9375181198120116,0.353480577468872,-0.402111291885376,2023-10-21T15:35:40.768815Z,1697902540768,1.0796213385651947
1.0818958282470703,0.3735330104827881,-0.4774246215820312,2023-10-21T15:35:40.788066Z,1697902540788,1.2401450569959527
1.2227764129638672,0.3913922309875488,-0.5550978183746338,2023-10-21T15:35:40.808251Z,1697902540808,1.3987507363867482
1.3538684844970703,0.4081094264984131,-0.6296231746673584,2023-10-21T15:35:40.828452Z,1697902540828,1.5478819462056725
1.47113037109375,0.4255263805389404,-0.6969575881958008,2023-10-21T15:35:40.852100Z,1697902540852,1.682571588085545
1.569257736206055,0.4445922374725342,-0.753725528717041,2023-10-21T15:35:40.869099Z,1697902540869,1.7967565981242895
1.640920639038086,0.4641640186309814,-0.7968831062316895,2023-10-21T15:35:40.889417Z,1697902540889,1.882310140441869
1.6738967895507812,0.4812333583831787,-0.8216428756713867,2023-10-21T15:35:40.909557Z,1697902540909,1.9257759533317242
1.6597309112548828,0.4929168224334717,-0.8232288360595703,2023-10-21T15:35:40.929774Z,1697902540929,1.9171279060440567
1.6069374084472656,0.4987215995788574,-0.8013625144958496,2023-10-21T15:35:40.952037Z,1697902540951,1.8636397045010655
1.5323152542114258,0.499875545501709,-0.7598352432250977,2023-10-21T15:35:40.970424Z,1697902540970,1.7819133525866517
1.4508066177368164,0.4981124401092529,-0.7036871910095215,2023-10-21T15:35:40.990682Z,1697902540990,1.6876408112662498
1.3756017684936523,0.496739387512207,-0.6445021629333496,2023-10-21T15:35:41.010871Z,1697902541010,1.5982531972796528
1.2958240509033203,0.4944329261779785,-0.584265947341919,2023-10-21T15:35:41.035424Z,1697902541035,1.504988566937224
1.201899528503418,0.4875390529632568,-0.5236849784851074,2023-10-21T15:35:41.052269Z,1697902541052,1.3987504285868853
1.0865488052368164,0.4722647666931152,-0.4589400291442871,2023-10-21T15:35:41.071754Z,1697902541071,1.2705307026483912
0.9613828659057616,0.4505791664123535,-0.3910839557647705,2023-10-21T15:35:41.091939Z,1697902541091,1.1314703975441196
0.8522891998291016,0.4319829940795898,-0.3292250633239746,2023-10-21T15:35:41.112137Z,1697902541112,1.0106410488595703
0.7688283920288086,0.422433853149414,-0.2771670818328857,2023-10-21T15:35:41.135325Z,1697902541135,0.9199831780679588
0.6976385116577148,0.4171724319458008,-0.2309865951538086,2023-10-21T15:35:41.152777Z,1697902541152,0.845036767285492
0.6203861236572266,0.4061059951782226,-0.1862287521362304,2023-10-21T15:35:41.173078Z,1697902541173,0.7645143359469145
0.5296444892883301,0.3822550773620605,-0.1427803039550781,2023-10-21T15:35:41.193234Z,1697902541193,0.66860185790953
0.4294185638427734,0.344146728515625,-0.1017137765884399,2023-10-21T15:35:41.213470Z,1697902541213,0.55962752440233
0.3397741317749023,0.3026571273803711,-0.0671042203903198,2023-10-21T15:35:41.235298Z,1697902541235,0.45994649011783906
0.2739949226379394,0.2703413963317871,-0.0400425195693969,2023-10-21T15:35:41.254157Z,1697902541254,0.3869897822623439
0.2353320121765136,0.2552375793457031,-0.0193607807159423,2023-10-21T15:35:41.274323Z,1697902541274,0.3477099620304711
0.213935375213623,0.2534236907958984,-0.0020999163389205,2023-10-21T15:35:41.294547Z,1697902541294,0.33165693340112645
0.1974506378173828,0.2546238899230957,0.0135764479637146,2023-10-21T15:35:41.318539Z,1697902541318,0.32249713120176976
0.1803374290466308,0.2520995140075683,0.0274469256401062,2023-10-21T15:35:41.335446Z,1697902541335,0.31117372479869543
0.1623516082763672,0.2443552017211914,0.0388821363449096,2023-10-21T15:35:41.355470Z,1697902541355,0.2959380506877601
0.1448183059692382,0.2324848175048828,0.0476143360137939,2023-10-21T15:35:41.375719Z,1697902541375,0.27800837596754713
0.1298251152038574,0.2200536727905273,0.054203987121582,2023-10-21T15:35:41.395928Z,1697902541395,0.2611824107136082
0.119511604309082,0.2113666534423828,0.060004711151123,2023-10-21T15:35:41.418699Z,1697902541418,0.25011887396254734
0.112673282623291,0.2052516937255859,0.0650975704193115,2023-10-21T15:35:41.436517Z,1697902541436,0.24302514287379187
0.1033134460449218,0.1920499801635742,0.0661447048187255,2023-10-21T15:35:41.456803Z,1697902541456,0.22788590344745446
0.0843667984008789,0.1596288681030273,0.0580518245697021,2023-10-21T15:35:41.476963Z,1697902541476,0.18965533617628505
0.0512037277221679,0.0990171432495117,0.0369555950164794,2023-10-21T15:35:41.501612Z,1697902541501,0.11743905820876742
0.0093774795532226,0.0186681747436523,0.0070176124572753,2023-10-21T15:35:41.518471Z,1697902541518,0.022038256637745897
-0.0321097373962402,-0.0658111572265625,-0.0247268676757812,2023-10-21T15:35:41.537832Z,1697902541537,0.07728881960678678
-0.0639026165008544,-0.1341257095336914,-0.050389289855957,2023-10-21T15:35:41.558078Z,1697902541558,0.15688317591685563
-0.0869636535644531,-0.1852254867553711,-0.0694499015808105,2023-10-21T15:35:41.578274Z,1697902541578,0.21608897892911297
-0.1089661121368408,-0.2343769073486328,-0.0867962837219238,2023-10-21T15:35:41.601519Z,1697902541601,0.2726531554199674
-0.1354486942291259,-0.2952470779418945,-0.1065623760223388,2023-10-21T15:35:41.618905Z,1697902541618,0.3418665321220091
-0.1671164035797119,-0.370828628540039,-0.1288826465606689,2023-10-21T15:35:41.639123Z,1697902541639,0.4266761074571503
-0.198594331741333,-0.4474363327026367,-0.1484534740447998,2023-10-21T15:35:41.659336Z,1697902541659,0.5115441470470963
-0.2238051891326904,-0.5057744979858398,-0.1595559120178222,2023-10-21T15:35:41.679526Z,1697902541679,0.5756341672932442
-0.2390105724334716,-0.5318470001220703,-0.1599602699279785,2023-10-21T15:35:41.701475Z,1697902541701,0.6046276318770528
-0.2462825775146484,-0.5296840667724609,-0.1516699790954589,2023-10-21T15:35:41.720242Z,1697902541720,0.6035098185934414
-0.246530532836914,-0.5089139938354492,-0.1374351978302002,2023-10-21T15:35:41.740422Z,1697902541740,0.5819443189386994
-0.2442240715026855,-0.4836263656616211,-0.1207540035247802,2023-10-21T15:35:41.760614Z,1697902541760,0.5550868292723937
-0.2380633354187011,-0.4535331726074219,-0.1025346517562866,2023-10-21T15:35:41.784931Z,1697902541784,0.5223790244035584
-0.2244238853454589,-0.410858154296875,-0.0829972028732299,2023-10-21T15:35:41.801691Z,1697902541801,0.47545666358835115
-0.2007145881652832,-0.3511800765991211,-0.0624635219573974,2023-10-21T15:35:41.821508Z,1697902541821,0.4092865544796776
-0.1660528182983398,-0.2769746780395508,-0.0423927307128906,2023-10-21T15:35:41.841688Z,1697902541841,0.32570792799259574
-0.1239995956420898,-0.1975517272949218,-0.0251731872558593,2023-10-21T15:35:41.861944Z,1697902541861,0.23459811174267256
-0.0793652534484863,-0.1212625503540039,-0.0123223662376403,2023-10-21T15:35:41.884696Z,1697902541884,0.14544858295285773
-0.0340185165405273,-0.0500106811523437,-0.0038334727287292,2023-10-21T15:35:41.902606Z,1697902541902,0.06060547178350669
0.013185977935791,0.0186753273010253,0.0009936988353729248,2023-10-21T15:35:41.922888Z,1697902541922,0.022882860426507206
0.0646519660949707,0.0882339477539062,0.0027424842119216,2023-10-21T15:35:41.943017Z,1697902541942,0.10941950226461884
0.1207337379455566,0.1588335037231445,0.001591071486473,2023-10-21T15:35:41.968380Z,1697902541968,0.1995175403110001
0.1790118217468261,0.2273359298706054,-0.0023301094770431,2023-10-21T15:35:41.984861Z,1697902541984,0.28936531710871166
0.2362070083618164,0.2902851104736328,-0.0086650103330612,2023-10-21T15:35:42.003916Z,1697902542003,0.3743451329535359
0.2897090911865234,0.3457088470458984,-0.0168968439102172,2023-10-21T15:35:42.024116Z,1697902542024,0.4513662235658002
0.3375806808471679,0.3926963806152344,-0.0265029072761535,2023-10-21T15:35:42.044313Z,1697902542044,0.5185301992397654
0.3782753944396972,0.4307742118835449,-0.0369594097137451,2023-10-21T15:35:42.068099Z,1697902542068,0.5744777572968219
0.4112515449523926,0.4604182243347168,-0.0479049682617187,2023-10-21T15:35:42.084981Z,1697902542084,0.6191992090671787
0.435920238494873,0.4817419052124023,-0.0590208172798156,2023-10-21T15:35:42.105218Z,1697902542105,0.6523688944450674
0.4512195587158203,0.4940814971923828,-0.0699397325515747,2023-10-21T15:35:42.125415Z,1697902542125,0.6727608655569615
0.4563250541687011,0.4969115257263183,-0.0802319049835205,2023-10-21T15:35:42.145625Z,1697902542145,0.6794047232975424
0.4516811370849609,0.4908699989318847,-0.0895360708236694,2023-10-21T15:35:42.167873Z,1697902542167,0.6730422820509071
0.4403023719787597,0.47906494140625,-0.0979323387145996,2023-10-21T15:35:42.186297Z,1697902542186,0.6579970667265979
0.4250650405883789,0.4642825126647949,-0.1055351495742797,2023-10-21T15:35:42.206499Z,1697902542206,0.6382602980699968
0.4081850051879883,0.4483804702758789,-0.1123989820480346,2023-10-21T15:35:42.226693Z,1697902542226,0.6166794757007653
0.3913679122924804,0.4326443672180176,-0.1185986995697021,2023-10-21T15:35:42.251234Z,1697902542251,0.5953281807518253
0.3758201599121094,0.4180388450622558,-0.1243300437927246,2023-10-21T15:35:42.267717Z,1697902542267,0.5757214850662158
0.3616514205932617,0.4046730995178222,-0.1296408176422119,2023-10-21T15:35:42.287585Z,1697902542287,0.5579953486270534
0.348447322845459,0.3922538757324219,-0.1344964504241943,2023-10-21T15:35:42.307781Z,1697902542307,0.5416345031494777
0.3362293243408203,0.3809332847595215,-0.1389763355255127,2023-10-21T15:35:42.327959Z,1697902542327,0.5267587187892224
0.3252663612365722,0.3709821701049804,-0.1432538032531738,2023-10-21T15:35:42.351214Z,1697902542351,0.5137583366081566
0.3161544799804687,0.3630013465881347,-0.1476860046386718,2023-10-21T15:35:42.368585Z,1697902542368,0.503522381630304
0.30938720703125,0.3576040267944336,-0.1527419090270996,2023-10-21T15:35:42.388882Z,1697902542388,0.49692169868846975
0.3044509887695312,0.3543181419372558,-0.1584494113922119,2023-10-21T15:35:42.409045Z,1697902542409,0.4932929821507225
0.2999124526977539,0.3516912460327148,-0.1643533706665039,2023-10-21T15:35:42.429316Z,1697902542429,0.4905570734060077
0.294525146484375,0.3484120368957519,-0.1698954105377197,2023-10-21T15:35:42.451421Z,1697902542451,0.4868269301171307
0.2881073951721191,0.344245433807373,-0.1749212741851806,2023-10-21T15:35:42.469961Z,1697902542469,0.48177613267227876
0.2822484970092773,0.3409080505371094,-0.1802420616149902,2023-10-21T15:35:42.490201Z,1697902542490,0.4778804387712791
0.2783546447753906,0.339883804321289,-0.1866641044616699,2023-10-21T15:35:42.510374Z,1697902542510,0.477331956401856
