ACC_X,ACC_Y,ACC_Z,DATE,UNIX_TIMESTAMP,norm
0.6463699340820312,0.0476258993148803,-0.0559936165809631,2023-10-20T12:15:43.769851Z,1697804143769,0.6505363964211199
0.782470703125,0.0389139056205749,-0.0766421556472778,2023-10-20T12:15:43.790928Z,1697804143790,0.7871776885315287
0.9455957412719728,0.0254785418510437,-0.1017249822616577,2023-10-20T12:15:43.810300Z,1697804143810,0.9513928915136384
1.1203222274780271,0.0059315115213394,-0.1286975145339965,2023-10-20T12:15:43.830150Z,1697804143830,1.1277056914184145
1.2918052673339844,-0.0199253261089324,-0.1541637182235717,2023-10-20T12:15:43.850701Z,1697804143850,1.3011242520792896
1.4511899948120115,-0.0516863167285919,-0.1749483346939087,2023-10-20T12:15:43.870868Z,1697804143870,1.4626109517543024
1.5922975540161133,-0.0887179970741272,-0.1881482601165771,2023-10-20T12:15:43.891504Z,1697804143891,1.6058275596450067
1.985162734985352,-0.0061385445296764,-0.1178873181343078,2023-10-20T12:15:45.940574Z,1697804145940,1.9886694511356997
2.0007333755493164,-0.0346851646900177,-0.1518331170082092,2023-10-20T12:15:45.958459Z,1697804145958,2.0067860862849742
2.0379810333251958,-0.0589105784893035,-0.181341290473938,2023-10-20T12:15:45.978465Z,1697804145978,2.0468809960723
2.093740463256836,-0.0791840553283691,-0.206104040145874,2023-10-20T12:15:45.999476Z,1697804145999,2.1053498800583355
2.1593713760375977,-0.0956404507160186,-0.2250740528106689,2023-10-20T12:15:46.019456Z,1697804146019,2.173175134385697
2.225597381591797,-0.1084367036819458,-0.237045407295227,2023-10-20T12:15:46.040181Z,1697804146040,2.240810734705952
2.282464027404785,-0.1180589795112609,-0.2406643629074096,2023-10-20T12:15:46.059538Z,1697804146059,2.2981512775737243
2.319466590881348,-0.1252753734588623,-0.2349308729171753,2023-10-20T12:15:46.079884Z,1697804146079,2.334697346651087
2.3273983001708984,-0.1307611465454101,-0.2193490266799926,2023-10-20T12:15:46.100287Z,1697804146100,2.341366122713344
2.294432640075684,-0.1345090270042419,-0.1935431957244873,2023-10-20T12:15:46.123838Z,1697804146123,2.306506619717695
2.2099266052246094,-0.135996401309967,-0.1579002141952514,2023-10-20T12:15:46.141182Z,1697804146141,2.2197304113994867
2.0672807693481445,-0.1341667771339416,-0.1144619584083557,2023-10-20T12:15:46.161029Z,1697804146160,2.0747896383310382
1.8683834075927732,-0.1280096769332885,-0.067590594291687,2023-10-20T12:15:46.181202Z,1697804146181,1.8739827970377025
1.6223993301391602,-0.1165664792060852,-0.0228289365768432,2023-10-20T12:15:46.201460Z,1697804146201,1.626741679202856
1.3381967544555664,-0.0991884469985961,0.0145571306347846,2023-10-20T12:15:46.224135Z,1697804146224,1.3419466500966881
1.0204381942749023,-0.0755876302719116,0.0398570001125335,2023-10-20T12:15:46.242334Z,1697804146242,1.0240098528056831
0.6735630035400391,-0.0465072393417358,0.0477312207221984,2023-10-20T12:15:46.262197Z,1697804146262,0.676851765514946
0.3036346435546875,-0.0168292522430419,0.0323972702026367,2023-10-20T12:15:46.282447Z,1697804146282,0.30582152248366157
-0.0721855163574218,0.0021973550319671,-0.0106052160263061,2023-10-20T12:15:46.302657Z,1697804146302,0.072993477433869
-0.4249992370605469,-0.0031188204884529,-0.0813146829605102,2023-10-20T12:15:46.323673Z,1697804146323,0.4327194890552706
-0.7167549133300781,-0.0413274765014648,-0.1714725494384765,2023-10-20T12:15:46.343188Z,1697804146343,0.738138470280284
-0.9075756072998048,-0.1096659898757934,-0.2613961696624756,2023-10-20T12:15:46.363721Z,1697804146363,0.9508144244884281
-0.9673795700073242,-0.1910392045974731,-0.3234572410583496,2023-10-20T12:15:46.384199Z,1697804146384,1.0377590264381562
-0.8761038780212402,-0.2505571842193603,-0.3288404941558838,2023-10-20T12:15:46.407228Z,1697804146407,0.968748150059899
-0.6460776329040527,-0.2468543052673339,-0.2641410827636719,2023-10-20T12:15:46.424129Z,1697804146424,0.7403538798247005
-0.3293251991271972,-0.1591205596923828,-0.1431529521942138,2023-10-20T12:15:46.444396Z,1697804146444,0.392768643120736
0.0322351455688476,0.0189347267150878,0.0146167278289794,2023-10-20T12:15:46.464845Z,1697804146464,0.04014071770716507
0.4004273414611816,0.2775087356567383,0.1863083839416504,2023-10-20T12:15:46.485309Z,1697804146485,0.5215975154105132
0.7692093849182129,0.613670825958252,0.3618595600128174,2023-10-20T12:15:46.507206Z,1697804146507,1.0484356449735999
1.1259503364562988,1.0146408081054688,0.5298669338226318,2023-10-20T12:15:46.525599Z,1697804146525,1.6056210939065196
1.4620542526245115,1.4737653732299805,0.6837821006774902,2023-10-20T12:15:46.545898Z,1697804146545,2.185668084169242
1.7692899703979492,1.983388900756836,0.8199465274810791,2023-10-20T12:15:46.565968Z,1697804146565,2.7814619966708993
2.0362281799316406,2.5265908241271973,0.9349696636199952,2023-10-20T12:15:46.586542Z,1697804146586,3.3769889939413718
2.248341560363769,3.08292293548584,1.024599552154541,2023-10-20T12:15:46.607160Z,1697804146607,3.9508553302391247
2.404365062713623,3.645481586456299,1.089547634124756,2023-10-20T12:15:46.627023Z,1697804146626,4.500846742449322
2.52469539642334,4.21622371673584,1.1346697807312012,2023-10-20T12:15:46.647639Z,1697804146647,5.043620206319225
2.620872974395752,4.779523849487305,1.162135362625122,2023-10-20T12:15:46.667907Z,1697804146667,5.573453325973028
2.703317165374756,5.3165483474731445,1.1784095764160156,2023-10-20T12:15:46.690576Z,1697804146690,6.0796594606456535
2.766746997833252,5.801107406616211,1.1833767890930176,2023-10-20T12:15:46.707972Z,1697804146707,6.535144735817323
2.819427013397217,6.226059913635254,1.1775572299957275,2023-10-20T12:15:46.728076Z,1697804146728,6.935389806057406
2.8719711303710938,6.576885223388672,1.1592717170715332,2023-10-20T12:15:46.748535Z,1697804146748,7.26963192529823
2.922896385192871,6.833868026733398,1.1288645267486572,2023-10-20T12:15:46.768988Z,1697804146768,7.517939252556784
2.9663524627685547,6.979545593261719,1.08882737159729,2023-10-20T12:15:46.790504Z,1697804146790,7.6615173867146975
2.9964723587036133,7.008475303649902,1.0434401035308838,2023-10-20T12:15:46.809515Z,1697804146809,7.6932658817957105
3.007252693176269,6.928143501281738,0.996145725250244,2023-10-20T12:15:46.829595Z,1697804146829,7.618073735591081
2.991233587265014,6.758419036865234,0.9482789039611816,2023-10-20T12:15:46.850131Z,1697804146850,7.45137162750205
2.936075210571289,6.508943557739258,0.9028937816619872,2023-10-20T12:15:46.873538Z,1697804146873,7.197367648031502
2.8298826217651367,6.178725242614746,0.861520528793335,2023-10-20T12:15:46.890383Z,1697804146890,6.850335677777062
2.659474849700928,5.766376495361328,0.8221461772918701,2023-10-20T12:15:46.911049Z,1697804146911,6.403110861080183
2.4236607551574707,5.282222747802734,0.7824342250823975,2023-10-20T12:15:46.930691Z,1697804146930,5.8641463087200885
2.145235061645508,4.7443695068359375,0.7419610023498535,2023-10-20T12:15:46.951152Z,1697804146951,5.259427879162892
1.8457450866699217,4.172172546386719,0.6985282897949219,2023-10-20T12:15:46.973567Z,1697804146973,4.615380856812687
1.546886920928955,3.592715263366699,0.6526539325714111,2023-10-20T12:15:46.991909Z,1697804146991,3.965654960466183
1.2541916370391846,3.016225814819336,0.5990192890167236,2023-10-20T12:15:47.012233Z,1697804147012,3.3210599116871857
0.979473114013672,2.455006599426269,0.5343072414398193,2023-10-20T12:15:47.032448Z,1697804147032,2.6966477731726854
0.7289621829986572,1.9016027450561523,0.454859972000122,2023-10-20T12:15:47.052676Z,1697804147052,2.0867142732955113
0.5052003860473633,1.360856056213379,0.3579037189483642,2023-10-20T12:15:47.073182Z,1697804147073,1.495075820094789
0.3101372718811035,0.8515682220458984,0.245389699935913,2023-10-20T12:15:47.093380Z,1697804147093,0.9389194156278289
0.1434183120727539,0.3927125930786133,0.1235227584838867,2023-10-20T12:15:47.113526Z,1697804147113,0.43594708952325273
-0.0031428337097167,-0.008345603942871,-0.0028581619262695,2023-10-20T12:15:47.133533Z,1697804147133,0.009364592809886194
-0.1393990516662597,-0.3527297973632812,-0.1310822963714599,2023-10-20T12:15:47.156546Z,1697804147156,0.40128914011646166
-0.2641670703887939,-0.632594108581543,-0.253692626953125,2023-10-20T12:15:47.174048Z,1697804147173,0.7309716111178686
-0.373323917388916,-0.848045825958252,-0.3629732131958008,2023-10-20T12:15:47.194327Z,1697804147194,0.9951391981614955
-0.4593408107757568,-0.9912114143371582,-0.4477059841156006,2023-10-20T12:15:47.215339Z,1697804147215,1.1806501160671257
-0.5208225250244141,-1.0712904930114746,-0.5058965682983398,2023-10-20T12:15:47.235261Z,1697804147235,1.2941602531393133
-0.5534510612487793,-1.0943098068237305,-0.5350828170776367,2023-10-20T12:15:47.256325Z,1697804147256,1.3379595104635005
-0.5565769672393799,-1.063889980316162,-0.5332820415496826,2023-10-20T12:15:47.275787Z,1697804147275,1.3137844368532865
-0.5323233604431152,-0.9835834503173828,-0.5006129741668701,2023-10-20T12:15:47.295690Z,1697804147295,1.2253235955109563
-0.4824178218841553,-0.8589520454406738,-0.4397833347320556,2023-10-20T12:15:47.316186Z,1697804147316,1.0788581708205287
-0.407773494720459,-0.6970081329345703,-0.356121301651001,2023-10-20T12:15:47.339586Z,1697804147339,0.8825655453636716
-0.3100104331970215,-0.5066781044006348,-0.2568480968475342,2023-10-20T12:15:47.356681Z,1697804147356,0.6471476763646964
-0.1933851242065429,-0.3011965751647949,-0.1510686874389648,2023-10-20T12:15:47.376942Z,1697804147376,0.3885085989780839
-0.0657525062561035,-0.0973992347717285,-0.0483484268188476,2023-10-20T12:15:47.397394Z,1697804147397,0.12707310253918677
0.0646867752075195,0.0909667015075683,0.0447845458984375,2023-10-20T12:15:47.417485Z,1697804147417,0.12027042538065809
0.191561222076416,0.2550916671752929,0.1249866485595703,2023-10-20T12:15:47.439085Z,1697804147439,0.34262096080630255
0.3097410202026367,0.3896503448486328,0.1908118724822998,2023-10-20T12:15:47.458012Z,1697804147457,0.5330816649604732
0.4141082763671875,0.491396427154541,0.2416577339172363,2023-10-20T12:15:47.477848Z,1697804147477,0.6865526735350063
0.5003042221069336,0.5595951080322266,0.2778780460357666,2023-10-20T12:15:47.498552Z,1697804147498,0.8004168964110383
0.5668501853942871,0.5970854759216309,0.3009276390075683,2023-10-20T12:15:47.518729Z,1697804147518,0.8765772311421096
0.6166915893554688,0.6107792854309082,0.3135659694671631,2023-10-20T12:15:47.539540Z,1697804147539,0.9228669834278106
0.6563148498535156,0.6101689338684082,0.319415807723999,2023-10-20T12:15:47.559343Z,1697804147559,0.9513578549737882
0.6934747695922852,0.6044721603393555,0.3223748207092285,2023-10-20T12:15:47.579625Z,1697804147579,0.9747919643255722
0.7349839210510254,0.6003298759460449,0.3258059024810791,2023-10-20T12:15:47.599806Z,1697804147599,1.0033677343070406
0.7844367027282715,0.6006660461425781,0.3316857814788818,2023-10-20T12:15:47.623038Z,1697804147623,1.0421881294713622
0.8422932624816895,0.6054725646972656,0.340501070022583,2023-10-20T12:15:47.640713Z,1697804147640,1.0917856682104123
0.9055604934692384,0.6120038032531738,0.3513100147247314,2023-10-20T12:15:47.660594Z,1697804147660,1.148044942053442
0.9687342643737792,0.6162514686584473,0.3621871471405029,2023-10-20T12:15:47.681105Z,1697804147681,1.2039067560028378
1.023726463317871,0.6132464408874512,0.3703706264495849,2023-10-20T12:15:47.701121Z,1697804147701,1.2495044897458756
1.0626592636108398,0.599003791809082,0.3734495639801025,2023-10-20T12:15:47.722905Z,1697804147722,1.2757408945301234
1.0779523849487305,0.5708703994750977,0.3693244457244873,2023-10-20T12:15:47.741842Z,1697804147741,1.274470440388169
1.0652847290039062,0.528679370880127,0.3568897247314453,2023-10-20T12:15:47.763161Z,1697804147763,1.2416536178266544
1.0232677459716797,0.4742717742919922,0.3354504108428955,2023-10-20T12:15:47.781996Z,1697804147781,1.1766637471982826
0.9535512924194336,0.4110898971557617,0.3050665855407715,2023-10-20T12:15:47.801968Z,1697804147801,1.0822756545500836
