ACC_X,ACC_Y,ACC_Z,DATE,UNIX_TIMESTAMP,norm
0.6871547698974609,0.0030323043465614,-0.1281735897064209,2023-10-20T12:16:02.533534Z,1697804162533,0.699013119877383
0.7985172271728516,-0.0078181028366088,-0.1442627906799316,2023-10-20T12:16:02.553840Z,1697804162553,0.8114817543226372
0.9310636520385742,-0.0209428817033767,-0.162023663520813,2023-10-20T12:16:02.574658Z,1697804162574,0.9452882078933147
1.0769224166870115,-0.0365644693374633,-0.178951621055603,2023-10-20T12:16:02.595383Z,1697804162595,1.092301485240843
1.2270278930664062,-0.0548984110355377,-0.1920990943908691,2023-10-20T12:16:02.614820Z,1697804162614,1.2431867711502576
1.3726444244384766,-0.0761175751686096,-0.1986150741577148,2023-10-20T12:16:02.635290Z,1697804162635,1.3890264752243782
1.5069580078125,-0.1002452373504638,-0.1962339878082275,2023-10-20T12:16:02.655086Z,1697804162655,1.5229836909477361
1.6234130859375,-0.1269596815109253,-0.1832273006439209,2023-10-20T12:16:02.679055Z,1697804162679,1.6386461033498754
1.7171783447265625,-0.1558298468589782,-0.1590263843536377,2023-10-20T12:16:02.696257Z,1697804162696,1.7315524247595107
1.7864313125610352,-0.1864128112792968,-0.1243135929107666,2023-10-20T12:16:02.716503Z,1697804162716,1.8004278491764054
1.833917617797852,-0.21865975856781,-0.0810021162033081,2023-10-20T12:16:02.737047Z,1697804162736,1.848682574623263
1.8664875030517576,-0.2525444030761719,-0.0316303223371505,2023-10-20T12:16:02.757318Z,1697804162757,1.8837608000658248
1.889394760131836,-0.2871471643447876,0.0211633294820785,2023-10-20T12:16:02.778610Z,1697804162778,1.911207456065316
1.9058637619018557,-0.3206225633621216,0.0747426450252533,2023-10-20T12:16:02.797119Z,1697804162797,1.9340894421026558
1.9165716171264648,-0.3502984046936035,0.1263657212257385,2023-10-20T12:16:02.817671Z,1697804162817,1.9524149229624674
1.9193811416625977,-0.3732597827911377,0.1735082864761352,2023-10-20T12:16:02.837716Z,1697804162837,1.963021130272211
1.908055305480957,-0.3863124847412109,0.2138527631759643,2023-10-20T12:16:02.858346Z,1697804162858,1.9584803774761064
1.873141288757324,-0.386073350906372,0.2451634407043457,2023-10-20T12:16:02.878556Z,1697804162878,1.928163901898777
1.806711196899414,-0.3704710006713867,0.2661957740783691,2023-10-20T12:16:02.898710Z,1697804162898,1.8634146885428788
1.702763557434082,-0.3390684127807617,0.2766252756118774,2023-10-20T12:16:02.918766Z,1697804162918,1.758093474243785
1.5548725128173828,-0.2922735214233398,0.2760739326477051,2023-10-20T12:16:02.939027Z,1697804162938,1.6060103233565504
1.355290412902832,-0.2315936088562011,0.2627828121185303,2023-10-20T12:16:02.960784Z,1697804162960,1.3998223134792112
1.0992612838745115,-0.1614835262298584,0.233656644821167,2023-10-20T12:16:02.979496Z,1697804162979,1.13536237701368
0.7924013137817383,-0.0914447307586669,0.185624361038208,2023-10-20T12:16:02.999629Z,1697804162999,0.8189739826620824
0.4532556533813476,-0.0346375107765197,0.117640733718872,2023-10-20T12:16:03.020477Z,1697804163020,0.46955275178073486
0.1142644882202148,-0.0035020112991333,0.0329821109771728,2023-10-20T12:16:03.040590Z,1697804163040,0.11898091021620824
-0.1879758834838867,-0.0040131509304046,-0.0603561401367187,2023-10-20T12:16:03.060934Z,1697804163060,0.19746873627017816
-0.4256715774536133,-0.0342979431152343,-0.1512870788574218,2023-10-20T12:16:03.081367Z,1697804163081,0.4530567524968534
-0.5841073989868164,-0.0872237682342529,-0.2273669242858886,2023-10-20T12:16:03.101546Z,1697804163101,0.6328389665273083
-0.6583337783813477,-0.1518064737319946,-0.2763683795928955,2023-10-20T12:16:03.121815Z,1697804163121,0.7299507178321061
-0.6521759033203125,-0.2133347988128662,-0.2908473014831543,2023-10-20T12:16:03.145136Z,1697804163145,0.7452766587222658
-0.579622745513916,-0.2561159133911133,-0.2712821960449219,2023-10-20T12:16:03.162212Z,1697804163162,0.6893126417672967
-0.4218840599060058,-0.2431559562683105,-0.2036561965942382,2023-10-20T12:16:03.182123Z,1697804163182,0.5278132486805933
-0.1753973960876464,-0.1279788017272949,-0.0856289863586425,2023-10-20T12:16:03.202701Z,1697804163202,0.2333991078618116
0.1565775871276855,0.1405234336853027,0.075531005859375,2023-10-20T12:16:03.222932Z,1697804163222,0.2235359234028494
0.5403881072998047,0.5837874412536621,0.2532494068145752,2023-10-20T12:16:03.244950Z,1697804163244,0.834842706818774
0.9303455352783204,1.1957149505615234,0.4208984375,2023-10-20T12:16:03.263243Z,1697804163263,1.572397072211276
1.2946820259094238,1.963594436645508,0.5646054744720459,2023-10-20T12:16:03.283749Z,1697804163283,2.4188187202934253
1.6079378128051758,2.853595733642578,0.6766409873962402,2023-10-20T12:16:03.303765Z,1697804163303,3.3445949899406915
1.8589634895324707,3.822230339050293,0.7565159797668457,2023-10-20T12:16:03.324256Z,1697804163324,4.3171178403900266
2.056039810180664,4.827184677124023,0.8060777187347412,2023-10-20T12:16:03.345506Z,1697804163345,5.308368195288389
2.22419810295105,5.82994556427002,0.8298759460449219,2023-10-20T12:16:03.364970Z,1697804163364,6.294761041480978
2.368530750274658,6.775822639465332,0.8360335826873779,2023-10-20T12:16:03.384785Z,1697804163384,7.226386545699633
2.495261907577514,7.631468772888184,0.8313736915588379,2023-10-20T12:16:03.404855Z,1697804163404,8.071978062036035
2.598142623901367,8.379690170288086,0.8188765048980713,2023-10-20T12:16:03.428391Z,1697804163428,8.811362617349824
2.687663555145264,9.015951156616213,0.7941149473190308,2023-10-20T12:16:03.445566Z,1697804163445,9.441479184624663
2.7839245796203613,9.53636360168457,0.7529881000518799,2023-10-20T12:16:03.466062Z,1697804163466,9.962904089037917
2.8900983333587646,9.925973892211914,0.6969257593154907,2023-10-20T12:16:03.486783Z,1697804163486,10.361627845051816
3.003314971923828,10.18311882019043,0.630648136138916,2023-10-20T12:16:03.506863Z,1697804163506,10.635484323636316
3.1152493953704834,10.31358814239502,0.5591346025466919,2023-10-20T12:16:03.527114Z,1697804163527,10.788304346377718
3.2102272510528564,10.332054138183594,0.4862096309661865,2023-10-20T12:16:03.546929Z,1697804163546,10.830203207835178
3.2712197303771973,10.256484985351562,0.4143508076667785,2023-10-20T12:16:03.567230Z,1697804163567,10.773488263833828
3.285174369812012,10.095169067382812,0.3468823432922363,2023-10-20T12:16:03.587928Z,1697804163587,10.621917741123795
3.246943712234497,9.84909725189209,0.2889004945755005,2023-10-20T12:16:03.607511Z,1697804163607,10.374527634712503
3.1588048934936523,9.514315605163574,0.247152030467987,2023-10-20T12:16:03.628027Z,1697804163627,10.028027418988392
3.033456325531006,9.093698501586914,0.2236205041408538,2023-10-20T12:16:03.648564Z,1697804163648,9.588911087633484
2.893493413925171,8.600181579589844,0.2191091775894165,2023-10-20T12:16:03.669211Z,1697804163669,9.076532166529722
2.733193635940552,8.03466796875,0.236260175704956,2023-10-20T12:16:03.689473Z,1697804163689,8.490115175321671
2.550701141357422,7.407081604003906,0.2717830538749695,2023-10-20T12:16:03.710307Z,1697804163710,7.838673371768257
2.3373680114746094,6.724024772644043,0.3197495937347412,2023-10-20T12:16:03.729688Z,1697804163729,7.125871046187201
2.106982469558716,5.994780540466309,0.3689607977867126,2023-10-20T12:16:03.749604Z,1697804163749,6.364974542422356
1.881443738937378,5.232743263244629,0.409603476524353,2023-10-20T12:16:03.770318Z,1697804163770,5.57576968765744
1.6654391288757324,4.453230857849121,0.4349739551544189,2023-10-20T12:16:03.790494Z,1697804163790,4.774322455276001
1.458397388458252,3.683792114257813,0.4407331943511963,2023-10-20T12:16:03.810689Z,1697804163810,3.9864135551060063
1.2550625801086426,2.949573516845703,0.4250844717025757,2023-10-20T12:16:03.830641Z,1697804163830,3.233552662219861
1.0451598167419434,2.267446517944336,0.3890825510025024,2023-10-20T12:16:03.852879Z,1697804163852,2.5268672275694586
0.8183846473693848,1.643967628479004,0.3322665691375732,2023-10-20T12:16:03.871393Z,1697804163871,1.8662218698491468
0.5906825065612793,1.1036338806152344,0.2578952312469482,2023-10-20T12:16:03.892918Z,1697804163892,1.2780545826760585
0.3768758773803711,0.6578207015991211,0.1738853454589843,2023-10-20T12:16:03.912265Z,1697804163912,0.7778172123121053
0.1939969062805175,0.3159713745117187,0.0923860073089599,2023-10-20T12:16:03.932186Z,1697804163932,0.3821097793877145
0.0466008186340332,0.0708684921264648,0.022515058517456,2023-10-20T12:16:03.953116Z,1697804163953,0.08775481373511841
-0.0670676231384277,-0.095865249633789,-0.0326330661773681,2023-10-20T12:16:03.972892Z,1697804163972,0.12146245991631871
-0.1401801109313964,-0.1900277137756347,-0.068267822265625,2023-10-20T12:16:03.994192Z,1697804163994,0.24580783360264197
-0.1704607009887695,-0.2212171554565429,-0.0825629234313964,2023-10-20T12:16:04.013366Z,1697804164013,0.29122245238890077
-0.156928539276123,-0.1968035697937011,-0.075042724609375,2023-10-20T12:16:04.034152Z,1697804164034,0.262658755878574
-0.1011381149291992,-0.1235299110412597,-0.0473251342773437,2023-10-20T12:16:04.053737Z,1697804164053,0.16651794362068628
-0.0088477134704589,-0.0105819702148437,-0.0040102005004882,2023-10-20T12:16:04.074294Z,1697804164074,0.014364603556565523
0.1105356216430664,0.1297588348388672,0.0480263233184814,2023-10-20T12:16:04.094696Z,1697804164094,0.1770932144444017
0.2460746765136718,0.2836422920227051,0.1014895439147949,2023-10-20T12:16:04.114488Z,1697804164114,0.38898049278753655
0.3876223564147949,0.4382925033569336,0.1503334045410156,2023-10-20T12:16:04.135Z,1697804164134,0.6041121933981622
0.5259690284729004,0.5823774337768555,0.1901261806488037,2023-10-20T12:16:04.155581Z,1697804164155,0.8074372166635273
0.6523246765136719,0.7058796882629395,0.2179920673370361,2023-10-20T12:16:04.177598Z,1697804164177,0.9855527176730458
0.759131908416748,0.8008890151977539,0.2326312065124511,2023-10-20T12:16:04.195290Z,1697804164195,1.1277507469668644
0.842435359954834,0.8635058403015137,0.2343535423278808,2023-10-20T12:16:04.215648Z,1697804164215,1.2289268711923749
0.903355598449707,0.8947434425354004,0.2246507406234741,2023-10-20T12:16:04.236321Z,1697804164236,1.2911565050268705
0.9481978416442872,0.9009780883789062,0.2058498859405517,2023-10-20T12:16:04.256591Z,1697804164256,1.3240901926151145
0.985835075378418,0.8918437957763672,0.1803491115570068,2023-10-20T12:16:04.278003Z,1697804164277,1.3415595230740123
1.0242629051208496,0.8768267631530762,0.1499814987182617,2023-10-20T12:16:04.297270Z,1697804164297,1.3566260064387234
1.0692501068115234,0.8630886077880859,0.1159010529518127,2023-10-20T12:16:04.317539Z,1697804164317,1.3790035496275452
1.124921798706055,0.8549585342407227,0.0784226655960083,2023-10-20T12:16:04.337432Z,1697804164337,1.4151159892228955
1.1921172142028809,0.8530244827270508,0.0372661352157592,2023-10-20T12:16:04.357676Z,1697804164357,1.4663502260253207
1.2703027725219729,0.8561253547668457,-0.0080047212541103,2023-10-20T12:16:04.377907Z,1697804164377,1.5318889752570273
1.355817794799805,0.8608832359313965,-0.0573244392871856,2023-10-20T12:16:04.398359Z,1697804164398,1.6070618936254786
1.4404983520507812,0.8619422912597656,-0.1093934178352356,2023-10-20T12:16:04.418908Z,1697804164418,1.682244612293
1.5109500885009766,0.852175235748291,-0.1608926057815551,2023-10-20T12:16:04.439386Z,1697804164439,1.742142139137603
1.5510978698730469,0.824582576751709,-0.2067197561264038,2023-10-20T12:16:04.461452Z,1697804164461,1.7687775680905022
1.5480060577392578,0.774834156036377,-0.2415564060211181,2023-10-20T12:16:04.479471Z,1697804164479,1.747867335196777
1.4963455200195312,0.7025961875915527,-0.2615883350372314,2023-10-20T12:16:04.499746Z,1697804164499,1.6736546164392032
1.3998870849609375,0.6121020317077637,-0.2658811807632446,2023-10-20T12:16:04.519999Z,1697804164519,1.5508209278138017
1.2685222625732422,0.5108919143676758,-0.2559306621551513,2023-10-20T12:16:04.540008Z,1697804164539,1.3912799080851346
