ACC_X,ACC_Y,ACC_Z,DATE,UNIX_TIMESTAMP,norm
0.727996826171875,0.0641590356826782,-0.0889326333999633,2023-10-20T12:16:15.969866Z,1697804175969,0.7362097351023733
0.3914833068847656,0.1530723571777343,-0.0911219120025634,2023-10-20T12:16:18.018421Z,1697804178018,0.4301087408416415
0.4564580917358398,0.1550729274749755,-0.1064391136169433,2023-10-20T12:16:18.035583Z,1697804178035,0.493691084843897
0.5457792282104492,0.1592381000518798,-0.1262273788452148,2023-10-20T12:16:18.056889Z,1697804178056,0.582378819690637
0.6436071395874023,0.1588716506958007,-0.1460342407226562,2023-10-20T12:16:18.077078Z,1697804178077,0.6788198221812097
0.7361850738525391,0.1505954265594482,-0.1618978977203369,2023-10-20T12:16:18.097090Z,1697804178097,0.7686731260751577
0.8144464492797852,0.1341999769210815,-0.1713383197784423,2023-10-20T12:16:18.117615Z,1697804178117,0.8430240046253537
0.8707723617553711,0.1109372377395629,-0.1727809906005859,2023-10-20T12:16:18.137962Z,1697804178137,0.8946534789667064
0.9022998809814452,0.0829712748527526,-0.1662896871566772,2023-10-20T12:16:18.157870Z,1697804178157,0.9212391479548004
0.9106664657592772,0.0525979399681091,-0.1531475782394409,2023-10-20T12:16:18.178356Z,1697804178178,0.9249508829489204
0.903132438659668,0.022190049290657,-0.1358512639999389,2023-10-20T12:16:18.201373Z,1697804178201,0.9135623492555184
0.8886623382568359,-0.0065395385026931,-0.1168820858001709,2023-10-20T12:16:18.218415Z,1697804178218,0.8963397452868715
0.8755674362182617,-0.032749205827713,-0.0980743169784545,2023-10-20T12:16:18.238826Z,1697804178238,0.8816515283823627
0.8736143112182617,-0.0567632913589477,-0.080866515636444,2023-10-20T12:16:18.259280Z,1697804178259,0.8791833877880302
0.8924236297607422,-0.0799415111541748,-0.0659511685371398,2023-10-20T12:16:18.279487Z,1697804178279,0.8984209129313306
0.9363088607788086,-0.1037073135375976,-0.0531021952629089,2023-10-20T12:16:18.301562Z,1697804178301,0.9435302500693001
1.003366470336914,-0.1286661624908447,-0.0415323674678802,2023-10-20T12:16:18.319523Z,1697804178319,1.0124347844251327
1.0889368057250977,-0.1544140577316284,-0.0306929349899292,2023-10-20T12:16:18.340483Z,1697804178340,1.100258662472703
1.187164306640625,-0.1799240112304687,-0.0201703459024429,2023-10-20T12:16:18.360723Z,1697804178360,1.2008907459184628
1.2911863327026367,-0.203460693359375,-0.0098699480295181,2023-10-20T12:16:18.380886Z,1697804178380,1.3071556201824124
1.3904943466186523,-0.2224210500717163,0.00026713847182691097,2023-10-20T12:16:18.401039Z,1697804178400,1.4081710559645801
1.470205307006836,-0.2330759763717651,0.0103855729103088,2023-10-20T12:16:18.421277Z,1697804178421,1.4886020004142786
1.5126876831054688,-0.2319042682647705,0.020692154765129,2023-10-20T12:16:18.441572Z,1697804178441,1.5305005003355059
1.5045862197875977,-0.2167322635650634,0.0309594124555587,2023-10-20T12:16:18.461885Z,1697804178461,1.5204312059624279
1.4348220825195312,-0.1862837076187133,0.0403846502304077,2023-10-20T12:16:18.482951Z,1697804178482,1.4474277005032379
1.2979116439819336,-0.1416631937026977,0.0471449792385101,2023-10-20T12:16:18.501970Z,1697804178501,1.3064707211037425
1.091888427734375,-0.0878750681877136,0.049517810344696,2023-10-20T12:16:18.522465Z,1697804178522,1.0965374502362306
0.8220186233520508,-0.0353011488914489,0.0458448529243469,2023-10-20T12:16:18.542508Z,1697804178542,0.8240525097287866
0.5098600387573242,0.0023627951741218,0.0345836281776428,2023-10-20T12:16:18.562900Z,1697804178562,0.5110370527276711
0.2019548416137695,0.0129190683364868,0.0164159536361694,2023-10-20T12:16:18.583701Z,1697804178583,0.20303237158569173
-0.0365686416625976,-0.0049597024917602,-0.0034834146499633,2023-10-20T12:16:18.603008Z,1697804178602,0.03706748412662802
-0.1443634033203125,-0.0313417911529541,-0.0157203674316406,2023-10-20T12:16:18.624030Z,1697804178623,0.14856052653071877
-0.092289924621582,-0.0281100273132324,-0.0111788511276245,2023-10-20T12:16:18.644493Z,1697804178644,0.09712142160585147
0.1085395812988281,0.0426888465881347,0.0140891075134277,2023-10-20T12:16:18.666728Z,1697804178666,0.11748055703849526
0.4112939834594726,0.1986489295959472,0.0555191040039062,2023-10-20T12:16:18.684293Z,1697804178684,0.4601157560538142
0.7884712219238281,0.4512672424316406,0.1068812608718872,2023-10-20T12:16:18.705303Z,1697804178705,0.914741819214294
1.208852767944336,0.7991538047790527,0.1610708236694336,2023-10-20T12:16:18.725490Z,1697804178725,1.4580519978714985
1.668684005737305,1.245574951171875,0.2132400274276733,2023-10-20T12:16:18.745151Z,1697804178745,2.0931876598355132
2.148897647857666,1.7758245468139648,0.2565839290618896,2023-10-20T12:16:18.766890Z,1697804178766,2.799490888480988
2.618782997131348,2.361604690551758,0.2863293886184692,2023-10-20T12:16:18.786078Z,1697804178786,3.5379634847305783
3.0492095947265625,2.974935531616211,0.2994584441184997,2023-10-20T12:16:18.806136Z,1697804178806,4.270549839259464
3.412276268005371,3.5935287475585938,0.2937994003295898,2023-10-20T12:16:18.827109Z,1697804178827,4.964211546293805
3.6971378326416016,4.207893371582031,0.2702377438545227,2023-10-20T12:16:18.846600Z,1697804178846,5.607871540821653
3.910399913787842,4.820287704467773,0.2362697124481201,2023-10-20T12:16:18.867086Z,1697804178867,6.211459121383274
4.074056625366211,5.419342994689941,0.1955922245979309,2023-10-20T12:16:18.886930Z,1697804178886,6.782733386998816
4.194130420684815,5.982900619506836,0.1568809449672699,2023-10-20T12:16:18.907499Z,1697804178907,7.308244757772067
4.282022476196289,6.4889421463012695,0.1175243854522705,2023-10-20T12:16:18.927755Z,1697804178927,7.775339133817319
4.331667423248291,6.917495727539063,0.0788617730140686,2023-10-20T12:16:18.949152Z,1697804178949,8.162187757298566
4.347436904907227,7.259675025939941,0.04295065253973,2023-10-20T12:16:18.968070Z,1697804178968,8.461969858310711
4.337459087371826,7.502407073974609,0.0092959366738796,2023-10-20T12:16:18.988770Z,1697804178988,8.666011173122692
4.3057050704956055,7.63323974609375,-0.0181935392320156,2023-10-20T12:16:19.008791Z,1697804179008,8.763890470579076
4.259742259979248,7.650600433349609,-0.0377307161688804,2023-10-20T12:16:19.029292Z,1697804179029,8.756626903046913
4.204736232757568,7.560569763183594,-0.0495521053671836,2023-10-20T12:16:19.049517Z,1697804179049,8.651270273328457
4.134758949279785,7.366579055786133,-0.0540303215384483,2023-10-20T12:16:19.069433Z,1697804179069,8.447818524888051
4.031764984130859,7.066226005554199,-0.0510290637612342,2023-10-20T12:16:19.089824Z,1697804179089,8.135679615999054
3.872379779815674,6.661935806274414,-0.0392739996314048,2023-10-20T12:16:19.110280Z,1697804179110,7.7057287970115755
3.641623020172119,6.16926383972168,-0.0202830508351326,2023-10-20T12:16:19.134015Z,1697804179133,7.163912754025985
3.3382644653320312,5.606621742248535,0.0046426868066191,2023-10-20T12:16:19.150561Z,1697804179150,6.525200269393526
2.97358512878418,4.998439788818359,0.037631519138813,2023-10-20T12:16:19.170870Z,1697804179170,5.816186462949898
2.5728702545166016,4.357178688049316,0.0745602995157241,2023-10-20T12:16:19.191365Z,1697804179191,5.060654770326797
2.147585868835449,3.6911449432373047,0.1141631305217742,2023-10-20T12:16:19.211372Z,1697804179211,4.271967845897083
1.715808391571045,3.0104198455810547,0.1461064219474792,2023-10-20T12:16:19.234450Z,1697804179234,3.4681368441553992
1.2811994552612305,2.3162498474121094,0.1633204817771911,2023-10-20T12:16:19.251493Z,1697804179251,2.6520103656596494
0.8612608909606934,1.6222219467163086,0.157701313495636,2023-10-20T12:16:19.272010Z,1697804179271,1.8434326868602244
0.4804267883300781,0.9506139755249025,0.1217907667160034,2023-10-20T12:16:19.292910Z,1697804179292,1.0720586832192003
0.1554827690124511,0.3237648010253906,0.0528056621551513,2023-10-20T12:16:19.312768Z,1697804179312,0.3630247592085614
-0.1089439392089843,-0.2362337112426757,-0.0478380918502807,2023-10-20T12:16:19.333319Z,1697804179333,0.26450639169920764
-0.3239309787750244,-0.7161784172058105,-0.1766221523284912,2023-10-20T12:16:19.353085Z,1697804179353,0.8056290641323177
-0.5092060565948486,-1.1170682907104492,-0.328575849533081,2023-10-20T12:16:19.373534Z,1697804179373,1.2708636681721712
-0.669426441192627,-1.4334917068481443,-0.4930551052093506,2023-10-20T12:16:19.393987Z,1697804179393,1.6571462127836625
-0.8044958114624023,-1.662492275238037,-0.6517715454101562,2023-10-20T12:16:19.417613Z,1697804179417,1.9585454355957734
-0.9070911407470704,-1.804129123687744,-0.7893056869506836,2023-10-20T12:16:19.434241Z,1697804179434,2.168109706636825
-0.9760184288024902,-1.8573684692382808,-0.8877248764038086,2023-10-20T12:16:19.454342Z,1697804179454,2.278263606360948
-1.012547731399536,-1.832597732543945,-0.938117504119873,2023-10-20T12:16:19.475027Z,1697804179474,2.29428241705847
-1.0122900009155271,-1.7375202178955078,-0.9362351894378662,2023-10-20T12:16:19.495051Z,1697804179495,2.2181622761851685
-0.9724819660186768,-1.5802555084228516,-0.880812406539917,2023-10-20T12:16:19.517145Z,1697804179517,2.053961816014834
-0.8928513526916504,-1.3739900588989258,-0.7802577018737793,2023-10-20T12:16:19.535384Z,1697804179535,1.8148923663098413
-0.7742395401000977,-1.1305441856384275,-0.6460833549499512,2023-10-20T12:16:19.555657Z,1697804179555,1.5149259792737897
-0.6185493469238281,-0.8592514991760254,-0.4897112846374511,2023-10-20T12:16:19.576399Z,1697804179576,1.1665048545622962
-0.4308576583862304,-0.5710978507995605,-0.3226938247680664,2023-10-20T12:16:19.600094Z,1697804179600,0.7848072257066613
-0.2192616462707519,-0.2780418395996094,-0.1551902294158935,2023-10-20T12:16:19.617147Z,1697804179617,0.38660954644117734
0.0054574012756347,0.0066356658935546,0.0036513805389404,2023-10-20T12:16:19.637290Z,1697804179637,0.009335302371875038
0.2320470809936523,0.2709307670593261,0.1467654705047607,2023-10-20T12:16:19.657924Z,1697804179657,0.38573233163621795
0.4508342742919922,0.5055561065673828,0.2694416046142578,2023-10-20T12:16:19.677491Z,1697804179677,0.7289974609428103
0.6535229682922363,0.7031192779541016,0.3684718608856201,2023-10-20T12:16:19.698738Z,1697804179698,1.0282220097725512
0.8336114883422852,0.8584866523742676,0.4422144889831543,2023-10-20T12:16:19.717632Z,1697804179717,1.2757198360406758
0.9868597984313964,0.9696617126464844,0.4906749725341797,2023-10-20T12:16:19.737832Z,1697804179737,1.467957093175406
1.1119370460510254,1.038502216339111,0.5156161785125732,2023-10-20T12:16:19.758974Z,1697804179758,1.6064715656574304
1.210829257965088,1.0707063674926758,0.520550012588501,2023-10-20T12:16:19.779015Z,1697804179778,1.698084783790119
1.2877082824707031,1.074169635772705,0.5099239349365234,2023-10-20T12:16:19.798653Z,1697804179798,1.7527280013113449
1.347097873687744,1.0565695762634275,0.488133430480957,2023-10-20T12:16:19.819173Z,1697804179819,1.7802489142624487
1.3932723999023438,1.023934841156006,0.459132432937622,2023-10-20T12:16:19.839162Z,1697804179839,1.7889810312683676
1.432233810424805,0.981353759765625,0.4263389110565185,2023-10-20T12:16:19.860089Z,1697804179860,1.7877678139543014
1.4732961654663086,0.9349288940429688,0.3926384449005127,2023-10-20T12:16:19.882201Z,1697804179882,1.7885353159800983
1.5252056121826172,0.8898801803588867,0.3595285415649414,2023-10-20T12:16:19.900514Z,1697804179900,1.8020542908105546
1.592299461364746,0.8486971855163574,0.3270106315612793,2023-10-20T12:16:19.920394Z,1697804179920,1.83375037573819
1.6734027862548828,0.8106474876403809,0.2938594818115234,2023-10-20T12:16:19.940688Z,1697804179940,1.8824929294193387
1.7660322189331057,0.7736947536468506,0.2586902379989624,2023-10-20T12:16:19.961185Z,1697804179961,1.9453518985948042
1.8675355911254885,0.7354006767272949,0.2200260162353515,2023-10-20T12:16:19.982050Z,1697804179982,2.019137139292869
1.9719438552856443,0.6921343803405762,0.1767681837081909,2023-10-20T12:16:20.001591Z,1697804180001,2.097345836913821
