ACC_X,ACC_Y,ACC_Z,DATE,UNIX_TIMESTAMP,norm
-0.130472183227539,-0.0750603675842285,0.0131729245185852,2023-10-21T15:19:23.000613Z,1697901563000,0.15109789978160634
-0.1122646331787109,-0.0637273788452148,0.0115438103675842,2023-10-21T15:19:23.020837Z,1697901563020,0.12960627390305915
-0.0859670639038086,-0.0481386184692382,0.0089824199676513,2023-10-21T15:19:23.041035Z,1697901563041,0.09893607296049127
-0.0515642166137695,-0.0284609794616699,0.0054635405540466,2023-10-21T15:19:23.064329Z,1697901563064,0.05915019917375638
-0.0107307434082031,-0.005836009979248,0.0011497139930725,2023-10-21T15:19:23.081725Z,1697901563081,0.012269054928414139
0.0333499908447265,0.0178885459899902,-0.0036227107048034,2023-10-21T15:19:23.101997Z,1697901563101,0.03801770639886148
0.0775480270385742,0.0411114692687988,-0.0085238814353942,2023-10-21T15:19:23.122152Z,1697901563122,0.08818449953217108
0.1199941635131836,0.0630254745483398,-0.0133296847343444,2023-10-21T15:19:23.142386Z,1697901563142,0.13619284200863524
0.1603927612304687,0.0836024284362793,-0.0179552435874938,2023-10-21T15:19:23.164274Z,1697901563164,0.18176246770954554
0.1968793869018554,0.1018829345703125,-0.0220992565155029,2023-10-21T15:19:23.182985Z,1697901563182,0.2227779218909429
0.226053237915039,0.1160883903503418,-0.025282859802246,2023-10-21T15:19:23.203254Z,1697901563203,0.2553738509436442
0.2445325851440429,0.1245312690734863,-0.0270634889602661,2023-10-21T15:19:23.223445Z,1697901563223,0.27574744714862565
0.2514762878417969,0.1269326210021972,-0.0273571610450744,2023-10-21T15:19:23.247511Z,1697901563247,0.2830205432148413
0.2484445571899414,0.1242933273315429,-0.0264013409614563,2023-10-21T15:19:23.264198Z,1697901563264,0.2790529699197183
0.2389116287231445,0.1185216903686523,-0.0246520042419433,2023-10-21T15:19:23.284312Z,1697901563284,0.267831810545598
0.2261762619018554,0.1113519668579101,-0.0225343704223632,2023-10-21T15:19:23.304484Z,1697901563304,0.2531062224074194
0.2135305404663086,0.1044282913208007,-0.0204285383224487,2023-10-21T15:19:23.324729Z,1697901563324,0.23857469463043987
0.2030916213989257,0.0987730026245117,-0.0185596942901611,2023-10-21T15:19:23.347514Z,1697901563347,0.22659826782667736
0.1957244873046875,0.0947942733764648,-0.0169914960861206,2023-10-21T15:19:23.365347Z,1697901563365,0.2181346834753689
0.1915845870971679,0.0925531387329101,-0.0157248973846435,2023-10-21T15:19:23.385686Z,1697901563385,0.21334950175771022
0.1906709671020507,0.0920305252075195,-0.01473069190979,2023-10-21T15:19:23.405892Z,1697901563405,0.21223107347828293
0.1922988891601562,0.0928664207458496,-0.0139249563217163,2023-10-21T15:19:23.431137Z,1697901563431,0.2140021945750485
0.1952352523803711,0.0944380760192871,-0.0131818652153015,2023-10-21T15:19:23.447300Z,1697901563447,0.21727658765915445
0.1979398727416992,0.095959186553955,-0.0123774409294128,2023-10-21T15:19:23.466856Z,1697901563466,0.22032149180018257
0.1989784240722656,0.0966968536376953,-0.0114255547523498,2023-10-21T15:19:23.487069Z,1697901563487,0.22152480233849928
0.1977701187133789,0.0963306427001953,-0.0103369653224945,2023-10-21T15:19:23.507244Z,1697901563507,0.22022594177574797
0.1938323974609375,0.0946187973022461,-0.0091386437416076,2023-10-21T15:19:23.530559Z,1697901563530,0.21588707677351696
0.1868400573730468,0.0914177894592285,-0.0078860223293304,2023-10-21T15:19:23.547762Z,1697901563547,0.20815525123559567
0.1761560440063476,0.0864324569702148,-0.0066231489181518,2023-10-21T15:19:23.568048Z,1697901563568,0.1963297928473066
0.1619882583618164,0.0797643661499023,-0.0054307878017425,2023-10-21T15:19:23.588230Z,1697901563588,0.18064341507660284
0.1452465057373047,0.071843147277832,-0.0043979883193969,2023-10-21T15:19:23.608396Z,1697901563608,0.16210283014475316
0.1275882720947265,0.0634694099426269,-0.0035886764526367,2023-10-21T15:19:23.630547Z,1697901563630,0.14254827874536016
1.6138324737548828,0.0721660256385803,0.3785798549652099,2023-10-21T15:19:47.965840Z,1697901587965,1.6592124322062416
1.6005449295043943,0.0440733730792999,0.3923006057739258,2023-10-21T15:19:47.986128Z,1697901587986,1.648510327194647
1.5647687911987305,0.0191696435213089,0.3990278244018554,2023-10-21T15:19:48.006284Z,1697901588006,1.614958838419465
1.521620750427246,-0.0018360754474997,0.4017200469970703,2023-10-21T15:19:48.030084Z,1697901588029,1.573757311488386
1.4864845275878906,-0.018918476998806,0.4029808044433594,2023-10-21T15:19:48.046867Z,1697901588046,1.5402557217163537
1.4687175750732422,-0.0323749482631683,0.4046411514282226,2023-10-21T15:19:48.067176Z,1697901588067,1.5237827647119604
1.4680099487304688,-0.0428273379802703,0.40712571144104,2023-10-21T15:19:48.087350Z,1697901588087,1.5240205823303314
1.4745960235595703,-0.0511873066425323,0.4095015525817871,2023-10-21T15:19:48.107550Z,1697901588107,1.531256051294462
1.4751644134521484,-0.0583334863185882,0.4096550941467285,2023-10-21T15:19:48.130112Z,1697901588130,1.532099911396795
1.4604196548461914,-0.0650164484977722,0.4048948287963867,2023-10-21T15:19:48.148197Z,1697901588148,1.5169022807097323
1.4217758178710938,-0.0715951323509216,0.3920938968658447,2023-10-21T15:19:48.168602Z,1697901588168,1.4765872690832762
1.3460111618041992,-0.0776292085647583,0.3674778938293457,2023-10-21T15:19:48.188794Z,1697901588188,1.3974306223126545
1.2184486389160156,-0.0818347930908203,0.3282184600830078,2023-10-21T15:19:48.213368Z,1697901588213,1.2645320781125995
1.0290708541870115,-0.0821195840835571,0.2732830047607422,2023-10-21T15:19:48.229908Z,1697901588229,1.0679017041461736
0.7792387008666992,-0.0754395127296447,0.2041232585906982,2023-10-21T15:19:48.249525Z,1697901588249,0.809055237735343
0.4787893295288086,-0.0571938753128051,0.1237823963165283,2023-10-21T15:19:48.269769Z,1697901588269,0.4978277243000884
0.1387453079223632,-0.0206294059753417,0.0353760719299316,2023-10-21T15:19:48.289984Z,1697901588289,0.14466270883181517
-0.2313213348388672,0.0429053306579589,-0.0581090450286865,2023-10-21T15:19:48.313074Z,1697901588313,0.24233672537329132
-0.6177892684936523,0.1428735256195068,-0.1526367664337158,2023-10-21T15:19:48.330562Z,1697901588330,0.6522073344084768
-0.9985275268554688,0.2878315448760986,-0.2419968843460083,2023-10-21T15:19:48.350848Z,1697901588350,1.0669895557816091
-1.3393797874450684,0.4812026023864746,-0.3171858787536621,2023-10-21T15:19:48.371004Z,1697901588370,1.4581155788347662
-1.599956512451172,0.7155959606170654,-0.3680706024169922,2023-10-21T15:19:48.391291Z,1697901588391,1.7909255676744318
-1.7487921714782717,0.9711217880249025,-0.3869526386260986,2023-10-21T15:19:48.413091Z,1697901588413,2.0374209017137503
-1.7702312469482422,1.2149739265441897,-0.3692283630371094,2023-10-21T15:19:48.431917Z,1697901588431,2.1785797882852944
-1.6661787033081057,1.40501070022583,-0.3144035339355469,2023-10-21T15:19:48.452093Z,1697901588452,2.2020572474978297
-1.455190658569336,1.4960312843322754,-0.2290607094764709,2023-10-21T15:19:48.472349Z,1697901588472,2.0995614459010716
-1.1693854331970217,1.4506001472473145,-0.1289074420928955,2023-10-21T15:19:48.496498Z,1697901588496,1.867704528878765
-0.8488836288452148,1.254263401031494,-0.0365485548973083,2023-10-21T15:19:48.512983Z,1697901588512,1.5149639901177823
-0.5299286842346191,0.9190587997436525,0.0251059681177139,2023-10-21T15:19:48.533248Z,1697901588533,1.0611898027195725
-0.2359299659729004,0.4726142883300781,0.0385558605194091,2023-10-21T15:19:48.553437Z,1697901588553,0.5296355055678502
0.0234375,-0.053288459777832,-0.0071688890457153,2023-10-21T15:19:48.573632Z,1697901588573,0.05865466155296947
0.2481181621551513,-0.6276988983154297,-0.1174907684326171,2023-10-21T15:19:48.596371Z,1697901588596,0.6851077360565571
0.443619966506958,-1.2199182510375977,-0.2934508323669433,2023-10-21T15:19:48.614295Z,1697901588614,1.3308315464081537
0.6183230876922607,-1.7983169555664062,-0.5308198928833008,2023-10-21T15:19:48.634568Z,1697901588634,1.9743447196808257
0.781163215637207,-2.32990837097168,-0.8179140090942383,2023-10-21T15:19:48.654719Z,1697901588654,2.5899174335992217
0.9440479278564452,-2.7928857803344727,-1.1400012969970703,2023-10-21T15:19:48.679685Z,1697901588679,3.1608607101926443
1.1185967922210691,-3.1786794662475586,-1.4817068576812744,2023-10-21T15:19:48.696408Z,1697901588696,3.6811298733963254
1.31488299369812,-3.487381935119629,-1.8274831771850584,2023-10-21T15:19:48.715606Z,1697901588715,4.1509570958285815
1.5432820320129397,-3.7235050201416016,-2.1637039184570312,2023-10-21T15:19:48.735811Z,1697901588735,4.5746938380726645
1.8135733604431152,-3.899394035339356,-2.484055519104004,2023-10-21T15:19:48.756020Z,1697901588755,4.966372317752682
2.112550973892212,-4.0197367668151855,-2.7834248542785645,2023-10-21T15:19:48.779527Z,1697901588779,5.326219035225118
2.4018430709838867,-4.075921058654785,-3.052243709564209,2023-10-21T15:19:48.796675Z,1697901588796,5.630113167298961
2.648745536804199,-4.045832633972168,-3.274791717529297,2023-10-21T15:19:48.816917Z,1697901588816,5.84028042255274
2.853508472442627,-3.9269394874572754,-3.4392662048339844,2023-10-21T15:19:48.837094Z,1697901588837,5.949110552693253
3.029305458068848,-3.729325771331787,-3.544939994812012,2023-10-21T15:19:48.857316Z,1697901588857,5.970859388213972
3.1810178756713867,-3.4771695137023926,-3.591761589050293,2023-10-21T15:19:48.879545Z,1697901588879,5.9253973592442994
3.284862995147705,-3.17661190032959,-3.580345630645752,2023-10-21T15:19:48.897957Z,1697901588897,5.805175526811437
3.334899425506592,-2.8343334197998047,-3.5230088233947754,2023-10-21T15:19:48.918249Z,1697901588918,5.618415371130519
3.337495803833008,-2.4596800804138184,-3.4326171875,2023-10-21T15:19:48.938412Z,1697901588938,5.382542623566289
3.287041664123535,-2.052553176879883,-3.30726957321167,2023-10-21T15:19:48.962708Z,1697901588962,5.09466873069245
3.206984043121338,-1.6227049827575684,-3.152792453765869,2023-10-21T15:19:48.979449Z,1697901588979,4.7810059998314305
3.1496171951293945,-1.189131736755371,-2.993858337402344,2023-10-21T15:19:48.999291Z,1697901588999,4.5052536563047285
3.1576976776123047,-0.7706085443496704,-2.8611326217651367,2023-10-21T15:19:49.019518Z,1697901589019,4.330239257956944
3.2367405891418457,-0.3645220994949341,-2.769282341003418,2023-10-21T15:19:49.045025Z,1697901589044,4.275311764843807
3.3734235763549805,0.0409286692738533,-2.7126541137695312,2023-10-21T15:19:49.062865Z,1697901589062,4.328989965618645
3.560337543487549,0.4689135551452636,-2.6880645751953125,2023-10-21T15:19:49.096380Z,1697901589096,4.485707804369995
3.816779136657715,0.9409620761871338,-2.69338607788086,2023-10-21T15:19:49.100539Z,1697901589100,4.7652430338200436
4.129179954528809,1.4694881439208984,-2.70686149597168,2023-10-21T15:19:49.132503Z,1697901589132,5.151370852538251
4.455947399139404,2.048719644546509,-2.700608730316162,2023-10-21T15:19:49.162988Z,1697901589162,5.598750478464625
4.760299682617188,2.656362533569336,-2.6576390266418457,2023-10-21T15:19:49.165174Z,1697901589165,6.064631907544433
5.005185127258301,3.261275291442871,-2.569763422012329,2023-10-21T15:19:49.212250Z,1697901589212,6.5031898888019555
5.16970682144165,3.834310531616211,-2.4392709732055664,2023-10-21T15:19:49.214444Z,1697901589214,6.88315688861198
5.249396800994873,4.355191230773926,-2.2780966758728027,2023-10-21T15:19:49.222112Z,1697901589222,7.191215606246834
5.239950180053711,4.807658672332764,-2.100575685501098,2023-10-21T15:19:49.262955Z,1697901589262,7.415057518969071
5.136805534362793,5.184893608093262,-1.91926383972168,2023-10-21T15:19:49.265117Z,1697901589265,7.546752050489653
4.971295356750488,5.497437477111816,-1.746967077255249,2023-10-21T15:19:49.296249Z,1697901589296,7.614951760045249
4.799307823181152,5.764115333557129,-1.5926454067230225,2023-10-21T15:19:49.303136Z,1697901589303,7.667783288001309
4.647130012512207,5.974930763244629,-1.4585797786712646,2023-10-21T15:19:49.330401Z,1697901589330,7.70863606285233
4.505016803741455,6.112600326538086,-1.3496248722076416,2023-10-21T15:19:49.378846Z,1697901589378,7.712363220807736
4.360278129577637,6.167708396911621,-1.2677009105682373,2023-10-21T15:19:49.380998Z,1697901589380,7.658963235011819
4.225471496582031,6.171042919158936,-1.2224092483520508,2023-10-21T15:19:49.384162Z,1697901589384,7.578302214149649
4.134413719177246,6.15186882019043,-1.2126731872558594,2023-10-21T15:19:49.404440Z,1697901589404,7.5106220142702895
4.0935587882995605,6.117592811584473,-1.2268548011779783,2023-10-21T15:19:49.430348Z,1697901589430,7.4623949282243185
4.094115257263184,6.066149711608887,-1.2523188591003418,2023-10-21T15:19:49.462807Z,1697901589462,7.424840374598375
4.132092952728272,5.988953590393066,-1.2820677757263184,2023-10-21T15:19:49.465291Z,1697901589465,7.388197010057628
4.17344856262207,5.863470077514648,-1.3115732669830322,2023-10-21T15:19:49.497039Z,1697901589497,7.315611983246952
4.164795875549316,5.664429664611816,-1.336627721786499,2023-10-21T15:19:49.505737Z,1697901589505,7.156665548771655
4.086704730987549,5.402071475982666,-1.3546066284179688,2023-10-21T15:19:49.530358Z,1697901589530,6.907857186396911
3.960828304290772,5.099407196044922,-1.3599884510040283,2023-10-21T15:19:49.562602Z,1697901589562,6.598612217277962
3.8155980110168457,4.781180381774902,-1.352043628692627,2023-10-21T15:19:49.566631Z,1697901589566,6.2647023870758005
3.653307437896729,4.435837745666504,-1.3219563961029053,2023-10-21T15:19:49.596870Z,1697901589596,5.896683852375726
3.446072578430176,4.047857284545898,-1.2667477130889893,2023-10-21T15:19:49.607074Z,1697901589607,5.464907554613882
3.1906909942626958,3.6213302612304688,-1.1906304359436035,2023-10-21T15:19:49.628826Z,1697901589628,4.971130929352783
2.906914710998535,3.1756391525268555,-1.1017544269561768,2023-10-21T15:19:49.647734Z,1697901589647,4.4439509427308845
2.612163543701172,2.733031272888184,-1.007620096206665,2023-10-21T15:19:49.667957Z,1697901589667,3.9125639388904307
2.322315216064453,2.314101219177246,-0.9134552478790284,2023-10-21T15:19:49.694295Z,1697901589694,3.403323802584738
2.0460338592529297,1.933699607849121,-0.8234260082244873,2023-10-21T15:19:49.712264Z,1697901589712,2.9331687843739567
1.7846498489379885,1.5982604026794434,-0.7390892505645752,2023-10-21T15:19:49.745779Z,1697901589745,2.507122717057852
1.5406122207641602,1.3103938102722168,-0.6611576080322266,2023-10-21T15:19:49.748990Z,1697901589748,2.127850402501668
1.3224411010742188,1.0720572471618652,-0.5914127826690674,2023-10-21T15:19:49.780027Z,1697901589779,1.8022004013169675
1.1393513679504397,0.883519172668457,-0.5322244167327881,2023-10-21T15:19:49.789468Z,1697901589789,1.5368768649081324
0.997267723083496,0.7421178817749023,-0.4859497547149658,2023-10-21T15:19:49.813342Z,1697901589813,1.334701849126517
0.8948297500610352,0.6413702964782715,-0.4533519744873047,2023-10-21T15:19:49.861829Z,1697901589861,1.1906318287239168
0.8247113227844238,0.5724549293518066,-0.4329590797424316,2023-10-21T15:19:49.864206Z,1697901589864,1.093300954357687
0.7759761810302734,0.5254769325256348,-0.4209547042846679,2023-10-21T15:19:49.870730Z,1697901589870,1.0273596756746248
0.738368034362793,0.4918031692504883,-0.4127454757690429,2023-10-21T15:19:49.912320Z,1697901589912,0.9784766421440078
0.7048234939575195,0.4651355743408203,-0.4042549133300781,2023-10-21T15:19:49.914347Z,1697901589914,0.9362421135066289
0.671381950378418,0.4412312507629394,-0.3924942016601562,2023-10-21T15:19:49.945637Z,1697901589945,0.8941422919650988
0.6348767280578613,0.416722297668457,-0.3750343322753906,2023-10-21T15:19:49.951569Z,1697901589951,0.8469809228009695
0.5918264389038086,0.388427734375,-0.3497700691223144,2023-10-21T15:19:49.971899Z,1697901589971,0.7896035333451135
0.5401577949523926,0.3544702529907226,-0.3162655830383301,2023-10-21T15:19:49.995338Z,1697901589995,0.7193354730010976
0.4788680076599121,0.3140864372253418,-0.2752704620361328,2023-10-21T15:19:50.012438Z,1697901590012,0.635404348488951
0.4089598655700683,0.2680120468139648,-0.2288622856140136,2023-10-21T15:19:50.032730Z,1697901590032,0.5398671824263533
0.3320274353027344,0.2173490524291992,-0.1794295310974121,2023-10-21T15:19:50.052914Z,1697901590052,0.43552013158454506
0.2500219345092773,0.1633586883544922,-0.1293821334838867,2023-10-21T15:19:50.073117Z,1697901590073,0.3254792854568532
0.1665325164794922,0.1084346771240234,-0.0818104743957519,2023-10-21T15:19:50.095276Z,1697901590095,0.21490489051866996
0.0868873596191406,0.0562305450439453,-0.0401802062988281,2023-10-21T15:19:50.113791Z,1697901590113,0.1110213332460992
0.0182061195373535,0.0116639137268066,-0.0078635215759277,2023-10-21T15:19:50.133995Z,1697901590133,0.023007491032484888
-0.034550666809082,-0.021801471710205,0.0138542652130126,2023-10-21T15:19:50.154257Z,1697901590154,0.043139232842918755
-0.0699052810668945,-0.043220043182373,0.0259130001068115,2023-10-21T15:19:50.178686Z,1697901590178,0.08617542589545653
-0.0879673957824707,-0.0530481338500976,0.0300867557525634,2023-10-21T15:19:50.195225Z,1697901590195,0.10704008640430986
-0.0875921249389648,-0.0513410568237304,0.0276427268981933,2023-10-21T15:19:50.215098Z,1697901590215,0.10522549509253369
-0.0660648345947265,-0.0375299453735351,0.0192723274230957,2023-10-21T15:19:50.236394Z,1697901590236,0.07838674488758993
-0.0216846466064453,-0.011911392211914,0.005864143371582,2023-10-21T15:19:50.255683Z,1697901590255,0.02542623331040078
0.044478416442871,0.0235819816589355,-0.0111854076385498,2023-10-21T15:19:50.279126Z,1697901590279,0.051570851575947006
0.1282796859741211,0.0656037330627441,-0.0300946235656738,2023-10-21T15:19:50.296150Z,1697901590296,0.14719107986881036
0.224736213684082,0.1108994483947753,-0.0493209362030029,2023-10-21T15:19:50.316414Z,1697901590316,0.25541653850771584
0.3277978897094726,0.1563081741333007,-0.0674581527709961,2023-10-21T15:19:50.336678Z,1697901590336,0.3693701452122855
0.4318189620971679,0.1994109153747558,-0.0834732055664062,2023-10-21T15:19:50.356905Z,1697901590356,0.48290796767583455
0.5320463180541992,0.2385382652282714,-0.0967432260513305,2023-10-21T15:19:50.378495Z,1697901590378,0.5910440257036375
0.6245059967041016,0.2724614143371582,-0.1069408655166626,2023-10-21T15:19:50.397496Z,1697901590397,0.6896950854830276
0.7053489685058594,0.3000831604003906,-0.113938570022583,2023-10-21T15:19:50.417740Z,1697901590417,0.7749510102367487
0.7692670822143555,0.3198752403259277,-0.1176193952560424,2023-10-21T15:19:50.438053Z,1697901590437,0.8413835839214806
0.8124284744262695,0.3310475349426269,-0.1183249950408935,2023-10-21T15:19:50.461800Z,1697901590461,0.8852306484197285
0.833430290222168,0.3337092399597168,-0.1167689561843872,2023-10-21T15:19:50.478515Z,1697901590478,0.905319222497065
0.8335247039794922,0.3288116455078125,-0.1137839555740356,2023-10-21T15:19:50.498857Z,1697901590498,0.9032315976048056
0.8152847290039062,0.3175718784332275,-0.1100338697433471,2023-10-21T15:19:50.519063Z,1697901590519,0.8818438296032225
0.7818260192871094,0.3013341426849365,-0.1059199571609497,2023-10-21T15:19:50.539296Z,1697901590539,0.8445550469371257
0.7380046844482422,0.2820351123809814,-0.1018956899642944,2023-10-21T15:19:50.561538Z,1697901590561,0.796603697277763
0.689605712890625,0.2619476318359375,-0.0984132289886474,2023-10-21T15:19:50.579845Z,1697901590579,0.7442162083130244
0.6420383453369141,0.2431328296661377,-0.0958846807479858,2023-10-21T15:19:50.600140Z,1697901590600,0.6931959908615808
0.5996952056884766,0.2271604537963867,-0.0945601463317871,2023-10-21T15:19:50.620372Z,1697901590620,0.6482112562807079
0.5649709701538086,0.2148106098175048,-0.0944515466690063,2023-10-21T15:19:50.644846Z,1697901590644,0.6117653879346816
0.5388755798339844,0.2063791751861572,-0.0954823493957519,2023-10-21T15:19:50.661461Z,1697901590661,0.5848898473542381
0.5208749771118164,0.2016239166259765,-0.097408652305603,2023-10-21T15:19:50.681243Z,1697901590681,0.566966834198287
0.5093498229980469,0.19991135597229,-0.0999019145965576,2023-10-21T15:19:50.701479Z,1697901590701,0.5562213453067756
0.5016746520996094,0.2001826763153076,-0.1024112701416015,2023-10-21T15:19:50.721739Z,1697901590721,0.5497623383863608
0.4943084716796875,0.2009103298187255,-0.1041536331176757,2023-10-21T15:19:50.744834Z,1697901590744,0.5436486044254955
0.4832754135131836,0.2003140449523925,-0.1041972637176513,2023-10-21T15:19:50.762247Z,1697901590762,0.5334209516674177
0.4656410217285156,0.1969203948974609,-0.1018459796905517,2023-10-21T15:19:50.782532Z,1697901590782,0.5157245452972703
0.4405288696289062,0.19010591506958,-0.0969541072845459,2023-10-21T15:19:50.802797Z,1697901590802,0.48949570257593417
0.4074735641479492,0.1794731616973877,-0.0896089076995849,2023-10-21T15:19:50.822968Z,1697901590822,0.4541751617913537
0.3672895431518554,0.1651692390441894,-0.0802710056304931,2023-10-21T15:19:50.844724Z,1697901590844,0.4106408654530938
0.322117805480957,0.1479573249816894,-0.0697014331817627,2023-10-21T15:19:50.863563Z,1697901590863,0.36126104192286856
0.2755584716796875,0.1293587684631347,-0.0589147806167602,2023-10-21T15:19:50.883799Z,1697901590883,0.3100598549762046
0.2323312759399414,0.1115798950195312,-0.0490645170211792,2023-10-21T15:19:50.904046Z,1697901590904,0.262364672894375
0.1963348388671875,0.0966463088989257,-0.0410051345825195,2023-10-21T15:19:50.927917Z,1697901590927,0.2226416381518102
0.1700172424316406,0.0860109329223632,-0.0351978540420532,2023-10-21T15:19:50.944652Z,1697901590944,0.19375921200139154
0.1545476913452148,0.0805897712707519,-0.031793475151062,2023-10-21T15:19:50.964872Z,1697901590964,0.1771737147428734
0.1496868133544922,0.0806593894958496,-0.0306565761566162,2023-10-21T15:19:50.985128Z,1697901590985,0.1727770380221636
0.1541833877563476,0.0859823226928711,-0.0314381122589111,2023-10-21T15:19:51.005332Z,1697901591005,0.17931489558340977
0.1667985916137695,0.0962891578674316,-0.0337859392166137,2023-10-21T15:19:51.027832Z,1697901591027,0.19553736669983293
0.1853876113891601,0.1106853485107421,-0.0371348857879638,2023-10-21T15:19:51.045912Z,1697901591045,0.21908631306863466
0.2067546844482422,0.1274609565734863,-0.0406857728958129,2023-10-21T15:19:51.066218Z,1697901591066,0.24627043490449685
0.2274532318115234,0.1444540023803711,-0.0436204671859741,2023-10-21T15:19:51.086462Z,1697901591086,0.27295544805469174
0.2441968917846679,0.1593413352966308,-0.0452339649200439,2023-10-21T15:19:51.111134Z,1697901591111,0.29507269388032825
0.2546606063842773,0.1702489852905273,-0.0451596975326538,2023-10-21T15:19:51.127740Z,1697901591127,0.3096387245124595
0.257720947265625,0.1760683059692382,-0.0434088706970214,2023-10-21T15:19:51.147256Z,1697901591147,0.31512610980615213
0.2526636123657226,0.1760115623474121,-0.0401793718338012,2023-10-21T15:19:51.167520Z,1697901591167,0.3105372006936237
0.2402081489562988,0.1703448295593261,-0.0359646081924438,2023-10-21T15:19:51.187751Z,1697901591187,0.2966660897794746
0.2220802307128906,0.1601252555847168,-0.0313363075256347,2023-10-21T15:19:51.211360Z,1697901591211,0.275575199390117
0.2005290985107422,0.1469082832336425,-0.0268186330795288,2023-10-21T15:19:51.228282Z,1697901591228,0.250026402830664
0.1780624389648437,0.1325149536132812,-0.0228179693222045,2023-10-21T15:19:51.248571Z,1697901591248,0.22313024184369948
0.1571378707885742,0.1187849044799804,-0.019591748714447,2023-10-21T15:19:51.268852Z,1697901591268,0.19795454171595744
0.1393671035766601,0.1069927215576171,-0.0172011852264404,2023-10-21T15:19:51.289062Z,1697901591289,0.1765403999056522
0.1252632141113281,0.0976090431213378,-0.0155544877052307,2023-10-21T15:19:51.310978Z,1697901591310,0.15956296624322255
0.11529541015625,0.0910615921020507,-0.0145826339721679,2023-10-21T15:19:51.329623Z,1697901591329,0.1476411134231397
0.1095266342163086,0.0874676704406738,-0.0141977071762084,2023-10-21T15:19:51.349906Z,1697901591349,0.14088382399740837
