ACC_X,ACC_Y,ACC_Z,DATE,UNIX_TIMESTAMP,norm
0.3780856132507324,0.3370676040649414,-0.2226991653442382,2023-10-21T15:37:36.394984Z,1697902656394,0.553315659368396
0.3724632263183594,0.3266377449035644,-0.21913743019104,2023-10-21T15:37:36.415197Z,1697902656415,0.541703133335871
0.3671913146972656,0.3176498413085937,-0.2157421112060547,2023-10-21T15:37:36.436191Z,1697902656436,0.5312960961837823
0.3616852760314941,0.3097958564758301,-0.2122700214385986,2023-10-21T15:37:36.455739Z,1697902656455,0.5213907110690736
0.3555722236633301,0.302886962890625,-0.2085466384887695,2023-10-21T15:37:36.476042Z,1697902656476,0.5115308582626835
0.3489360809326172,0.2969918251037597,-0.2046358585357666,2023-10-21T15:37:36.496225Z,1697902656496,0.5018330074374806
0.3424673080444336,0.2925472259521484,-0.2009522914886474,2023-10-21T15:37:36.519424Z,1697902656519,0.4932033657083421
0.3375592231750488,0.2905168533325195,-0.1983232498168945,2023-10-21T15:37:36.536764Z,1697902656536,0.48752269961377737
0.335397720336914,0.2917346954345703,-0.197451114654541,2023-10-21T15:37:36.557117Z,1697902656557,0.4864028227773981
0.3369803428649902,0.2970409393310547,-0.1989247798919677,2023-10-21T15:37:36.577356Z,1697902656577,0.4912841735402734
0.3420829772949219,0.306396484375,-0.2026236057281494,2023-10-21T15:37:36.597556Z,1697902656597,0.501952083958812
0.3499302864074707,0.3193349838256836,-0.2080957889556884,2023-10-21T15:37:36.619316Z,1697902656619,0.5174262214279969
0.3595504760742187,0.335123062133789,-0.2147126197814941,2023-10-21T15:37:36.638117Z,1697902656638,0.5363632357950694
0.370676040649414,0.3535566329956054,-0.2222063541412353,2023-10-21T15:37:36.658405Z,1697902656658,0.5583714567091116
0.3833751678466797,0.3746447563171386,-0.2304823398590088,2023-10-21T15:37:36.678665Z,1697902656678,0.5834872078668749
0.3974323272705078,0.3981595039367676,-0.2392783164978027,2023-10-21T15:37:36.698833Z,1697902656698,0.6113407871889848
0.4114751815795898,0.4227547645568847,-0.2476794719696045,2023-10-21T15:37:36.719281Z,1697902656719,0.6398269585181962
0.4233160018920898,0.4461841583251953,-0.2543103694915771,2023-10-21T15:37:36.739440Z,1697902656739,0.665545268655115
0.4306812286376953,0.4659013748168945,-0.257791519165039,2023-10-21T15:37:36.759730Z,1697902656759,0.6848407691650417
0.4318175315856933,0.4795646667480469,-0.257089614868164,2023-10-21T15:37:36.779956Z,1697902656779,0.6946536692849087
0.4260191917419433,0.4855971336364746,-0.2518329620361328,2023-10-21T15:37:36.802863Z,1697902656802,0.6933374133106558
0.4131293296813965,0.4829111099243164,-0.2420313358306884,2023-10-21T15:37:36.820476Z,1697902656820,0.680042756490592
0.3934473991394043,0.4710574150085449,-0.2280631065368652,2023-10-21T15:37:36.840805Z,1697902656840,0.6547585239516472
0.3676996231079101,0.4503555297851562,-0.2105994224548339,2023-10-21T15:37:36.861073Z,1697902656861,0.6183649672968848
0.3372077941894531,0.4220395088195801,-0.1906054019927978,2023-10-21T15:37:36.881321Z,1697902656881,0.5728497732701175
0.3036332130432129,0.3878903388977051,-0.169121503829956,2023-10-21T15:37:36.902470Z,1697902656902,0.5208206275972828
0.2689242362976074,0.3501768112182617,-0.1472694873809814,2023-10-21T15:37:36.921827Z,1697902656921,0.4654378002447787
0.2346053123474121,0.3108224868774414,-0.1259069442749023,2023-10-21T15:37:36.942169Z,1697902656942,0.4092710954208071
0.2015943527221679,0.2711501121520996,-0.1055831909179687,2023-10-21T15:37:36.962345Z,1697902656962,0.3539921984648621
0.1702384948730468,0.2318716049194336,-0.0865921974182128,2023-10-21T15:37:36.982566Z,1697902656982,0.3004060501359269
0.1405005455017089,0.1932663917541504,-0.0690417289733886,2023-10-21T15:37:37.002870Z,1697902657002,0.24871482024113753
0.1122379302978515,0.1554832458496093,-0.0529942512512207,2023-10-21T15:37:37.023169Z,1697902657023,0.19894919804601607
0.0853266716003418,0.1187148094177246,-0.0385103225708007,2023-10-21T15:37:37.043452Z,1697902657043,0.15118495892775302
0.0592517852783203,0.0825681686401367,-0.0254371166229248,2023-10-21T15:37:37.063635Z,1697902657063,0.10476317785053346
0.0327672958374023,0.0456085205078125,-0.0133280754089355,2023-10-21T15:37:37.085817Z,1697902657085,0.05771889130530546
0.004378318786621,0.0060696601867675,-0.0016813278198242,2023-10-21T15:37:37.104226Z,1697902657104,0.007670548443092167
-0.0270171165466308,-0.0372200012207031,0.0097777843475341,2023-10-21T15:37:37.124480Z,1697902657124,0.047019763335327994
-0.0615348815917968,-0.0840387344360351,0.0209941864013671,2023-10-21T15:37:37.144672Z,1697902657144,0.10625350065189491
-0.0972280502319336,-0.1314311027526855,0.0314072370529174,2023-10-21T15:37:37.164903Z,1697902657164,0.16647475202561055
-0.1307625770568847,-0.1748442649841308,0.0403496026992797,2023-10-21T15:37:37.185733Z,1697902657185,0.22203031098115494
-0.1581315994262695,-0.2092504501342773,0.0472337007522583,2023-10-21T15:37:37.205597Z,1697902657205,0.2665002365951327
-0.1761846542358398,-0.2310132980346679,0.0517395734786987,2023-10-21T15:37:37.225808Z,1697902657225,0.2951019480125714
-0.1828694343566894,-0.2378926277160644,0.0535752773284912,2023-10-21T15:37:37.245996Z,1697902657245,0.304802300982808
-0.1771221160888672,-0.2287859916687011,0.0523879528045654,2023-10-21T15:37:37.269021Z,1697902657268,0.2940404250960784
-0.1580438613891601,-0.2027912139892578,0.0476036071777343,2023-10-21T15:37:37.286591Z,1697902657286,0.26147321470920315
-0.1252026557922363,-0.1597180366516113,0.0386514663696289,2023-10-21T15:37:37.306902Z,1697902657306,0.20659015490046279
-0.079444408416748,-0.100893497467041,0.0252488851547241,2023-10-21T15:37:37.327095Z,1697902657327,0.13087558237263097
-0.0229086875915527,-0.0290131568908691,0.0075138807296752,2023-10-21T15:37:37.347313Z,1697902657347,0.037723065140061594
0.0404272079467773,0.051126480102539,-0.0136783123016357,2023-10-21T15:37:37.368907Z,1697902657368,0.06659859110723265
0.1054987907409668,0.133338451385498,-0.0367114543914794,2023-10-21T15:37:37.387888Z,1697902657387,0.17394501530433917
0.1678237915039062,0.2119321823120117,-0.0598220825195312,2023-10-21T15:37:37.408153Z,1697902657408,0.2768731775583398
0.2241849899291992,0.2827229499816894,-0.0815966129302978,2023-10-21T15:37:37.428375Z,1697902657428,0.36993132254190214
0.2725005149841308,0.3432145118713379,-0.101205825805664,2023-10-21T15:37:37.448614Z,1697902657448,0.4497725547459556
0.31170654296875,0.392549991607666,-0.1184034347534179,2023-10-21T15:37:37.468882Z,1697902657468,0.5150493551128035
0.3416609764099121,0.4311118125915527,-0.133324384689331,2023-10-21T15:37:37.489253Z,1697902657489,0.5660079586985834
0.3635344505310058,0.4606409072875976,-0.1464824676513672,2023-10-21T15:37:37.509460Z,1697902657509,0.6048177043695523
0.3792014122009277,0.4835076332092285,-0.1585345268249511,2023-10-21T15:37:37.529674Z,1697902657529,0.6345916313523042
0.3902583122253418,0.5016517639160156,-0.1699566841125488,2023-10-21T15:37:37.552138Z,1697902657552,0.6579067692124432
0.3975553512573242,0.5161480903625488,-0.1809189319610595,2023-10-21T15:37:37.570248Z,1697902657570,0.6761588337366974
0.4018354415893554,0.5279173851013184,-0.1915473937988281,2023-10-21T15:37:37.590551Z,1697902657590,0.6905497025418585
0.4038023948669433,0.5377435684204102,-0.2018887996673584,2023-10-21T15:37:37.610814Z,1697902657610,0.7021279134950568
0.404299259185791,0.546422004699707,-0.2120232582092285,2023-10-21T15:37:37.631030Z,1697902657630,0.7120314320448805
0.4040203094482422,0.5544290542602539,-0.2219033241271972,2023-10-21T15:37:37.652144Z,1697902657652,0.7210166932278842
0.4019551277160644,0.5597934722900391,-0.2304680347442627,2023-10-21T15:37:37.671562Z,1697902657671,0.7266719833285573
0.3960537910461426,0.5589985847473145,-0.2359595298767089,2023-10-21T15:37:37.691900Z,1697902657691,0.7245791350095306
0.3838520050048828,0.5478048324584961,-0.2363183498382568,2023-10-21T15:37:37.712099Z,1697902657712,0.7094214957847177
0.3640327453613281,0.5238995552062988,-0.2303440570831298,2023-10-21T15:37:37.735220Z,1697902657735,0.6782690972425174
0.336277961730957,0.4869027137756347,-0.2177572250366211,2023-10-21T15:37:37.752599Z,1697902657752,0.6305357478237489
0.3012428283691406,0.4381070137023926,-0.1990590095520019,2023-10-21T15:37:37.772925Z,1697902657772,0.5677230719134919
0.2601571083068847,0.3796191215515136,-0.17513108253479,2023-10-21T15:37:37.793171Z,1697902657793,0.49240561991101445
0.2145676612854004,0.3137822151184082,-0.1469616889953613,2023-10-21T15:37:37.813386Z,1697902657813,0.4075491354750622
0.1666908264160156,0.2439408302307129,-0.1160180568695068,2023-10-21T15:37:37.835195Z,1697902657835,0.31741636659863626
0.1185975074768066,0.1733894348144531,-0.0837769508361816,2023-10-21T15:37:37.853959Z,1697902657853,0.22615888745834126
0.0731449127197265,0.1066794395446777,-0.0524013042449951,2023-10-21T15:37:37.874280Z,1697902657874,0.13955851018450827
-0.3142147064208984,0.4094257354736328,0.2255048751831054,2023-10-21T15:37:50.052639Z,1697902670052,0.5632164444781814
-0.1237297058105468,0.1810445785522461,0.1039404869079589,2023-10-21T15:37:50.072825Z,1697902670072,0.2426722158422518
0.0385394096374511,-0.0629982948303222,-0.0379285812377929,2023-10-21T15:37:50.093224Z,1697902670093,0.08302197613549869
0.1694836616516113,-0.3081073760986328,-0.1956310272216797,2023-10-21T15:37:50.113510Z,1697902670113,0.40240075246578727
0.2691326141357422,-0.5412440299987793,-0.3642301559448242,2023-10-21T15:37:50.133747Z,1697902670133,0.7057202494618167
0.3398325443267822,-0.7502851486206055,-0.5370488166809082,2023-10-21T15:37:50.153968Z,1697902670153,0.9832778823519942
0.3857600688934326,-0.9242267608642578,-0.7042398452758789,2023-10-21T15:37:50.176493Z,1697902670176,1.2243200953690574
0.4128074645996094,-1.0558810234069824,-0.8541455268859863,2023-10-21T15:37:50.194499Z,1697902670194,1.4194574032071106
0.4267652034759521,-1.1427021026611328,-0.977114200592041,2023-10-21T15:37:50.214830Z,1697902670214,1.56289756392499
0.4316298961639404,-1.184126377105713,-1.0668129920959473,2023-10-21T15:37:50.235068Z,1697902670235,1.6512266968301785
0.4270117282867431,-1.1745429039001465,-1.1162285804748535,2023-10-21T15:37:50.255282Z,1697902670255,1.6756659252564416
0.4106323719024658,-1.1081657409667969,-1.1154742240905762,2023-10-21T15:37:50.276436Z,1697902670276,1.6250947661343347
0.3787586688995361,-0.9837465286254884,-1.0509023666381836,2023-10-21T15:37:50.295887Z,1697902670295,1.4884929109858005
0.3283374309539795,-0.8115143775939941,-0.9189133644104004,2023-10-21T15:37:50.316146Z,1697902670316,1.2691583135681963
0.2552766799926758,-0.6008210182189941,-0.7191143035888672,2023-10-21T15:37:50.336320Z,1697902670336,0.971224722146164
0.1591882705688476,-0.3591113090515136,-0.4539747238159179,2023-10-21T15:37:50.359743Z,1697902670359,0.6003289828411846
0.0435588359832763,-0.0943946838378906,-0.1265559196472168,2023-10-21T15:37:50.376828Z,1697902670376,0.16378073551802752
-0.0883388519287109,0.1818399429321289,0.2609162330627441,2023-10-21T15:37:50.397194Z,1697902670397,0.33007089887067415
-0.2372477054595947,0.4521832466125488,0.704561710357666,2023-10-21T15:37:50.417447Z,1697902670417,0.8701513465857692
-0.4089117050170898,0.6958904266357422,1.2025375366210938,2023-10-21T15:37:50.437637Z,1697902670437,1.4482985863992228
-0.6124827861785889,0.8881340026855469,1.746720314025879,2023-10-21T15:37:50.459505Z,1697902670459,2.053034102376773
-0.8595736026763916,0.9968299865722656,2.314122200012207,2023-10-21T15:37:50.478170Z,1697902670478,2.662273155996032
-1.1619696617126465,0.974468469619751,2.859090805053711,2023-10-21T15:37:50.498473Z,1697902670498,3.2363810845705947
-1.5304195880889893,0.7673935890197754,3.318899154663086,2023-10-21T15:37:50.518681Z,1697902670518,3.7344569397569
-1.9561572074890137,0.3428370058536529,3.598275184631348,2023-10-21T15:37:50.538918Z,1697902670538,4.109947996912817
-2.3796515464782715,-0.2599940896034241,3.596728801727295,2023-10-21T15:37:50.559677Z,1697902670559,4.3205088221712735
-2.696907520294189,-0.913427233695984,3.2824740409851074,2023-10-21T15:37:50.579538Z,1697902670579,4.345376314431001
-2.815612316131592,-1.4649436473846436,2.7352919578552246,2023-10-21T15:37:50.599780Z,1697902670599,4.189934927832651
-2.719141960144043,-1.815913200378418,2.094939947128296,2023-10-21T15:37:50.620099Z,1697902670620,3.8833036364413336
-2.455928325653076,-1.941293716430664,1.4821929931640625,2023-10-21T15:37:50.642813Z,1697902670642,3.4636831990213746
-2.093227863311768,-1.8721928596496584,0.9691524505615234,2023-10-21T15:37:50.660613Z,1697902670660,2.9708526493074885
-1.6901721954345703,-1.667489528656006,0.5832756757736206,2023-10-21T15:37:50.680899Z,1697902670680,2.4448750259157865
-1.2885451316833496,-1.385667324066162,0.3191226720809936,2023-10-21T15:37:50.701139Z,1697902670701,1.918922033123194
-0.9126133918762208,-1.0644488334655762,0.1522933840751648,2023-10-21T15:37:50.721342Z,1697902670721,1.4103573295201157
-0.5747852325439453,-0.7249174118041992,0.0567229986190795,2023-10-21T15:37:50.742711Z,1697902670742,0.9268769152696793
-0.2846050262451172,-0.3856945037841797,0.0111311376094818,2023-10-21T15:37:50.761904Z,1697902670761,0.47946237958549953
-0.0447669029235839,-0.0646352767944336,-0.0005385801196098328,2023-10-21T15:37:50.782285Z,1697902670782,0.07862623399481798
0.1519203186035156,0.231846809387207,0.0076760947704315,2023-10-21T15:37:50.802436Z,1697902670802,0.2772934342146352
0.3227667808532715,0.5168485641479492,0.023747444152832,2023-10-21T15:37:50.822849Z,1697902670822,0.6098153607346837
0.4874725341796875,0.8104944229125977,0.0393489599227905,2023-10-21T15:37:50.842971Z,1697902670842,0.9466145053816768
0.6558027267456055,1.1168365478515625,0.0486297309398651,2023-10-21T15:37:50.863236Z,1697902670863,1.2960578466084183
0.8252120018005371,1.4205551147460938,0.0475558340549469,2023-10-21T15:37:50.883459Z,1697902670883,1.643536808014837
0.9843835830688475,1.698460578918457,0.0335275083780288,2023-10-21T15:37:50.903693Z,1697902670903,1.9633908094349228
1.1240034103393557,1.9356803894042969,0.0065721608698368,2023-10-21T15:37:50.925959Z,1697902670925,2.2383666879395276
1.2433924674987793,2.1301889419555664,-0.0322765707969665,2023-10-21T15:37:50.944282Z,1697902670944,2.466732967648685
1.3490056991577148,2.295212745666504,-0.0832738280296325,2023-10-21T15:37:50.964581Z,1697902670964,2.663597652549025
1.4441943168640137,2.440834045410156,-0.1447227001190185,2023-10-21T15:37:50.984823Z,1697902670984,2.839773357510307
1.5194487571716309,2.5572023391723637,-0.2088087201118469,2023-10-21T15:37:51.004975Z,1697902671004,2.98188018047905
1.557140827178955,2.620022773742676,-0.2673434019088745,2023-10-21T15:37:51.025758Z,1697902671025,3.0595227381312324
1.5428729057312012,2.612557411193848,-0.3155049085617065,2023-10-21T15:37:51.045612Z,1697902671045,3.0504846135245254
1.4800453186035156,2.5412654876708984,-0.353131890296936,2023-10-21T15:37:51.065877Z,1697902671065,2.9619700464204697
1.3880572319030762,2.42905330657959,-0.3823415040969848,2023-10-21T15:37:51.086145Z,1697902671086,2.823683387173359
1.288013935089111,2.295377731323242,-0.4031424522399902,2023-10-21T15:37:51.109086Z,1697902671109,2.6627547133065868
1.190751552581787,2.1483688354492188,-0.415834903717041,2023-10-21T15:37:51.126640Z,1697902671126,2.491243982482392
1.0978493690490725,1.9913530349731443,-0.4210751056671142,2023-10-21T15:37:51.146978Z,1697902671146,2.312588245155365
1.007615089416504,1.8263702392578125,-0.4196200370788574,2023-10-21T15:37:51.167176Z,1697902671167,2.1276741749583112
0.9207720756530762,1.6585197448730469,-0.4131324291229248,2023-10-21T15:37:51.187358Z,1697902671187,1.9414395080530424
0.8397445678710938,1.4946346282958984,-0.4038283824920654,2023-10-21T15:37:51.208968Z,1697902671208,1.7613009322306017
0.7648749351501465,1.3383827209472656,-0.392841100692749,2023-10-21T15:37:51.227944Z,1697902671227,1.5907941741610188
0.6944155693054199,1.1895742416381836,-0.3795454502105713,2023-10-21T15:37:51.248305Z,1697902671248,1.428759814677882
0.6257681846618652,1.0461311340332031,-0.3624300956726074,2023-10-21T15:37:51.268461Z,1697902671268,1.2717435845239626
0.5565299987792969,0.9059219360351562,-0.3397507667541504,2023-10-21T15:37:51.288649Z,1697902671288,1.1161768575100466
0.4865064620971679,0.7697739601135254,-0.3111691474914551,2023-10-21T15:37:51.309025Z,1697902671308,0.9623236075674967
0.4165630340576172,0.6401004791259766,-0.2776453495025635,2023-10-21T15:37:51.329278Z,1697902671329,0.8126132689176279
0.3478846549987793,0.5192456245422363,-0.2407033443450927,2023-10-21T15:37:51.349543Z,1697902671349,0.6697595477249944
0.2819666862487793,0.4091687202453613,-0.2020022869110107,2023-10-21T15:37:51.369786Z,1697902671369,0.5364039314720042
0.2200918197631836,0.3108229637145996,-0.1628704071044922,2023-10-21T15:37:51.392265Z,1697902671392,0.4142198611961769
0.1647138595581054,0.2264881134033203,-0.1254749298095703,2023-10-21T15:37:51.410352Z,1697902671410,0.30687371841563615
0.1194252967834472,0.1598572731018066,-0.0932073593139648,2023-10-21T15:37:51.430641Z,1697902671430,0.2202370566131925
0.0853428840637207,0.1112203598022461,-0.0678901672363281,2023-10-21T15:37:51.450902Z,1697902671450,0.1557640879735485
0.061098575592041,0.0776467323303222,-0.0493545532226562,2023-10-21T15:37:51.471151Z,1697902671471,0.11044420720328003
0.0438461303710937,0.0545196533203125,-0.0358767509460449,2023-10-21T15:37:51.492143Z,1697902671492,0.07862580368511689
0.031466007232666,0.0384511947631835,-0.0260319709777832,2023-10-21T15:37:51.511653Z,1697902671511,0.05609159921833755
0.0237011909484863,0.0285534858703613,-0.0197601318359375,2023-10-21T15:37:51.531973Z,1697902671531,0.04204177467590018
0.0210485458374023,0.0250306129455566,-0.0176067352294921,2023-10-21T15:37:51.552177Z,1697902671552,0.03714256307446929
0.0237255096435546,0.027839183807373,-0.0198025703430175,2023-10-21T15:37:51.575458Z,1697902671575,0.0415940110484341
0.0317282676696777,0.0367159843444824,-0.0262999534606933,2023-10-21T15:37:51.592674Z,1697902671592,0.055194510847888
0.0437965393066406,0.0499968528747558,-0.0359420776367187,2023-10-21T15:37:51.613017Z,1697902671612,0.07556225974295638
0.057204246520996,0.0645031929016113,-0.0464162826538085,2023-10-21T15:37:51.633251Z,1697902671633,0.09791557082474474
0.0702271461486816,0.0783596038818359,-0.0563406944274902,2023-10-21T15:37:51.653465Z,1697902671653,0.11935808906512511
0.0830373764038086,0.0918006896972656,-0.065835952758789,2023-10-21T15:37:51.675337Z,1697902671675,0.1402032281532024
0.0972161293029785,0.1065001487731933,-0.0760736465454101,2023-10-21T15:37:51.694006Z,1697902671693,0.16303514094845237
0.1143956184387207,0.1240749359130859,-0.0881829261779785,2023-10-21T15:37:51.714377Z,1697902671714,0.19041317104949582
0.1342320442199707,0.1440801620483398,-0.101816177368164,2023-10-21T15:37:51.734565Z,1697902671734,0.2216841644439527
0.1554751396179199,0.1652808189392089,-0.1160216331481933,2023-10-21T15:37:51.754755Z,1697902671754,0.25485542471527106
0.1771783828735351,0.1868858337402343,-0.1301283836364746,2023-10-21T15:37:51.775348Z,1697902671775,0.288534036880062
0.1992239952087402,0.2089118957519531,-0.1440567970275879,2023-10-21T15:37:51.795366Z,1697902671795,0.32262476845935856
0.2219634056091308,0.2317581176757812,-0.1580324172973632,2023-10-21T15:37:51.815666Z,1697902671815,0.3577063368953263
0.2451467514038086,0.255002498626709,-0.1717414855957031,2023-10-21T15:37:51.835852Z,1697902671835,0.39321538869215755
0.2679896354675293,0.2776718139648437,-0.1845126152038574,2023-10-21T15:37:51.858541Z,1697902671858,0.42774406618667754
0.2888417243957519,0.2980866432189941,-0.1951913833618164,2023-10-21T15:37:51.876437Z,1697902671876,0.45867729915069805
0.3072457313537597,0.3158779144287109,-0.2035999298095703,2023-10-21T15:37:51.896679Z,1697902671896,0.4854191257845128
0.3228569030761719,0.3306388854980469,-0.2096967697143554,2023-10-21T15:37:51.916867Z,1697902671916,0.5074755045280143
0.3339147567749023,0.3404750823974609,-0.2125947475433349,2023-10-21T15:37:51.937160Z,1697902671937,0.5221291729147245
0.3390040397644043,0.3439040184020996,-0.2116847038269043,2023-10-21T15:37:51.958491Z,1697902671958,0.5272609663951824
0.337613582611084,0.3404946327209472,-0.2067973613739013,2023-10-21T15:37:51.977697Z,1697902671977,0.522192181812857
0.3309574127197265,0.3315906524658203,-0.1988296508789062,2023-10-21T15:37:51.998007Z,1697902671997,0.5089385030683683
0.3213071823120117,0.3194766044616699,-0.1892473697662353,2023-10-21T15:37:52.018255Z,1697902672018,0.49103785308984155
0.3097028732299804,0.3055315017700195,-0.1789484024047851,2023-10-21T15:37:52.038509Z,1697902672038,0.47041247749605203
0.2963476181030273,0.2903423309326172,-0.1682462692260742,2023-10-21T15:37:52.058744Z,1697902672058,0.4476911736847352
0.2814302444458008,0.2743301391601562,-0.1573767662048339,2023-10-21T15:37:52.079063Z,1697902672079,0.4233526358504749
0.2648029327392578,0.257418155670166,-0.1462326049804687,2023-10-21T15:37:52.099335Z,1697902672099,0.39720105087388113
0.2474689483642578,0.2405400276184082,-0.1352710723876953,2023-10-21T15:37:52.119570Z,1697902672119,0.37067323657919166
0.2323436737060547,0.2263216972351074,-0.1258864402770996,2023-10-21T15:37:52.141907Z,1697902672141,0.3479259823529208
0.2214679718017578,0.2165198326110839,-0.1189906597137451,2023-10-21T15:37:52.160078Z,1697902672160,0.3317946315825925
0.2149181365966797,0.2111234664916992,-0.1145939826965332,2023-10-21T15:37:52.180396Z,1697902672180,0.32232701471008296
0.2111730575561523,0.2086997032165527,-0.1118996143341064,2023-10-21T15:37:52.200639Z,1697902672200,0.31728717283939
0.2080821990966797,0.2072596549987793,-0.1098027229309082,2023-10-21T15:37:52.220840Z,1697902672220,0.3135464943739047
0.2050023078918457,0.2060980796813964,-0.1079030036926269,2023-10-21T15:37:52.241772Z,1697902672241,0.31007325407915043
0.2017498016357422,0.204845905303955,-0.106046438217163,2023-10-21T15:37:52.261413Z,1697902672261,0.30644848578252887
0.1982617378234863,0.2032623291015625,-0.10416841506958,2023-10-21T15:37:52.281736Z,1697902672281,0.3024472678248045
0.1944794654846191,0.2011966705322265,-0.1022307872772216,2023-10-21T15:37:52.301912Z,1697902672301,0.2979152506934766
0.1902523040771484,0.1984877586364746,-0.100144624710083,2023-10-21T15:37:52.325069Z,1697902672325,0.2926128421541312
0.1854300498962402,0.1950769424438476,-0.0978357791900634,2023-10-21T15:37:52.342461Z,1697902672342,0.2863759008148018
0.1804170608520507,0.1914877891540527,-0.0955290794372558,2023-10-21T15:37:52.362777Z,1697902672362,0.27989943597608236
0.1760420799255371,0.1886277198791504,-0.0936400890350341,2023-10-21T15:37:52.383011Z,1697902672382,0.27448077689668093
0.1727180480957031,0.186983585357666,-0.0923771858215332,2023-10-21T15:37:52.403265Z,1697902672403,0.2707913030204317
0.1705904006958007,0.1868000030517578,-0.0918312072753906,2023-10-21T15:37:52.424632Z,1697902672424,0.26912505750922994
0.1699399948120117,0.1884779930114746,-0.0921857357025146,2023-10-21T15:37:52.443807Z,1697902672443,0.27000326952345205
0.1711783409118652,0.1925363540649414,-0.0936856269836425,2023-10-21T15:37:52.464083Z,1697902672464,0.27413366947034695
0.1746735572814941,0.1993789672851562,-0.0965363979339599,2023-10-21T15:37:52.484279Z,1697902672484,0.2821029959697888
0.1803803443908691,0.2089495658874511,-0.1007099151611328,2023-10-21T15:37:52.504549Z,1697902672504,0.29383579894030165
0.1877150535583496,0.2205886840820312,-0.1058788299560546,2023-10-21T15:37:52.524827Z,1697902672524,0.30839363727275465
0.1956753730773925,0.2330794334411621,-0.1114728450775146,2023-10-21T15:37:52.545100Z,1697902672545,0.3241003997404283
0.2033696174621582,0.2452898025512695,-0.1169862747192382,2023-10-21T15:37:52.565399Z,1697902672565,0.33942904562666765
0.21006441116333,0.2561922073364258,-0.1219856739044189,2023-10-21T15:37:52.585604Z,1697902672585,0.35304675125997403
