ACC_X,ACC_Y,ACC_Z,DATE,UNIX_TIMESTAMP,norm
-4.106138229370117,0.39121213555336,-1.3081963062286377,2023-10-20T12:18:58.526756Z,1697804338526,4.327215694800668
-4.068332672119141,0.9133151769638062,-1.1907281875610352,2023-10-20T12:18:58.547726Z,1697804338547,4.336278238323376
-3.907777786254883,1.381216526031494,-1.0264217853546145,2023-10-20T12:18:58.567879Z,1697804338567,4.269897891048471
-3.64609956741333,1.760232925415039,-0.8332569599151611,2023-10-20T12:18:58.588881Z,1697804338588,4.133615749976516
-3.3101344108581543,2.031611204147339,-0.6289579272270203,2023-10-20T12:18:58.608593Z,1697804338608,3.9344659074626596
-2.924047946929932,2.189485788345337,-0.4282187819480896,2023-10-20T12:18:58.628818Z,1697804338628,3.6779444991087695
-2.5053720474243164,2.234893321990967,-0.2415992319583892,2023-10-20T12:18:58.649480Z,1697804338649,3.36600764193693
-2.066697597503662,2.168837070465088,-0.0789118260145187,2023-10-20T12:18:58.672316Z,1697804338672,2.9968850952340396
-1.62015962600708,1.9892911911010744,0.0501174330711364,2023-10-20T12:18:58.689531Z,1697804338689,2.566068668962967
-1.1814193725585938,1.6948909759521484,0.1360223293304443,2023-10-20T12:18:58.710022Z,1697804338709,2.0704852639652493
-0.7673611640930176,1.2884173393249512,0.1696879863739013,2023-10-20T12:18:58.730382Z,1697804338730,1.509190647052587
-0.3916163444519043,0.7733187675476074,0.1407188177108764,2023-10-20T12:18:58.750141Z,1697804338750,0.8781725702509559
-0.064812421798706,0.1521215438842773,0.0354125499725341,2023-10-20T12:18:58.772864Z,1697804338772,0.16910252165094022
0.2024576663970947,-0.5755548477172852,-0.1642298698425293,2023-10-20T12:18:58.790432Z,1697804338790,0.6318417045133368
0.3975181579589844,-1.4083499908447266,-0.4791038036346435,2023-10-20T12:18:58.810689Z,1697804338810,1.539808701519974
0.510032057762146,-2.3325624465942383,-0.9274499416351318,2023-10-20T12:18:58.831453Z,1697804338831,2.561472947631069
0.5463824272155762,-3.3067827224731445,-1.5146522521972656,2023-10-20T12:18:58.851401Z,1697804338851,3.677977321232845
0.5365126132965088,-4.275343894958496,-2.229733943939209,2023-10-20T12:18:58.872389Z,1697804338872,4.851610522820215
0.523889422416687,-5.168662071228027,-3.0303235054016118,2023-10-20T12:18:58.892003Z,1697804338891,6.014348533370908
0.5468634963035583,-5.914565086364746,-3.844018459320069,2023-10-20T12:18:58.912912Z,1697804338912,7.075140829695731
0.6264021396636963,-6.487980842590332,-4.618571758270264,2023-10-20T12:18:58.933003Z,1697804338932,7.988584363996295
0.7412230968475342,-6.869718551635742,-5.302643299102783,2023-10-20T12:18:58.955414Z,1697804338955,8.709791651670445
0.8579931259155273,-7.113810062408447,-5.889006614685059,2023-10-20T12:18:58.973645Z,1697804338973,9.274850118246997
0.9762383699417114,-7.225427150726318,-6.384825229644775,2023-10-20T12:18:58.993324Z,1697804338993,9.69153404154925
1.1142358779907229,-7.184288024902344,-6.767410755157471,2023-10-20T12:18:59.013388Z,1697804339013,9.932439999596172
1.2645161151885986,-6.962645530700684,-7.036196708679199,2023-10-20T12:18:59.034048Z,1697804339034,9.979253374626072
1.379907250404358,-6.569980621337891,-7.158761024475098,2023-10-20T12:18:59.055234Z,1697804339055,9.814104584220493
1.422887086868286,-6.060327529907227,-7.14049768447876,2023-10-20T12:18:59.074129Z,1697804339074,9.473060994935823
1.4072980880737305,-5.488605499267578,-7.027995586395264,2023-10-20T12:18:59.094654Z,1697804339094,9.027624283147675
1.3531761169433594,-4.893180847167969,-6.876152038574219,2023-10-20T12:18:59.114715Z,1697804339114,8.547266888552489
1.2677611112594604,-4.275988578796387,-6.697288513183594,2023-10-20T12:18:59.138779Z,1697804339138,8.046425914034124
1.1891000270843506,-3.649955749511719,-6.503881454467773,2023-10-20T12:18:59.155623Z,1697804339155,7.5522585907512125
1.171979904174805,-2.985072135925293,-6.281122207641602,2023-10-20T12:18:59.175474Z,1697804339175,7.052424316488315
1.2244646549224854,-2.286952018737793,-6.001531600952148,2023-10-20T12:18:59.196805Z,1697804339196,6.538183599776819
1.3297173976898191,-1.5829057693481443,-5.68601131439209,2023-10-20T12:18:59.216915Z,1697804339216,6.050162287058876
1.477607488632202,-0.9055254459381104,-5.337379455566406,2023-10-20T12:18:59.238442Z,1697804339238,5.6116770823351665
1.6902668476104736,-0.2623644173145294,-5.024948120117188,2023-10-20T12:18:59.257115Z,1697804339257,5.308101422681475
1.998220920562744,0.3857706189155578,-4.798663139343262,2023-10-20T12:18:59.277207Z,1697804339277,5.212376976263789
2.413459300994873,1.0970466136932373,-4.670352935791016,2023-10-20T12:18:59.297474Z,1697804339297,5.370334590602919
2.9574666023254395,1.9321749210357664,-4.624873161315918,2023-10-20T12:18:59.317383Z,1697804339317,5.8197388590563275
3.652063369750977,2.9397926330566406,-4.614378929138184,2023-10-20T12:18:59.338353Z,1697804339338,6.5781791161175756
4.468784332275391,4.126944541931152,-4.564208030700684,2023-10-20T12:18:59.358346Z,1697804339358,7.604847112735269
5.3068013191223145,5.441908836364746,-4.399104595184326,2023-10-20T12:18:59.378287Z,1697804339378,8.782290889244953
6.05909538269043,6.795244216918945,-4.102189540863037,2023-10-20T12:18:59.398980Z,1697804339398,9.985786892041956
6.654975891113281,8.085213661193848,-3.711588144302368,2023-10-20T12:18:59.421776Z,1697804339421,11.11014269086498
7.0755228996276855,9.245424270629885,-3.2738053798675537,2023-10-20T12:18:59.439078Z,1697804339439,12.09374614883071
7.357857227325439,10.235754013061523,-2.840869188308716,2023-10-20T12:18:59.459600Z,1697804339459,12.922045540033208
7.564567565917969,11.094289779663086,-2.444677829742432,2023-10-20T12:18:59.479889Z,1697804339479,13.648530978303455
7.693831443786621,11.790746688842772,-2.076679944992065,2023-10-20T12:18:59.500111Z,1697804339500,14.231280664781675
7.72072696685791,12.280023574829102,-1.750261306762695,2023-10-20T12:18:59.521378Z,1697804339521,14.610681658878073
7.651028156280518,12.511307716369627,-1.455348253250122,2023-10-20T12:18:59.540901Z,1697804339540,14.737336637266775
7.5538811683654785,12.516105651855469,-1.221524953842163,2023-10-20T12:18:59.561346Z,1697804339561,14.669906087192723
7.496078014373779,12.373339653015137,-1.054657220840454,2023-10-20T12:18:59.580784Z,1697804339580,14.505275647843636
7.476511478424072,12.134960174560549,-0.9261208772659302,2023-10-20T12:18:59.601260Z,1697804339601,14.283318319091167
7.484338760375977,11.83187484741211,-0.7990279197692871,2023-10-20T12:18:59.621427Z,1697804339621,14.0230893422762
7.517806529998779,11.46774673461914,-0.6634622812271118,2023-10-20T12:18:59.641725Z,1697804339641,13.728321543090084
7.534916877746582,11.050790786743164,-0.5176165103912354,2023-10-20T12:18:59.662323Z,1697804339662,13.385173746304062
7.437587261199951,10.510971069335938,-0.3732302784919739,2023-10-20T12:18:59.682505Z,1697804339682,12.881673723905758
7.206754684448242,9.85309600830078,-0.2646270394325256,2023-10-20T12:18:59.704926Z,1697804339704,12.21027606160517
6.877221584320068,9.113981246948242,-0.2000547647476196,2023-10-20T12:18:59.722783Z,1697804339722,11.419319279119062
6.483092784881592,8.360261917114258,-0.2038492858409881,2023-10-20T12:18:59.742852Z,1697804339742,10.581399997706948
6.015612602233887,7.60694694519043,-0.2576064467430115,2023-10-20T12:18:59.763615Z,1697804339763,9.701525544392528
5.461725234985352,6.825143814086914,-0.3478744029998779,2023-10-20T12:18:59.783565Z,1697804339783,8.748373976100197
4.871479034423828,6.024868965148926,-0.4628592729568481,2023-10-20T12:18:59.804960Z,1697804339804,7.761739027860171
4.292495727539063,5.243566513061523,-0.584679126739502,2023-10-20T12:18:59.824321Z,1697804339824,6.801643847562599
3.737458229064941,4.510444641113281,-0.6954703330993652,2023-10-20T12:18:59.844590Z,1697804339844,5.898845976864806
3.2079949378967285,3.83309268951416,-0.7791414260864258,2023-10-20T12:18:59.864926Z,1697804339864,5.058744157379569
2.728687286376953,3.224919319152832,-0.8315608501434326,2023-10-20T12:18:59.888381Z,1697804339888,4.305500246123748
2.313340663909912,2.6983232498168945,-0.8553309440612793,2023-10-20T12:18:59.905554Z,1697804339905,3.6556920564607625
1.9602060317993164,2.2560911178588867,-0.8540675640106201,2023-10-20T12:18:59.926145Z,1697804339926,3.1083413942292792
1.6547236442565918,1.8848114013671875,-0.8286023139953613,2023-10-20T12:18:59.946443Z,1697804339946,2.6414401663380573
1.3881402015686035,1.5708847045898438,-0.7810304164886475,2023-10-20T12:18:59.966431Z,1697804339966,2.2371009109572313
1.1593480110168457,1.308237075805664,-0.7183401584625244,2023-10-20T12:18:59.988014Z,1697804339987,1.889863656569234
0.9681744575500488,1.0942440032958984,-0.6498825550079346,2023-10-20T12:19:00.006280Z,1697804340006,1.5990869439480164
0.8108811378479004,0.9243035316467284,-0.582801342010498,2023-10-20T12:19:00.026760Z,1697804340026,1.3607066702935493
0.6833930015563965,0.7923898696899414,-0.5217161178588867,2023-10-20T12:19:00.047263Z,1697804340047,1.1692285524213182
0.5842313766479492,0.6950912475585938,-0.4709043502807617,2023-10-20T12:19:00.067006Z,1697804340066,1.0228533868575038
0.5125350952148438,0.6305537223815918,-0.4339628219604492,2023-10-20T12:19:00.087767Z,1697804340087,0.9212024486941223
0.4671640396118164,0.5980396270751953,-0.413611888885498,2023-10-20T12:19:00.107679Z,1697804340107,0.8642733537984953
0.4460287094116211,0.5967988967895508,-0.4111576080322265,2023-10-20T12:19:00.127665Z,1697804340127,0.8509765634090067
0.4460344314575195,0.6257877349853516,-0.4263782501220703,2023-10-20T12:19:00.148554Z,1697804340148,0.8788375364542004
0.4621577262878418,0.6816306114196777,-0.4565157890319824,2023-10-20T12:19:00.171518Z,1697804340171,0.941603271036908
0.4886665344238281,0.7594671249389648,-0.4972257614135742,2023-10-20T12:19:00.189037Z,1697804340188,1.0309310129888227
0.5180201530456543,0.8506054878234863,-0.5415306091308594,2023-10-20T12:19:00.209758Z,1697804340209,1.133635733162339
0.5400967597961426,0.9396090507507324,-0.5785732269287109,2023-10-20T12:19:00.229422Z,1697804340229,1.2285424930028617
0.545130729675293,1.007214069366455,-0.596287727355957,2023-10-20T12:19:00.249859Z,1697804340249,1.291203604301577
0.5268959999084473,1.0354328155517578,-0.5854287147521973,2023-10-20T12:19:00.271382Z,1697804340271,1.300948611705079
0.4865937232971191,1.017436981201172,-0.5455055236816406,2023-10-20T12:19:00.289942Z,1697804340289,1.252807941639535
0.4291505813598633,0.954387664794922,-0.481783390045166,2023-10-20T12:19:00.310013Z,1697804340309,1.1520161765867811
0.3599622249603271,0.8510456085205078,-0.4016575813293457,2023-10-20T12:19:00.330959Z,1697804340330,1.0075615335153336
0.2835474014282226,0.7118377685546875,-0.3118531703948974,2023-10-20T12:19:00.354503Z,1697804340354,0.8272632818413758
0.2035226821899414,0.5410728454589844,-0.2183747291564941,2023-10-20T12:19:00.371054Z,1697804340371,0.6179553613272095
0.1231787204742431,0.3449907302856445,-0.1272475719451904,2023-10-20T12:19:00.391277Z,1697804340391,0.3877931739041321
0.0459132194519043,0.1343297958374023,-0.0449275970458984,2023-10-20T12:19:00.412300Z,1697804340412,0.14889931748156376
-0.024209976196289,-0.0731363296508789,0.0220494270324707,2023-10-20T12:19:00.432245Z,1697804340432,0.08013253331005553
-0.0829524993896484,-0.2553558349609375,0.069312572479248,2023-10-20T12:19:00.454202Z,1697804340454,0.2772939817364924
-0.1271555423736572,-0.3939971923828125,0.0967564582824707,2023-10-20T12:19:00.472726Z,1697804340472,0.4251636529399537
-0.1568951606750488,-0.4844846725463867,0.1086645126342773,2023-10-20T12:19:00.493042Z,1697804340492,0.5207201414211611
-0.1739745140075683,-0.5310268402099609,0.1100543737411499,2023-10-20T12:19:00.513082Z,1697804340513,0.5695336704068529
-0.1806972026824951,-0.5407991409301758,0.1048008203506469,2023-10-20T12:19:00.533546Z,1697804340533,0.5797399432799705
