ACC_X,ACC_Y,ACC_Z,DATE,UNIX_TIMESTAMP,norm
-0.0538306236267089,-0.1292562484741211,-0.0109403133392333,2023-10-21T15:31:41.835681Z,1697902301835,0.14044431019306094
-0.05434250831604,-0.1322498321533203,-0.0106840729713439,2023-10-21T15:31:41.855963Z,1697902301855,0.14337808664477733
-0.0472149848937988,-0.1166973114013671,-0.0088333487510681,2023-10-21T15:31:41.876239Z,1697902301876,0.1261964553265554
-0.0317559242248535,-0.0798797607421875,-0.0055610537528991,2023-10-21T15:31:41.896447Z,1697902301896,0.08614023576962389
-0.0097229480743408,-0.0249490737915039,-0.0015766620635986,2023-10-21T15:31:41.917937Z,1697902301917,0.02682308456484871
0.0155987739562988,0.0409326553344726,0.0023382902145385,2023-10-21T15:31:41.937016Z,1697902301936,0.04386652052303488
0.0407764911651611,0.1096992492675781,0.0057036280632019,2023-10-21T15:31:41.957314Z,1697902301957,0.11717157886917816
0.0636897087097168,0.1759748458862304,0.0084301531314849,2023-10-21T15:31:41.977879Z,1697902301977,0.1873355088124817
0.083855390548706,0.238102912902832,0.010650634765625,2023-10-21T15:31:42.001066Z,1697902302001,0.2526621453201891
0.1017911434173584,0.2969894409179687,0.0125227868556976,2023-10-21T15:31:42.018473Z,1697902302018,0.3141989578047866
0.1183252334594726,0.3546037673950195,0.0141695737838745,2023-10-21T15:31:42.038778Z,1697902302038,0.37409286219493204
0.1339356899261474,0.4123134613037109,0.0156537294387817,2023-10-21T15:31:42.059006Z,1697902302058,0.4338043322208555
0.1484708786010742,0.4698696136474609,0.0170056819915771,2023-10-21T15:31:42.079250Z,1697902302079,0.4930621145877948
0.1611952781677246,0.525059700012207,0.0181953012943267,2023-10-21T15:31:42.101106Z,1697902302101,0.5495477006317744
0.1715130805969238,0.5756902694702148,0.0191831290721893,2023-10-21T15:31:42.119774Z,1697902302119,0.6010025088296519
0.1793866157531738,0.6208353042602539,0.0198825299739837,2023-10-21T15:31:42.140099Z,1697902302140,0.64653797098505
0.185173749923706,0.6607465744018555,0.0201876163482666,2023-10-21T15:31:42.160260Z,1697902302160,0.6865004683890745
0.1893281936645507,0.6962089538574219,0.0199934840202331,2023-10-21T15:31:42.180531Z,1697902302180,0.7217699160749184
0.1918368339538574,0.7268657684326172,0.0192646980285644,2023-10-21T15:31:42.201041Z,1697902302200,0.7520015590214629
0.1925210952758789,0.7516994476318359,0.0180640667676925,2023-10-21T15:31:42.221107Z,1697902302221,0.7761718509482414
0.1910803318023681,0.7688436508178711,0.0164640098810195,2023-10-21T15:31:42.241344Z,1697902302241,0.7924035059400091
0.1874902248382568,0.7768354415893555,0.014483094215393,2023-10-21T15:31:42.261546Z,1697902302261,0.7992719485489785
0.1820290088653564,0.7750034332275391,0.0120440274477005,2023-10-21T15:31:42.284097Z,1697902302284,0.7961846143829567
0.1751482486724853,0.763646125793457,0.0090713500976562,2023-10-21T15:31:42.302147Z,1697902302302,0.7835270281521814
0.167219877243042,0.7434597015380859,0.0055621042847633,2023-10-21T15:31:42.322465Z,1697902302322,0.7620536412617896
0.1583163738250732,0.714564323425293,0.0016744807362556,2023-10-21T15:31:42.342744Z,1697902302342,0.7318941524695378
0.1482877731323242,0.6765766143798828,-0.002326127141714,2023-10-21T15:31:42.362926Z,1697902302362,0.6926403032265505
0.1369168758392334,0.6290073394775391,-0.0060979947447776,2023-10-21T15:31:42.384174Z,1697902302384,0.6437652130599287
0.1241266727447509,0.5719804763793945,-0.0093276798725128,2023-10-21T15:31:42.403489Z,1697902302403,0.5853683471607306
0.1103119850158691,0.5078134536743164,-0.0117902904748916,2023-10-21T15:31:42.423795Z,1697902302423,0.5197905816001871
0.0961749553680419,0.4403448104858398,-0.0134133696556091,2023-10-21T15:31:42.443948Z,1697902302443,0.4509247084019382
0.2493977546691894,0.2031722068786621,-0.1690125465393066,2023-10-21T15:32:43.258215Z,1697902363258,0.3633778014266699
0.2597002983093261,0.2128238677978515,-0.1725392341613769,2023-10-21T15:32:43.275874Z,1697902363275,0.37750235889512634
0.2779731750488281,0.2288002967834472,-0.1810622215270996,2023-10-21T15:32:43.296251Z,1697902363296,0.40299155067972386
0.3009243011474609,0.2485198974609375,-0.1923756599426269,2023-10-21T15:32:43.316453Z,1697902363316,0.4351160408367449
0.3236675262451172,0.2680373191833496,-0.2035164833068847,2023-10-21T15:32:43.336683Z,1697902363336,0.466930006530135
0.3435010910034179,0.285064697265625,-0.2130513191223144,2023-10-21T15:32:43.358070Z,1697902363358,0.4946167665247904
0.360173225402832,0.2993297576904297,-0.2210993766784668,2023-10-21T15:32:43.377284Z,1697902363377,0.5178880096156863
0.3757257461547851,0.3124232292175293,-0.2290129661560058,2023-10-21T15:32:43.397520Z,1697902363397,0.5396527116079847
0.3920421600341797,0.3257966041564941,-0.2379412651062011,2023-10-21T15:32:43.417745Z,1697902363417,0.5625446899265054
0.4097452163696289,0.3398723602294922,-0.2482681274414062,2023-10-21T15:32:43.437904Z,1697902363437,0.5874022699045536
0.4267282485961914,0.3529005050659179,-0.2588033676147461,2023-10-21T15:32:43.458281Z,1697902363458,0.6112404990791156
0.4406843185424804,0.3629665374755859,-0.2682280540466308,2023-10-21T15:32:43.478576Z,1697902363478,0.6307881299722662
0.4499521255493164,0.3687124252319336,-0.2756032943725586,2023-10-21T15:32:43.498801Z,1697902363498,0.6437102948343837
0.4564189910888672,0.3715949058532715,-0.2821493148803711,2023-10-21T15:32:43.519057Z,1697902363519,0.6526938833558531
0.4655694961547851,0.3758211135864258,-0.2913155555725097,2023-10-21T15:32:43.541324Z,1697902363541,0.6654781875356108
0.4825096130371094,0.3852424621582031,-0.3064298629760742,2023-10-21T15:32:43.559580Z,1697902363559,0.6892942348855612
0.5081524848937988,0.4003734588623047,-0.3282666206359863,2023-10-21T15:32:43.579887Z,1697902363579,0.7254493977452036
0.5389647483825684,0.418375015258789,-0.3548569679260254,2023-10-21T15:32:43.600127Z,1697902363600,0.7690540430148778
0.5692639350891113,0.4350652694702148,-0.3827061653137207,2023-10-21T15:32:43.620380Z,1697902363620,0.8122851872719725
0.5941972732543945,0.4471755027770996,-0.4086799621582031,2023-10-21T15:32:43.641120Z,1697902363641,0.8485609237388555
0.6126184463500977,0.4541225433349609,-0.4316916465759277,2023-10-21T15:32:43.660894Z,1697902363660,0.8762912317813392
0.6242609024047852,0.455878734588623,-0.4510388374328613,2023-10-21T15:32:43.681169Z,1697902363681,0.8949654338543741
0.6303038597106934,0.4533915519714355,-0.4668388366699219,2023-10-21T15:32:43.701469Z,1697902363701,0.9059720494521839
0.6305322647094727,0.4467854499816894,-0.4782581329345703,2023-10-21T15:32:43.725342Z,1697902363725,0.9088008675573865
0.6234774589538574,0.435495376586914,-0.4835023880004883,2023-10-21T15:32:43.742003Z,1697902363741,0.9011963848431216
0.6063408851623535,0.4179701805114746,-0.4795985221862793,2023-10-21T15:32:43.762270Z,1697902363762,0.8788418989212589
0.5776023864746094,0.3932619094848633,-0.4643869400024414,2023-10-21T15:32:43.782504Z,1697902363782,0.8390081503523527
0.5388669967651367,0.3624029159545898,-0.4384546279907226,2023-10-21T15:32:43.802733Z,1697902363802,0.7835534279814941
0.4957313537597656,0.3290719985961914,-0.4061141014099121,2023-10-21T15:32:43.824471Z,1697902363824,0.7203933777628456
0.4563493728637695,0.2986402511596679,-0.3742637634277344,2023-10-21T15:32:43.843302Z,1697902363843,0.6614484971189792
0.4258384704589844,0.2744646072387695,-0.3475341796875,2023-10-21T15:32:43.863584Z,1697902363863,0.6143689686179168
0.4046015739440918,0.2567510604858398,-0.3266181945800781,2023-10-21T15:32:43.883790Z,1697902363883,0.579916360977503
0.3879499435424804,0.242466926574707,-0.3080811500549316,2023-10-21T15:32:43.904014Z,1697902363903,0.5515517783457573
0.3690567016601562,0.2273693084716797,-0.2868695259094238,2023-10-21T15:32:43.924378Z,1697902363924,0.5198016702268866
0.342444896697998,0.2081789970397949,-0.2593517303466797,2023-10-21T15:32:43.944624Z,1697902363944,0.47735764591846047
0.3063945770263672,0.1840343475341797,-0.2252063751220703,2023-10-21T15:32:43.964885Z,1697902363964,0.4224502210901544
0.2617383003234863,0.1556258201599121,-0.1861610412597656,2023-10-21T15:32:43.985111Z,1697902363985,0.3569065242323163
0.2094454765319824,0.1235756874084472,-0.143803596496582,2023-10-21T15:32:44.007677Z,1697902364007,0.2825204992978938
0.1485710144042968,0.0872197151184082,-0.0982413291931152,2023-10-21T15:32:44.025624Z,1697902364025,0.19832292804435922
0.0765995979309082,0.0448784828186035,-0.0486555099487304,2023-10-21T15:32:44.045947Z,1697902364045,0.10123702520149182
-0.0068707466125488,-0.0040321350097656,0.004183292388916,2023-10-21T15:32:44.066240Z,1697902364066,0.008998066845828096
-0.0977616310119628,-0.057744026184082,0.0569767951965332,2023-10-21T15:32:44.086499Z,1697902364086,0.12703568100708873
-0.1875262260437011,-0.1121759414672851,0.1046071052551269,2023-10-21T15:32:44.107576Z,1697902364107,0.2422646770953666
-0.2636098861694336,-0.160867691040039,0.1408612728118896,2023-10-21T15:32:44.126981Z,1697902364126,0.3394266994286112
-0.3120555877685547,-0.1958861351013183,0.1601362228393554,2023-10-21T15:32:44.147309Z,1697902364147,0.4017383198647669
-0.3184142112731933,-0.207742691040039,0.1578660011291504,2023-10-21T15:32:44.167542Z,1697902364167,0.41166285955110865
-0.2695307731628418,-0.1852483749389648,0.13065767288208,2023-10-21T15:32:44.190875Z,1697902364190,0.3521863506472776
-0.1580824851989746,-0.1162776947021484,0.0763530731201171,2023-10-21T15:32:44.208078Z,1697902364208,0.21057152273471358
0.0132784843444824,0.0106158256530761,-0.0065617561340332,2023-10-21T15:32:44.228332Z,1697902364228,0.018222802867443173
0.2352919578552246,0.2066364288330078,-0.1228964328765869,2023-10-21T15:32:44.248586Z,1697902364248,0.33639924548963085
0.4920663833618164,0.4765372276306152,-0.2812187671661377,2023-10-21T15:32:44.268833Z,1697902364268,0.7404735308970154
0.7650604248046875,0.8145532608032227,-0.4936933517456054,2023-10-21T15:32:44.290821Z,1697902364290,1.2216986509959409
1.0322484970092771,1.198157787322998,-0.7703619003295898,2023-10-21T15:32:44.309322Z,1697902364309,1.7591408415417087
1.2702035903930664,1.5881681442260742,-1.114288330078125,2023-10-21T15:32:44.329644Z,1697902364329,2.3189078674950037
1.4520926475524902,1.9288783073425293,-1.5075016021728516,2023-10-21T15:32:44.349886Z,1697902364349,2.846349532676248
1.5689396858215332,2.1743617057800293,-1.917971134185791,2023-10-21T15:32:44.370079Z,1697902364370,3.2966701134445255
1.6452341079711914,2.3175506591796875,-2.328922271728516,2023-10-21T15:32:44.390741Z,1697902364390,3.674468026211288
1.712139129638672,2.3778796195983887,-2.741349220275879,2023-10-21T15:32:44.410671Z,1697902364410,4.012571174701879
1.7952880859375,2.3864893913269043,-3.1769981384277344,2023-10-21T15:32:44.430967Z,1697902364430,4.360241747655545
1.8834457397460935,2.3524656295776367,-3.629418849945069,2023-10-21T15:32:44.451187Z,1697902364451,4.717429764315352
1.9525799751281736,2.267345905303955,-4.055886745452881,2023-10-21T15:32:44.473891Z,1697902364473,5.040202704803698
1.9950432777404783,2.1378064155578613,-4.4290056228637695,2023-10-21T15:32:44.491684Z,1697902364491,5.307212522390328
2.015403509140014,1.9816675186157229,-4.738343238830566,2023-10-21T15:32:44.512005Z,1697902364511,5.51731403021088
2.0208628177642822,1.8239052295684812,-4.981637001037598,2023-10-21T15:32:44.532260Z,1697902364532,5.67690267881847
2.026572704315185,1.6941208839416504,-5.181950569152832,2023-10-21T15:32:44.552492Z,1697902364552,5.816326520788355
2.0386803150177,1.6100037097930908,-5.371953964233398,2023-10-21T15:32:44.573877Z,1697902364573,5.967094667108199
2.040702104568481,1.5638785362243652,-5.55788516998291,2023-10-21T15:32:44.593027Z,1697902364592,6.123746297681628
2.015606641769409,1.5313923358917236,-5.728638648986816,2023-10-21T15:32:44.613362Z,1697902364613,6.26299715722739
1.9546191692352293,1.482201337814331,-5.849491119384766,2023-10-21T15:32:44.633519Z,1697902364633,6.343027925078184
1.880135536193848,1.3992595672607422,-5.91403865814209,2023-10-21T15:32:44.653705Z,1697902364653,6.361500626505411
1.81895112991333,1.2816007137298584,-5.945178031921387,2023-10-21T15:32:44.674083Z,1697902364673,6.347930799377583
1.7780592441558838,1.1254042387008667,-5.943764686584473,2023-10-21T15:32:44.694410Z,1697902364694,6.3052651035228235
1.75349760055542,0.9266815185546876,-5.901620864868164,2023-10-21T15:32:44.714669Z,1697902364714,6.225963484042586
1.7432270050048828,0.6841145753860474,-5.811887741088867,2023-10-21T15:32:44.734884Z,1697902364734,6.106135623964881
1.7424383163452148,0.4040077328681946,-5.672728538513184,2023-10-21T15:32:44.757190Z,1697902364757,5.948038551165179
1.746037244796753,0.0998231619596481,-5.483570098876953,2023-10-21T15:32:44.775370Z,1697902364775,5.755706016917339
1.7461469173431396,-0.2106132209300995,-5.242101669311523,2023-10-21T15:32:44.795738Z,1697902364795,5.529287196119963
1.7372698783874512,-0.5081214904785156,-4.943719863891602,2023-10-21T15:32:44.815973Z,1697902364815,5.264661448951381
1.7151808738708496,-0.770275354385376,-4.5838727951049805,2023-10-21T15:32:44.836172Z,1697902364836,4.954498900329824
1.6810238361358645,-0.977224826812744,-4.186062812805176,2023-10-21T15:32:44.857175Z,1697902364857,4.615618200473964
1.6299419403076172,-1.118025302886963,-3.78271484375,2023-10-21T15:32:44.876708Z,1697902364876,4.267976440398404
1.5446689128875732,-1.1903562545776367,-3.380343437194824,2023-10-21T15:32:44.896979Z,1697902364896,3.9025212128365805
1.420379638671875,-1.2027256488800049,-2.9765443801879883,2023-10-21T15:32:44.917320Z,1697902364917,3.5105332574490973
1.2596120834350586,-1.161724328994751,-2.5564498901367188,2023-10-21T15:32:44.940323Z,1697902364940,3.077606546992964
1.0891647338867188,-1.083569049835205,-2.143867492675781,2023-10-21T15:32:44.957824Z,1697902364957,2.6375309532695983
0.9351091384887696,-0.9874267578125,-1.7813177108764648,2023-10-21T15:32:44.978117Z,1697902364978,2.241100954890583
0.8078498840332031,-0.8890485763549805,-1.4865803718566897,2023-10-21T15:32:44.998380Z,1697902364998,1.9112692139625047
0.7121386528015137,-0.8045992851257324,-1.2664527893066406,2023-10-21T15:32:45.018598Z,1697902365018,1.660850426131554
0.6554827690124512,-0.7541403770446777,-1.1292438507080078,2023-10-21T15:32:45.040368Z,1697902365040,1.5078385335052187
0.637913703918457,-0.7480511665344238,-1.0671262741088867,2023-10-21T15:32:45.059100Z,1697902365059,1.4509558664184077
0.6570634841918945,-0.7870378494262695,-1.0631637573242188,2023-10-21T15:32:45.079393Z,1697902365079,1.476982793933521
0.7172083854675293,-0.8703274726867676,-1.107844352722168,2023-10-21T15:32:45.099618Z,1697902365099,1.5808785177099078
0.8151445388793945,-0.9847450256347656,-1.1861705780029297,2023-10-21T15:32:45.119819Z,1697902365119,1.7438990867871684
0.9450507164001464,-1.11541748046875,-1.2924423217773438,2023-10-21T15:32:45.140320Z,1697902365140,1.9513288209384125
1.080031394958496,-1.2330007553100586,-1.4034996032714844,2023-10-21T15:32:45.160437Z,1697902365160,2.1579086665274745
1.192274570465088,-1.3164873123168943,-1.494135856628418,2023-10-21T15:32:45.180707Z,1697902365180,2.321012592152788
1.273116111755371,-1.364546298980713,-1.5584096908569336,2023-10-21T15:32:45.200957Z,1697902365200,2.4313477745131156
1.322825908660889,-1.380540370941162,-1.5967445373535156,2023-10-21T15:32:45.223494Z,1697902365223,2.491054639704067
1.339585304260254,-1.36281156539917,-1.6059637069702148,2023-10-21T15:32:45.241469Z,1697902365241,2.4961697815415698
1.320502758026123,-1.3064789772033691,-1.577737808227539,2023-10-21T15:32:45.261748Z,1697902365261,2.437185147529748
1.263324737548828,-1.2086105346679688,-1.5036187171936035,2023-10-21T15:32:45.281992Z,1697902365281,2.305991774423349
1.1670570373535156,-1.0694127082824707,-1.3785157203674316,2023-10-21T15:32:45.302231Z,1697902365302,2.0990405571052104
1.03102445602417,-0.892082691192627,-1.2018728256225586,2023-10-21T15:32:45.323360Z,1697902365323,1.817504125391568
0.858243465423584,-0.6872501373291016,-0.9805569648742676,2023-10-21T15:32:45.342768Z,1697902365342,1.4732231869491421
0.6576447486877441,-0.4737467765808105,-0.729423999786377,2023-10-21T15:32:45.363106Z,1697902365363,1.09040909536817
0.4443669319152832,-0.277374267578125,-0.4729146957397461,2023-10-21T15:32:45.383327Z,1697902365383,0.7057242832302995
0.2362313270568847,-0.1221163272857666,-0.23870849609375,2023-10-21T15:32:45.406747Z,1697902365406,0.35735050493900405
0.0455985069274902,-0.0184597969055175,-0.0435409545898437,2023-10-21T15:32:45.423872Z,1697902365423,0.0656947689120234
-0.114720344543457,0.0336523056030273,0.1037712097167968,2023-10-21T15:32:45.444056Z,1697902365444,0.1583088724318901
-0.2291922569274902,0.0423150062561035,0.1976385116577148,2023-10-21T15:32:45.464358Z,1697902365464,0.3055824466166986
-0.2834272384643554,0.0228548049926757,0.2348079681396484,2023-10-21T15:32:45.484614Z,1697902365484,0.36876567562159845
-0.274728775024414,-0.004310518503189,0.2204904556274414,2023-10-21T15:32:45.506532Z,1697902365506,0.35229323215040353
-0.2159066200256347,-0.0221059918403625,0.1693520545959472,2023-10-21T15:32:45.525154Z,1697902365525,0.2752897779468186
-0.1268329620361328,-0.0226999521255493,0.09814453125,2023-10-21T15:32:45.545490Z,1697902365545,0.16196986478861913
-0.0292997360229492,-0.0072157382965087,0.022594928741455,2023-10-21T15:32:45.565703Z,1697902365565,0.03769711149424633
0.0563874244689941,0.0172719955444335,-0.0437679290771484,2023-10-21T15:32:45.585864Z,1697902365585,0.0734404185992682
0.1184520721435546,0.0428428649902343,-0.0932502746582031,2023-10-21T15:32:45.606443Z,1697902365606,0.1567227430831391
0.1577401161193847,0.0651733875274658,-0.1261978149414062,2023-10-21T15:32:45.626508Z,1697902365626,0.21226258071348236
0.1816926002502441,0.0837059020996093,-0.147043228149414,2023-10-21T15:32:45.646782Z,1697902365646,0.24827523029211956
0.1936192512512207,0.0976216793060302,-0.1574077606201172,2023-10-21T15:32:45.667033Z,1697902365666,0.26794702802802806
0.1942858695983886,0.1057391166687011,-0.1576242446899414,2023-10-21T15:32:45.689710Z,1697902365689,0.27161215442898307
0.186528205871582,0.1085772514343261,-0.1502299308776855,2023-10-21T15:32:45.707517Z,1697902365707,0.2629654411633177
0.1741623878479004,0.1075654029846191,-0.1385374069213867,2023-10-21T15:32:45.727820Z,1697902365727,0.24717497117756052
0.1596765518188476,0.1038355827331543,-0.1247091293334961,2023-10-21T15:32:45.748124Z,1697902365748,0.22766377924784065
0.1428503990173339,0.0971302986145019,-0.1089305877685546,2023-10-21T15:32:45.768355Z,1697902365768,0.2042214591074028
0.1231069564819336,0.0870189666748046,-0.0912151336669921,2023-10-21T15:32:45.789713Z,1697902365789,0.17620392704273843
0.1011500358581543,0.0739803314208984,-0.0725488662719726,2023-10-21T15:32:45.808884Z,1697902365808,0.1448024764587969
0.0774335861206054,0.058384895324707,-0.0536756515502929,2023-10-21T15:32:45.829163Z,1697902365829,0.1108414716201597
0.0510115623474121,0.0395460128784179,-0.0342087745666503,2023-10-21T15:32:45.849370Z,1697902365849,0.07305003001406507
0.0201072692871093,0.0160017013549804,-0.0130858421325683,2023-10-21T15:32:45.869600Z,1697902365869,0.02883740606845231
-0.0152783393859863,-0.012488842010498,0.0096940994262695,2023-10-21T15:32:45.889913Z,1697902365889,0.02198577705797452
-0.0523591041564941,-0.0440893173217773,0.0325284004211425,2023-10-21T15:32:45.910203Z,1697902365910,0.07578549019389631
-0.0869135856628418,-0.0757050514221191,0.0530200004577636,2023-10-21T15:32:45.930474Z,1697902365930,0.12687137830156606
-0.115452766418457,-0.1043305397033691,0.0691967010498046,2023-10-21T15:32:45.950734Z,1697902365950,0.17030086971195157
-0.1360635757446289,-0.1276063919067382,0.079974889755249,2023-10-21T15:32:45.972975Z,1697902365972,0.20295977653524025
-0.1483430862426757,-0.1440949440002441,0.0851936340332031,2023-10-21T15:32:45.991243Z,1697902365991,0.2236671173914904
-0.1516995429992675,-0.1522092819213867,0.0847449302673339,2023-10-21T15:32:46.011539Z,1697902366011,0.2310024243492394
-0.1450128555297851,-0.1499323844909668,0.0784401893615722,2023-10-21T15:32:46.031766Z,1697902366031,0.22284818037203877
-0.1276483535766601,-0.1357326507568359,0.0665614604949951,2023-10-21T15:32:46.051966Z,1697902366051,0.19785823883663783
-0.1005797386169433,-0.1097564697265625,0.0503573417663574,2023-10-21T15:32:46.072538Z,1697902366072,0.15715797255266495
-0.0658073425292968,-0.073455810546875,0.0315332412719726,2023-10-21T15:32:46.092570Z,1697902366092,0.1035408505807395
-0.0264787673950195,-0.0300965309143066,0.0121316909790039,2023-10-21T15:32:46.112869Z,1697902366112,0.04188202743236537
0.0125441551208496,0.0144500732421875,-0.0055084228515625,2023-10-21T15:32:46.133108Z,1697902366133,0.019912387268033342
0.0455069541931152,0.0529127120971679,-0.0192673206329345,2023-10-21T15:32:46.156139Z,1697902366156,0.07240074326817623
0.0689234733581543,0.0806727409362793,-0.0284066200256347,2023-10-21T15:32:46.173594Z,1697902366173,0.10984294411205951
0.0829920768737793,0.0976018905639648,-0.0336620807647705,2023-10-21T15:32:46.193967Z,1697902366193,0.13246489930127675
0.0898747444152832,0.1060032844543457,-0.0362782478332519,2023-10-21T15:32:46.214216Z,1697902366214,0.14363243806561335
0.0916857719421386,0.1082234382629394,-0.0372114181518554,2023-10-21T15:32:46.234369Z,1697902366234,0.14663997751960528
0.0896096229553222,0.1055474281311035,-0.0368595123291015,2023-10-21T15:32:46.255974Z,1697902366255,0.14327863679008346
0.0858063697814941,0.1004490852355957,-0.0359444618225097,2023-10-21T15:32:46.274973Z,1697902366274,0.13691149022436477
0.0827751159667968,0.0958499908447265,-0.0353829860687255,2023-10-21T15:32:46.295235Z,1697902366295,0.13149485264218685
0.0823302268981933,0.0938129425048828,-0.0359144210815429,2023-10-21T15:32:46.315482Z,1697902366315,0.12988063783395434
0.0863432884216308,0.0963058471679687,-0.0383906364440918,2023-10-21T15:32:46.335649Z,1697902366335,0.13492153505198307
0.0967330932617187,0.1051216125488281,-0.0437307357788085,2023-10-21T15:32:46.355944Z,1697902366355,0.14939953818068605
0.1139822006225586,0.1203231811523437,-0.0522651672363281,2023-10-21T15:32:46.376241Z,1697902366376,0.173785090521662
0.1370120048522949,0.1403021812438964,-0.0635962486267089,2023-10-21T15:32:46.396529Z,1697902366396,0.20615885713408147
0.1639108657836914,0.1627545356750488,-0.0769312381744384,2023-10-21T15:32:46.416778Z,1697902366416,0.24346298735498215
0.1931500434875488,0.1859230995178222,-0.091653823852539,2023-10-21T15:32:46.439249Z,1697902366439,0.28332801072316915
0.2238340377807617,0.2089533805847168,-0.1075315475463867,2023-10-21T15:32:46.457258Z,1697902366457,0.3245400213297919
0.2531147003173828,0.2295713424682617,-0.1235020160675048,2023-10-21T15:32:46.477609Z,1697902366477,0.36334941966676737
0.277496337890625,0.245305061340332,-0.1381218433380127,2023-10-21T15:32:46.497868Z,1697902366497,0.39529284621528693
0.2945146560668945,0.2547621726989746,-0.1502020359039306,2023-10-21T15:32:46.518014Z,1697902366517,0.4173766870180808
0.3039813041687011,0.2583699226379394,-0.1593790054321289,2023-10-21T15:32:46.539100Z,1697902366539,0.4296060027287488
0.3076281547546386,0.2579121589660644,-0.1661531925201416,2023-10-21T15:32:46.558614Z,1697902366558,0.4344659327552801
0.30792236328125,0.2554216384887695,-0.1713526248931884,2023-10-21T15:32:46.578951Z,1697902366578,0.435221917272997
0.3069982528686523,0.2524352073669433,-0.1757302284240722,2023-10-21T15:32:46.599165Z,1697902366599,0.4345717137191205
0.3067107200622558,0.2502408027648926,-0.1800055503845214,2023-10-21T15:32:46.622531Z,1697902366622,0.434849311070812
0.3088259696960449,0.2501883506774902,-0.1850652694702148,2023-10-21T15:32:46.639674Z,1697902366639,0.43842541479424807
0.3152551651000976,0.2537703514099121,-0.1919889450073242,2023-10-21T15:32:46.659961Z,1697902366659,0.4479341083039172
