GYR_X,GYR_Y,GYR_Z,DATE,UNIX_TIMESTAMP,Line_Number
5.501379013061523,2.872476816177368,-2.4894888401031494,2023-10-21T15:18:53.526866Z,1697901533526,0
5.580132007598877,2.959344387054444,-2.4362776279449463,2023-10-21T15:18:53.537941Z,1697901533537,1
5.638265132904053,3.046344757080078,-2.3385019302368164,2023-10-21T15:18:53.551714Z,1697901533551,2
5.670324802398682,3.120840549468994,-2.21159291267395,2023-10-21T15:18:53.558013Z,1697901533557,3
5.662210464477539,3.1667351722717285,-2.0720465183258057,2023-10-21T15:18:53.568284Z,1697901533568,4
5.600219249725342,3.171657085418701,-1.935559630393982,2023-10-21T15:18:53.578352Z,1697901533578,5
5.47078275680542,3.126294612884521,-1.810646176338196,2023-10-21T15:18:53.587789Z,1697901533587,6
5.264190196990967,3.0253262519836426,-1.6989024877548218,2023-10-21T15:18:53.602611Z,1697901533602,7
5.228804588317871,2.9195687770843506,-1.6063148975372314,2023-10-21T15:18:53.607959Z,1697901533607,8
4.828256607055664,2.7105815410614014,-1.5114659070968628,2023-10-21T15:18:53.619335Z,1697901533619,9
4.373300552368164,2.469002485275269,-1.4206076860427856,2023-10-21T15:18:53.628180Z,1697901533628,10
3.88801383972168,2.213721513748169,-1.3317447900772097,2023-10-21T15:18:53.639350Z,1697901533639,11
3.3954105377197266,1.9608349800109863,-1.2428820133209229,2023-10-21T15:18:53.651570Z,1697901533651,12
2.910522937774658,1.718191623687744,-1.1492302417755127,2023-10-21T15:18:53.659341Z,1697901533659,13
2.4518418312072754,1.4944382905960083,-1.0470645427703855,2023-10-21T15:18:53.668874Z,1697901533668,14
2.0435783863067627,1.3042080402374268,-0.9374493956565856,2023-10-21T15:18:53.679591Z,1697901533679,15
1.7080814838409424,1.160138487815857,-0.8247745633125305,2023-10-21T15:18:53.689100Z,1697901533689,16
1.4574564695358276,1.0660876035690308,-0.714627206325531,2023-10-21T15:18:53.702595Z,1697901533702,17
1.2917033433914185,1.0176653861999512,-0.6121955513954163,2023-10-21T15:18:53.709254Z,1697901533709,18
1.2053680419921875,1.0084863901138306,-0.5224015712738037,2023-10-21T15:18:53.720419Z,1697901533720,19
1.182753324508667,1.027775526046753,-0.4487039446830749,2023-10-21T15:18:53.729445Z,1697901533729,20
1.2007120847702026,1.0608994960784912,-0.392033964395523,2023-10-21T15:18:53.740628Z,1697901533740,21
1.2392902374267578,1.096817135810852,-0.3523915708065033,2023-10-21T15:18:53.751480Z,1697901533751,22
1.2939648628234863,1.1356613636016846,-0.3292446732521057,2023-10-21T15:18:53.760611Z,1697901533760,23
1.3922725915908811,1.1975194215774536,-0.3249877691268921,2023-10-21T15:18:53.770232Z,1697901533770,24
1.5862276554107666,1.318042874336243,-0.3461392521858215,2023-10-21T15:18:53.785836Z,1697901533785,25
1.9289082288742063,1.5298237800598145,-0.4005477726459503,2023-10-21T15:18:53.790365Z,1697901533790,26
2.4437272548675537,1.842572927474976,-0.4919381141662597,2023-10-21T15:18:53.802510Z,1697901533802,27
3.099555969238281,2.227423429489136,-0.6123285889625549,2023-10-21T15:18:53.810771Z,1697901533810,28
3.846642017364502,2.646728038787842,-0.7514760494232178,2023-10-21T15:18:53.821882Z,1697901533821,29
4.626186847686768,3.0589823722839355,-0.8954125046730042,2023-10-21T15:18:53.834834Z,1697901533834,30
5.071698188781738,3.329029560089112,-1.0228534936904907,2023-10-21T15:18:53.841871Z,1697901533841,31
5.547939300537109,3.5537140369415283,-1.1239548921585083,2023-10-21T15:18:53.851562Z,1697901533851,32
5.826100826263428,3.652154922485352,-1.1828863620758057,2023-10-21T15:18:53.862176Z,1697901533862,33
5.868803024291992,3.606659173965454,-1.1858129501342771,2023-10-21T15:18:53.871699Z,1697901533871,34
5.687618732452393,3.426539182662964,-1.1318035125732422,2023-10-21T15:18:53.885700Z,1697901533885,35
5.3491950035095215,3.1514368057250977,-1.036954402923584,2023-10-21T15:18:53.891841Z,1697901533891,36
5.176657676696777,2.875004529953003,-0.9242796301841736,2023-10-21T15:18:53.902951Z,1697901533902,37
4.679797172546387,2.518488883972168,-0.8036230802536011,2023-10-21T15:18:53.912030Z,1697901533912,38
4.185198783874512,2.1566524505615234,-0.6816362738609314,2023-10-21T15:18:53.923163Z,1697901533923,39
3.69765043258667,1.7925543785095217,-0.5585852265357971,2023-10-21T15:18:53.934862Z,1697901533934,40
3.221941947937012,1.4299196004867554,-0.4344699382781982,2023-10-21T15:18:53.943210Z,1697901533943,41
2.7743020057678223,1.0803216695785522,-0.3128822147846222,2023-10-21T15:18:53.952725Z,1697901533952,42
2.373621225357056,0.7574623227119446,-0.1992761790752411,2023-10-21T15:18:53.967882Z,1697901533967,43
2.026284694671631,0.4666627645492553,-0.0959132984280586,2023-10-21T15:18:53.972968Z,1697901533972,44
1.7231136560440063,0.2031339854001999,0.000266056304099,2023-10-21T15:18:53.985889Z,1697901533985,45
1.4516031742095947,-0.0408396422863006,0.0943169593811035,2023-10-21T15:18:53.993137Z,1697901533993,46
1.2074965238571167,-0.2684507966041565,0.188633918762207,2023-10-21T15:18:54.004230Z,1697901534004,47
0.9967799186706544,-0.4763738214969635,0.2818866670131683,2023-10-21T15:18:54.017872Z,1697901534017,48
0.8266369104385376,-0.6603517532348633,0.3715476393699646,2023-10-21T15:18:54.024255Z,1697901534024,49
0.6954711675643921,-0.8207836747169495,0.4578829109668731,2023-10-21T15:18:54.034695Z,1697901534034,50
0.5953009724617004,-0.9603302478790284,0.5420897006988525,2023-10-21T15:18:54.044507Z,1697901534044,51
0.5185437202453613,-1.0812528133392334,0.6241680979728699,2023-10-21T15:18:54.054092Z,1697901534054,52
0.4602774083614349,-1.183285355567932,0.7021225690841675,2023-10-21T15:18:54.068871Z,1697901534068,53
0.4165111482143402,-1.2661619186401367,0.7743569016456604,2023-10-21T15:18:54.074236Z,1697901534074,54
0.3829880356788635,-1.3297494649887085,0.8390085697174072,2023-10-21T15:18:54.085657Z,1697901534085,55
0.3569145202636719,-1.3748459815979004,0.8948803544044495,2023-10-21T15:18:54.094437Z,1697901534094,56
0.3356300294399261,-1.402116775512695,0.9422383904457092,2023-10-21T15:18:54.105551Z,1697901534105,57
0.3171391189098358,-1.4124928712844849,0.982279896736145,2023-10-21T15:18:54.117929Z,1697901534117,58
0.2990472912788391,-1.407437801361084,1.015802979469299,2023-10-21T15:18:54.125541Z,1697901534125,59
0.2770976424217224,-1.3912084102630615,1.0434727668762207,2023-10-21T15:18:54.135074Z,1697901534135,60
0.2462351024150848,-1.3691257238388062,1.0644912719726562,2023-10-21T15:18:54.145845Z,1697901534145,61
0.2032670229673385,-1.3471760749816897,1.077394962310791,2023-10-21T15:18:54.155392Z,1697901534155,62
0.1463309675455093,-1.3302814960479736,1.0803216695785522,2023-10-21T15:18:54.168811Z,1697901534168,63
0.0740966796875,-1.321501612663269,1.074202299118042,2023-10-21T15:18:54.175507Z,1697901534175,64
-0.0130367586389184,-1.3212356567382812,1.0602344274520874,2023-10-21T15:18:54.186690Z,1697901534186,65
-0.1118766739964485,-1.32655668258667,1.0408122539520264,2023-10-21T15:18:54.195725Z,1697901534195,66
-0.2186982780694961,-1.3324099779129028,1.0197938680648804,2023-10-21T15:18:54.206918Z,1697901534206,67
-0.3279143869876861,-1.330946683883667,0.9998396039009094,2023-10-21T15:18:54.217698Z,1697901534217,68
-0.433671772480011,-1.3135199546813965,0.982279896736145,2023-10-21T15:18:54.226928Z,1697901534226,69
-0.5322456359863281,-1.2752078771591189,0.9671146869659424,2023-10-21T15:18:54.250909Z,1697901534250,70
-0.6213744878768921,-1.2154781818389893,0.9544770121574402,2023-10-21T15:18:54.252525Z,1697901534252,71
-0.7022556066513062,-1.1377897262573242,0.9458301663398744,2023-10-21T15:18:54.256556Z,1697901534256,72
-0.7768844366073608,-1.0461333990097046,0.9422383904457092,2023-10-21T15:18:54.269172Z,1697901534269,73
-0.8475223779678345,-0.9463622570037842,0.9435687065124512,2023-10-21T15:18:54.276826Z,1697901534276,74
-0.9149676561355592,-0.8444626927375793,0.9474264979362488,2023-10-21T15:18:54.302509Z,1697901534302,75
-0.9794862866401672,-0.7460218667984009,0.9514173269271852,2023-10-21T15:18:54.303215Z,1697901534303,76
-1.0440049171447754,-0.6554297208786011,0.9558072686195374,2023-10-21T15:18:54.307968Z,1697901534307,77
-1.1107851266860962,-0.5738834738731384,0.9607293009757996,2023-10-21T15:18:54.334617Z,1697901534334,78
-1.1788954734802246,-0.5008509755134583,0.9635229110717772,2023-10-21T15:18:54.336248Z,1697901534336,79
-1.2475379705429075,-0.4346029758453369,0.9628577828407288,2023-10-21T15:18:54.337675Z,1697901534337,80
-1.3175108432769775,-0.3735430538654327,0.9593990445137024,2023-10-21T15:18:54.368868Z,1697901534368,81
-1.389212965965271,-0.3163409531116485,0.9540778994560242,2023-10-21T15:18:54.369546Z,1697901534369,82
-1.4621124267578125,-0.2617993950843811,0.9466283321380616,2023-10-21T15:18:54.370775Z,1697901534370,83
-1.537406325340271,-0.211381733417511,0.9366512298583984,2023-10-21T15:18:54.378072Z,1697901534378,84
-1.6164250373840332,-0.166817307472229,0.9241465926170348,2023-10-21T15:18:54.451386Z,1697901534451,85
-1.698636531829834,-0.1294363886117935,0.9080501794815063,2023-10-21T15:18:54.452099Z,1697901534452,86
-1.7816460132598877,-0.0995050594210624,0.8878298997879028,2023-10-21T15:18:54.453344Z,1697901534453,87
-1.8637243509292605,-0.0763581618666648,0.8648160099983215,2023-10-21T15:18:54.453927Z,1697901534453,88
-1.942743182182312,-0.0583993569016456,0.8415361046791077,2023-10-21T15:18:54.455163Z,1697901534455,89
-2.01497745513916,-0.0423029512166976,0.8201185464859009,2023-10-21T15:18:54.455688Z,1697901534455,90
-2.077633619308472,-0.0239450670778751,0.8026918768882751,2023-10-21T15:18:54.456751Z,1697901534456,91
-2.128051280975342,0.0027935912366956,0.7908523678779602,2023-10-21T15:18:54.459329Z,1697901534459,92
-2.162771701812744,0.0441653467714786,0.7847330570220947,2023-10-21T15:18:54.470283Z,1697901534470,93
-2.1803314685821533,0.1037619560956955,0.7856642603874207,2023-10-21T15:18:54.484474Z,1697901534484,94
-2.1807305812835693,0.1818494796752929,0.7957744002342224,2023-10-21T15:18:54.490325Z,1697901534490,95
-2.163436889648437,0.2765655219554901,0.8169258832931519,2023-10-21T15:18:54.517795Z,1697901534517,96
-2.125922918319702,0.384983479976654,0.8481875061988831,2023-10-21T15:18:54.519475Z,1697901534519,97
-2.06645941734314,0.5019152164459229,0.8861005306243896,2023-10-21T15:18:54.520091Z,1697901534520,98
-1.987041473388672,0.6203102469444275,0.925476849079132,2023-10-21T15:18:54.535272Z,1697901534535,99
-1.8937888145446773,0.7320539355278015,0.9609953761100768,2023-10-21T15:18:54.540332Z,1697901534540,100
-1.7958800792694092,0.829164445400238,0.9886652231216432,2023-10-21T15:18:54.551874Z,1697901534551,101
-1.7042236328125,0.9056556820869446,1.0050276517868042,2023-10-21T15:18:54.560468Z,1697901534560,102
-1.628264546394348,0.9587339162826538,1.0071561336517334,2023-10-21T15:18:54.571609Z,1697901534571,103
-1.572259783744812,0.9899954795837402,0.993720293045044,2023-10-21T15:18:54.584202Z,1697901534584,104
-1.5362091064453125,1.00236713886261,0.9660504460334778,2023-10-21T15:18:54.591684Z,1697901534591,105
-1.51691997051239,1.0003716945648191,0.9272062182426452,2023-10-21T15:18:54.601124Z,1697901534601,106
-1.5094704627990725,0.9881331324577332,0.8813115358352661,2023-10-21T15:18:54.611881Z,1697901534611,107
-1.508140206336975,0.969110071659088,0.8312929272651672,2023-10-21T15:18:54.621430Z,1697901534621,108
-1.5076080560684204,0.9447659254074096,0.7795449495315552,2023-10-21T15:18:54.635090Z,1697901534635,109
-1.504947543144226,0.9152336716651917,0.7280630469322205,2023-10-21T15:18:54.641558Z,1697901534641,110
-1.5016217231750488,0.8793160915374756,0.6788426637649536,2023-10-21T15:18:54.652683Z,1697901534652,111
-1.499626398086548,0.8362149596214294,0.6328149437904358,2023-10-21T15:18:54.661779Z,1697901534661,112
-1.4982960224151611,0.7860633730888367,0.5889156460762024,2023-10-21T15:18:54.672976Z,1697901534672,113
-1.496566653251648,0.7305905818939209,0.5458145141601562,2023-10-21T15:18:54.684207Z,1697901534684,114
-1.4956355094909668,0.6708609461784363,0.5027133822441101,2023-10-21T15:18:54.692958Z,1697901534692,115
-1.500158429145813,0.6083377599716187,0.4597452878952026,2023-10-21T15:18:54.702489Z,1697901534702,116
-1.5143924951553345,0.5447502732276917,0.4175753593444824,2023-10-21T15:18:54.713249Z,1697901534713,117
-1.5387365818023682,0.4828921854496002,0.3763366341590881,2023-10-21T15:18:54.722734Z,1697901534722,118
-1.5711954832077026,0.425690084695816,0.336827278137207,2023-10-21T15:18:54.735137Z,1697901534735,119
-1.608975529670715,0.3751393854618072,0.2997124195098877,2023-10-21T15:18:54.742910Z,1697901534742,120
-1.6500811576843262,0.3317722082138061,0.2656572163105011,2023-10-21T15:18:54.754053Z,1697901534753,121
-1.6929162740707395,0.2945243418216705,0.2351937741041183,2023-10-21T15:18:54.767420Z,1697901534767,122
-1.73402202129364,0.2623315155506134,0.2091202586889267,2023-10-21T15:18:54.774066Z,1697901534774,123
-1.7678110599517822,0.2343956083059311,0.1879687756299972,2023-10-21T15:18:54.784117Z,1697901534784,124
-1.7885634899139404,0.2111156731843948,0.1718723773956298,2023-10-21T15:18:54.794319Z,1697901534794,125
-1.7928204536437988,0.1916935741901397,0.1601658910512924,2023-10-21T15:18:54.803804Z,1697901534803,126
-1.780581831932068,0.1741338521242141,0.1519181430339813,2023-10-21T15:18:54.818374Z,1697901534818,127
-1.7551734447479248,0.1551108211278915,0.1453997641801834,2023-10-21T15:18:54.823966Z,1697901534823,128
-1.7205860614776611,0.1310327351093292,0.1384823024272918,2023-10-21T15:18:54.835068Z,1697901534835,129
-1.6814758777618408,0.0988399162888526,0.1282391399145126,2023-10-21T15:18:54.844157Z,1697901534844,130
-1.6402370929718018,0.0566699914634227,0.1118766739964485,2023-10-21T15:18:54.855339Z,1697901534855,131
-1.5982002019882202,0.0039908443577587,0.0871334373950958,2023-10-21T15:18:54.867395Z,1697901534867,132
-1.5569615364074707,-0.0586654134094715,0.0537433736026287,2023-10-21T15:18:54.875411Z,1697901534875,133
-1.5173190832138062,-0.1295694261789322,0.0129037303850054,2023-10-21T15:18:54.885036Z,1697901534884,134
-1.479140043258667,-0.2053954601287841,-0.0324588678777217,2023-10-21T15:18:54.895676Z,1697901534895,135
-1.4429563283920288,-0.2820196747779846,-0.0796838626265525,2023-10-21T15:18:54.905138Z,1697901534905,136
-1.411029577255249,-0.3563824295997619,-0.126908853650093,2023-10-21T15:18:54.918173Z,1697901534918,137
-1.386951565742493,-0.4268873333930969,-0.173867791891098,2023-10-21T15:18:54.925270Z,1697901534925,138
-1.3739147186279297,-0.4931353628635406,-0.2208267301321029,2023-10-21T15:18:54.936384Z,1697901534936,139
-1.3756440877914429,-0.555924654006958,-0.2692489922046661,2023-10-21T15:18:54.945424Z,1697901534945,140
-1.3977267742156982,-0.6173836588859558,-0.3203317821025848,2023-10-21T15:18:54.956686Z,1697901534956,141
-1.4449517726898191,-0.6803059577941895,-0.3759375512599945,2023-10-21T15:18:54.967272Z,1697901534967,142
-1.515988826751709,-0.7452237010002136,-0.4369974732398987,2023-10-21T15:18:54.976644Z,1697901534976,143
-1.601925015449524,-0.8096093535423279,-0.5017821788787842,2023-10-21T15:18:54.986227Z,1697901534986,144
-1.691452980041504,-0.8697380423545837,-0.5666999220848083,2023-10-21T15:18:55.001795Z,1697901535001,145
-1.771934986114502,-0.9209538698196412,-0.6262965202331543,2023-10-21T15:18:55.006403Z,1697901535006,146
-1.8298022747039795,-0.959132969379425,-0.6743196845054626,2023-10-21T15:18:55.018222Z,1697901535018,147
-1.8524169921875,-0.9816147089004515,-0.7054482698440552,2023-10-21T15:18:55.026560Z,1697901535026,148
-1.831265568733216,-0.9868028163909912,-0.7158244848251343,2023-10-21T15:18:55.037712Z,1697901535037,149
-1.7603615522384644,-0.9748302698135376,-0.7038519382476807,2023-10-21T15:18:55.050595Z,1697901535050,150
-1.636512279510498,-0.9467613697052002,-0.6701958179473877,2023-10-21T15:18:55.057678Z,1697901535057,151
-1.463708758354187,-0.9067198634147644,-0.617782711982727,2023-10-21T15:18:55.067361Z,1697901535067,152
-1.253258228302002,-0.860027015209198,-0.5525989532470703,2023-10-21T15:18:55.078001Z,1697901535077,153
-1.0225874185562134,-0.8121368885040283,-0.4826261401176452,2023-10-21T15:18:55.087514Z,1697901535087,154
-0.789122998714447,-0.767306387424469,-0.4154469072818756,2023-10-21T15:18:55.101584Z,1697901535101,155
-0.5702916979789734,-0.7289942502975464,-0.3569145202636719,2023-10-21T15:18:55.107668Z,1697901535107,156
-0.3809926211833954,-0.6991959810256958,-0.3088913559913635,2023-10-21T15:18:55.118751Z,1697901535118,157
-0.2285423725843429,-0.6769802570343018,-0.2708453238010406,2023-10-21T15:18:55.127910Z,1697901535127,158
-0.1106794252991676,-0.6603517532348633,-0.2411800324916839,2023-10-21T15:18:55.139006Z,1697901535138,159
-0.0198211949318647,-0.6467828750610352,-0.2179001122713089,2023-10-21T15:18:55.150505Z,1697901535150,160
0.0514818951487541,-0.6350764036178589,-0.1979458928108215,2023-10-21T15:18:55.159053Z,1697901535159,161
0.1105463951826095,-0.6244341731071472,-0.1779916733503341,2023-10-21T15:18:55.168551Z,1697901535168,162
0.1672163903713226,-0.6132597923278809,-0.1559089869260788,2023-10-21T15:18:55.179318Z,1697901535179,163
0.2292075008153915,-0.60048907995224,-0.1312987804412841,2023-10-21T15:18:55.188829Z,1697901535188,164
0.2979830503463745,-0.5857229828834534,-0.1048261821269989,2023-10-21T15:18:55.201358Z,1697901535201,165
0.3670246601104736,-0.5692274570465088,-0.0786196365952491,2023-10-21T15:18:55.208954Z,1697901535208,166
0.4262222051620483,-0.5518007874488831,-0.0542754866182804,2023-10-21T15:18:55.220165Z,1697901535220,167
0.4650664329528808,-0.53410804271698,-0.0328579545021057,2023-10-21T15:18:55.234101Z,1697901535234,168
0.4765068292617798,-0.5160161852836609,-0.014500068500638,2023-10-21T15:18:55.240158Z,1697901535240,169
0.459080159664154,-0.4960619807243347,0.0015963378828018,2023-10-21T15:18:55.251214Z,1697901535251,170
0.4158459901809692,-0.4713187515735626,0.0171606317162513,2023-10-21T15:18:55.260671Z,1697901535260,171
0.3533227741718292,-0.4397910833358764,0.0344542898237705,2023-10-21T15:18:55.269814Z,1697901535269,172
0.2796251773834228,-0.4014789760112762,0.056137878447771,2023-10-21T15:18:55.284631Z,1697901535284,173
0.2053954601287841,-0.3569145202636719,0.0846059024333953,2023-10-21T15:18:55.290118Z,1697901535290,174
0.1411428749561309,-0.3066298961639404,0.1213216781616211,2023-10-21T15:18:55.301166Z,1697901535301,175
0.0944499894976615,-0.251822292804718,0.1653539985418319,2023-10-21T15:18:55.310455Z,1697901535310,176
0.0685094967484474,-0.1943541318178177,0.2139092683792114,2023-10-21T15:18:55.321157Z,1697901535321,177
0.0618580915033817,-0.1375511139631271,0.2625975608825683,2023-10-21T15:18:55.333831Z,1697901535333,178
0.0707709789276123,-0.085138015449047,0.3074280619621277,2023-10-21T15:18:55.341396Z,1697901535341,179
0.0896609723567962,-0.0400414727628231,0.3450750410556793,2023-10-21T15:18:55.350932Z,1697901535350,180
0.1128078699111938,-0.004789013415575,0.3739421367645263,2023-10-21T15:18:55.361650Z,1697901535361,181
0.1358217447996139,0.0199542231857776,0.3932312130928039,2023-10-21T15:18:55.371148Z,1697901535371,182
0.1571062505245208,0.0341882333159446,0.4024101495742798,2023-10-21T15:18:55.384426Z,1697901535384,183
0.1779916733503341,0.0391102768480777,0.4008138179779053,2023-10-21T15:18:55.391310Z,1697901535391,184
0.1988770812749862,0.0348533764481544,0.3889743089675903,2023-10-21T15:18:55.402460Z,1697901535402,185
0.2175010293722152,0.0214175321161746,0.3695521950721741,2023-10-21T15:18:55.411490Z,1697901535411,186
0.2325332164764404,-0.0009311970788985,0.344808965921402,2023-10-21T15:18:55.422823Z,1697901535422,187
0.2218909561634063,-0.0131697868928313,0.3071620166301727,2023-10-21T15:18:55.433585Z,1697901535433,188
0.2365240603685379,-0.0482892207801342,0.2759003937244415,2023-10-21T15:18:55.442689Z,1697901535442,189
0.2723086178302765,-0.1024316772818565,0.2492947578430175,2023-10-21T15:18:55.452252Z,1697901535452,190
0.2769646048545837,-0.1388813853263855,0.2096523642539978,2023-10-21T15:18:55.468089Z,1697901535468,191
0.2747031450271606,-0.1763953268527984,0.168546661734581,2023-10-21T15:18:55.472450Z,1697901535472,192
0.262996643781662,-0.2141753286123275,0.126908853650093,2023-10-21T15:18:55.484574Z,1697901535484,193
0.2389185577630996,-0.2519553303718567,0.0860692113637924,2023-10-21T15:18:55.492622Z,1697901535492,194
0.2020697593688964,-0.289070188999176,0.0469589382410049,2023-10-21T15:18:55.503753Z,1697901535503,195
0.1547117382287979,-0.3240565657615661,0.0106422519311308,2023-10-21T15:18:55.516813Z,1697901535516,196
0.1005692854523658,-0.3545200228691101,-0.022614786401391,2023-10-21T15:18:55.523723Z,1697901535523,197
0.0435002073645591,-0.3784650862216949,-0.0512158386409282,2023-10-21T15:18:55.533600Z,1697901535533,198
-0.0146330967545509,-0.3949605822563171,-0.0732985138893127,2023-10-21T15:18:55.544027Z,1697901535544,199
-0.6997280716896057,-0.3630338311195373,0.0731654837727546,2023-10-21T15:18:51.572424Z,1697901531572,200
-0.710503339767456,-0.3707494735717773,0.0759590715169906,2023-10-21T15:18:51.586415Z,1697901531586,201
-0.7231410145759583,-0.3792632520198822,0.0775554105639457,2023-10-21T15:18:51.592429Z,1697901531592,202
-0.7363108396530151,-0.3868458569049835,0.0780875235795974,2023-10-21T15:18:51.602917Z,1697901531602,203
-0.7505448460578918,-0.3932312130928039,0.0780875235795974,2023-10-21T15:18:51.612661Z,1697901531612,204
-0.7683706283569336,-0.3990844488143921,0.0783535838127136,2023-10-21T15:18:51.622209Z,1697901531622,205
-0.7920496463775635,-0.4050707221031189,0.0800829455256462,2023-10-21T15:18:51.637411Z,1697901531637,206
-0.8213158249855042,-0.4102588295936584,0.0838077366352081,2023-10-21T15:18:51.642403Z,1697901531642,207
-0.8557701110839844,-0.4138505756855011,0.090326115489006,2023-10-21T15:18:51.653863Z,1697901531653,208
-0.8947473764419556,-0.4155799448490143,0.099771112203598,2023-10-21T15:18:51.662604Z,1697901531662,209
-0.9374493956565856,-0.4149148166179657,0.1122757568955421,2023-10-21T15:18:51.673687Z,1697901531673,210
-0.9817477464675904,-0.4107909202575683,0.1277070194482803,2023-10-21T15:18:51.686289Z,1697901531686,211
-1.025514006614685,-0.4033413529396057,0.1460649073123932,2023-10-21T15:18:51.694006Z,1697901531693,212
-1.06821608543396,-0.3941624164581299,0.166817307472229,2023-10-21T15:18:51.703213Z,1697901531703,213
-1.109587788581848,-0.3856486082077026,0.1894320845603943,2023-10-21T15:18:51.714063Z,1697901531714,214
-1.1493632793426514,-0.3788641691207886,0.2124459594488144,2023-10-21T15:18:51.723458Z,1697901531723,215
-1.185945987701416,-0.3732770085334778,0.2345286309719085,2023-10-21T15:18:51.737076Z,1697901531737,216
-1.2176066637039185,-0.3670246601104736,0.2543498277664184,2023-10-21T15:18:51.743692Z,1697901531743,217
-1.2451435327529907,-0.3597081303596496,0.2717765271663666,2023-10-21T15:18:51.754795Z,1697901531754,218
-1.2717491388320925,-0.3522585332393646,0.2878729104995727,2023-10-21T15:18:51.763858Z,1697901531763,219
-1.3018134832382202,-0.3456071317195892,0.3043684065341949,2023-10-21T15:18:51.775059Z,1697901531775,220
-1.336533784866333,-0.3392217755317688,0.3228593170642853,2023-10-21T15:18:51.786321Z,1697901531786,221
-1.3733826875686646,-0.3316391706466675,0.3450750410556793,2023-10-21T15:18:51.795040Z,1697901531795,222
-1.4087681770324707,-0.3229923546314239,0.3722127676010132,2023-10-21T15:18:51.819210Z,1697901531819,223
-1.4394975900650024,-0.3134143352508545,0.4057358503341675,2023-10-21T15:18:51.820827Z,1697901531820,224
-1.4631766080856323,-0.3033041954040527,0.4453782439231872,2023-10-21T15:18:51.824711Z,1697901531824,225
-1.4779428243637085,-0.2929279804229736,0.4880802929401397,2023-10-21T15:18:51.837177Z,1697901531837,226
-1.4835299253463743,-0.2820196747779846,0.529984176158905,2023-10-21T15:18:51.845021Z,1697901531844,227
-1.4807363748550415,-0.2701801657676697,0.5676311254501343,2023-10-21T15:18:51.870817Z,1697901531870,228
-1.4742180109024048,-0.2576755285263061,0.5992918014526367,2023-10-21T15:18:51.871525Z,1697901531871,229
-1.470094084739685,-0.2462351024150848,0.6241680979728699,2023-10-21T15:18:51.876139Z,1697901531876,230
-1.4728877544403076,-0.2371891885995865,0.6438562273979187,2023-10-21T15:18:51.903165Z,1697901531903,231
-1.481401443481445,-0.2301387041807174,0.662746250629425,2023-10-21T15:18:51.904795Z,1697901531904,232
-1.492309808731079,-0.2236203253269195,0.6888197660446167,2023-10-21T15:18:51.905804Z,1697901531905,233
-1.5042823553085327,-0.2169689089059829,0.7303245663642883,2023-10-21T15:18:51.937202Z,1697901531937,234
-1.5170530080795288,-0.2093863040208816,0.792315661907196,2023-10-21T15:18:51.937900Z,1697901531937,235
-1.5299568176269531,-0.1991431415081024,0.8753252625465393,2023-10-21T15:18:51.939114Z,1697901531939,236
-1.543259620666504,-0.1851751804351806,0.9752293825149536,2023-10-21T15:18:51.946331Z,1697901531946,237
-1.5606862306594849,-0.1689457595348358,1.0853767395019531,2023-10-21T15:18:52.020071Z,1697901532020,238
-1.5874249935150146,-0.15205118060112,1.197785496711731,2023-10-21T15:18:52.020786Z,1697901532020,239
-1.6289297342300415,-0.1356887221336364,1.3054052591323853,2023-10-21T15:18:52.021983Z,1697901532021,240
-1.6898566484451294,-0.121188648045063,1.4038461446762085,2023-10-21T15:18:52.022597Z,1697901532022,241
-1.774728536605835,-0.1090830862522125,1.4931080341339111,2023-10-21T15:18:52.023681Z,1697901532023,242
-1.88740336894989,-0.1000371724367141,1.5779799222946167,2023-10-21T15:18:52.024203Z,1697901532024,243
-2.035995960235596,-0.0947160422801971,1.6653794050216677,2023-10-21T15:18:52.025254Z,1697901532025,244
-2.2343409061431885,-0.0947160422801971,1.7595633268356323,2023-10-21T15:18:52.027368Z,1697901532027,245
-2.4990668296813965,-0.1013674512505531,1.856806993484497,2023-10-21T15:18:52.038431Z,1697901532038,246
-2.8442749977111816,-0.1148032918572425,1.9450045824050903,2023-10-21T15:18:52.047545Z,1697901532047,247
-3.274487972259521,-0.1327620893716812,2.008991241455078,2023-10-21T15:18:52.058796Z,1697901532058,248
-3.777600526809693,-0.151119977235794,2.0357298851013184,2023-10-21T15:18:52.086296Z,1697901532086,249
-4.316098213195801,-0.164422795176506,2.0171058177948,2023-10-21T15:18:52.087954Z,1697901532087,250
-4.814022541046143,-0.1673494130373001,1.955114722251892,2023-10-21T15:18:52.088537Z,1697901532088,251
-5.17240047454834,-0.1589686423540115,1.861862063407898,2023-10-21T15:18:52.103656Z,1697901532103,252
-5.033785343170166,-0.1467300504446029,1.7471917867660522,2023-10-21T15:18:52.108461Z,1697901532108,253
-5.086730480194092,-0.1444685757160186,1.6653794050216677,2023-10-21T15:18:52.120543Z,1697901532120,254
-4.524819374084473,-0.1654870212078094,1.5979341268539429,2023-10-21T15:18:52.128664Z,1697901532128,255
-3.602535486221313,-0.2165698260068893,1.559622049331665,2023-10-21T15:18:52.139758Z,1697901532139,256
-2.3545982837677,-0.2950564324855804,1.5419293642044067,2023-10-21T15:18:52.152660Z,1697901532152,257
-0.8364810347557068,-0.3908367156982422,1.5275622606277466,2023-10-21T15:18:52.159866Z,1697901532159,258
0.8577654957771301,-0.4898096621036529,1.491378664970398,2023-10-21T15:18:52.169269Z,1697901532169,259
2.576489210128784,-0.5797367095947266,1.4087681770324707,2023-10-21T15:18:52.180008Z,1697901532179,260
4.106711864471436,-0.6535673141479492,1.2694876194000244,2023-10-21T15:18:52.189568Z,1697901532189,261
5.233460426330566,-0.7081088423728943,1.0831152200698853,2023-10-21T15:18:52.203474Z,1697901532203,262
5.492067337036133,-0.7389714121818542,0.8701371550559998,2023-10-21T15:18:52.209719Z,1697901532209,263
5.531044483184815,-0.7436273694038391,0.6560948491096497,2023-10-21T15:18:52.220802Z,1697901532220,264
5.197543144226074,-0.719150185585022,0.4569517076015472,2023-10-21T15:18:52.229953Z,1697901532229,265
4.812692642211914,-0.6678013205528259,0.2857444584369659,2023-10-21T15:18:52.241117Z,1697901532241,266
4.0266289710998535,-0.5925073623657227,0.1505878716707229,2023-10-21T15:18:52.252626Z,1697901532252,267
3.2239372730255127,-0.4995207190513611,0.054674569517374,2023-10-21T15:18:52.261164Z,1697901532261,268
2.462750196456909,-0.3952266275882721,-0.0037247883155941,2023-10-21T15:18:52.270644Z,1697901532270,269
1.7732652425765991,-0.2878729104995727,-0.0300643630325794,2023-10-21T15:18:52.285757Z,1697901532285,270
1.1774321794509888,-0.184776097536087,-0.0336561240255832,2023-10-21T15:18:52.290878Z,1697901532290,271
0.6925445795059204,-0.0911242812871933,-0.0250092931091785,2023-10-21T15:18:52.303405Z,1697901532303,272
0.3268501758575439,-0.010376195423305,-0.0155642936006188,2023-10-21T15:18:52.311054Z,1697901532311,273
0.0810141414403915,0.0541424565017223,-0.0151652097702026,2023-10-21T15:18:52.322182Z,1697901532322,274
-0.0528121776878833,0.0991059765219688,-0.0303304195404052,2023-10-21T15:18:52.335796Z,1697901532335,275
-0.0876655504107475,0.1230510398745536,-0.0625232309103012,2023-10-21T15:18:52.342227Z,1697901532342,276
-0.040440559387207,0.1266427934169769,-0.1092161163687706,2023-10-21T15:18:52.352463Z,1697901532352,277
0.0711700618267059,0.1120097041130065,-0.1665512472391128,2023-10-21T15:18:52.362522Z,1697901532362,278
0.2266799658536911,0.0823444277048111,-0.2308038473129272,2023-10-21T15:18:52.371971Z,1697901532371,279
0.4024101495742798,0.0405735857784748,-0.30024453997612,2023-10-21T15:18:52.386891Z,1697901532386,280
0.578140377998352,-0.0093119703233242,-0.373410016298294,2023-10-21T15:18:52.392132Z,1697901532392,281
0.7385722994804382,-0.0634544268250465,-0.4479057788848877,2023-10-21T15:18:52.403321Z,1697901532403,282
0.8725316524505615,-0.1185280829668045,-0.5201400518417358,2023-10-21T15:18:52.412328Z,1697901532412,283
0.9727018475532532,-0.172404482960701,-0.5870532393455505,2023-10-21T15:18:52.423455Z,1697901532423,284
1.035491108894348,-0.2230882048606872,-0.6449204683303833,2023-10-21T15:18:52.435755Z,1697901532435,285
1.059569239616394,-0.2675196230411529,-0.6902830600738525,2023-10-21T15:18:52.443506Z,1697901532443,286
1.0444040298461914,-0.3019739091396332,-0.7174208164215088,2023-10-21T15:18:52.453063Z,1697901532453,287
0.991857886314392,-0.3219281136989593,-0.7184850573539734,2023-10-21T15:18:52.463812Z,1697901532463,288
0.9072520136833192,-0.3245886862277984,-0.6852279901504517,2023-10-21T15:18:52.473316Z,1697901532473,289
0.7951092720031738,-0.2977170050144195,-0.6105992197990417,2023-10-21T15:18:52.486551Z,1697901532486,290
0.6684664487838745,-0.2680517137050628,-0.4828921854496002,2023-10-21T15:18:52.493469Z,1697901532493,291
0.532777726650238,-0.233198344707489,-0.2942582666873932,2023-10-21T15:18:52.504528Z,1697901532504,292
0.3877770602703094,-0.166817307472229,-0.041903868317604,2023-10-21T15:18:52.513655Z,1697901532513,293
0.2410470098257064,-0.0820783674716949,0.277496725320816,2023-10-21T15:18:52.524855Z,1697901532524,294
0.0921885073184967,0.0202202796936035,0.6580902934074402,2023-10-21T15:18:52.535564Z,1697901532535,295
-0.0650507658720016,0.1394135057926178,1.0888354778289795,2023-10-21T15:18:52.544863Z,1697901532544,296
-0.2398497611284256,0.2753682732582092,1.5527045726776123,2023-10-21T15:18:52.554416Z,1697901532554,297
-0.4388598799705505,0.4266212880611419,2.029078483581543,2023-10-21T15:18:52.570009Z,1697901532569,298
-0.6640765070915222,0.5883834958076477,2.49760365486145,2023-10-21T15:18:52.574595Z,1697901532574,299
-0.915499746799469,0.7542695999145508,2.9404542446136475,2023-10-21T15:18:52.586469Z,1697901532586,300
-1.1886065006256104,0.9164309501647948,3.3469882011413574,2023-10-21T15:18:52.594751Z,1697901532594,301
-1.4730206727981567,1.0666197538375854,3.711884498596192,2023-10-21T15:18:52.605856Z,1697901532605,302
-1.756769776344299,1.197785496711731,4.036606311798096,2023-10-21T15:18:52.618801Z,1697901532618,303
-2.034798622131348,1.306868553161621,4.325543403625488,2023-10-21T15:18:52.625897Z,1697901532625,304
-2.3269283771514893,1.4049103260040283,4.583352088928223,2023-10-21T15:18:52.635439Z,1697901532635,305
-2.6924898624420166,1.529557704925537,4.812027454376221,2023-10-21T15:18:52.646194Z,1697901532646,306
-3.3037540912628174,1.793352484703064,5.000927448272705,2023-10-21T15:18:52.655654Z,1697901532655,307
-4.872156143188477,2.662691593170166,5.0760884284973145,2023-10-21T15:18:52.669983Z,1697901532669,308
-11.738404273986816,7.759398937225342,4.213666915893555,2023-10-21T15:18:52.675844Z,1697901532675,309
-22.93498420715332,16.851341247558594,3.0653676986694336,2023-10-21T15:18:52.686940Z,1697901532686,310
-27.213701248168945,20.96364021301269,2.7758984565734863,2023-10-21T15:18:52.696038Z,1697901532696,311
-24.82065773010254,19.359453201293945,3.2822036743164062,2023-10-21T15:18:52.707193Z,1697901532707,312
-21.861713409423828,17.125112533569336,3.790770292282105,2023-10-21T15:18:52.718871Z,1697901532718,313
-19.056415557861328,14.930813789367676,4.198102474212647,2023-10-21T15:18:52.727143Z,1697901532727,314
-16.531940460205078,12.91530418395996,4.477062225341797,2023-10-21T15:18:52.736706Z,1697901532736,315
-14.303718566894531,11.10918140411377,4.621930122375488,2023-10-21T15:18:52.752011Z,1697901532751,316
-12.362173080444336,9.517898559570312,4.639755725860596,2023-10-21T15:18:52.756924Z,1697901532756,317
-10.691739082336426,8.139460563659668,4.544241905212402,2023-10-21T15:18:52.769587Z,1697901532769,318
-9.27631950378418,6.968679904937744,4.349488258361816,2023-10-21T15:18:52.777118Z,1697901532777,319
-8.096758842468262,5.995445728302002,4.067335605621338,2023-10-21T15:18:52.788199Z,1697901532788,320
-7.124722003936768,5.200336456298828,3.70682954788208,2023-10-21T15:18:52.802149Z,1697901532802,321
-6.325089454650879,4.557278633117676,3.278212785720825,2023-10-21T15:18:52.808224Z,1697901532808,322
-5.661545276641846,4.039532661437988,2.796384811401367,2023-10-21T15:18:52.818654Z,1697901532818,323
-5.106152534484863,3.631003379821777,2.2823638916015625,2023-10-21T15:18:52.828548Z,1697901532828,324
-4.844353199005127,3.402061939239502,1.7741965055465698,2023-10-21T15:18:52.838018Z,1697901532837,325
-4.4207916259765625,3.192941665649414,1.2697536945343018,2023-10-21T15:18:52.853191Z,1697901532853,326
-4.101257801055908,3.1133909225463867,0.8175910115242004,2023-10-21T15:18:52.858226Z,1697901532858,327
-3.906238555908203,3.2119648456573486,0.4396580457687378,2023-10-21T15:18:52.869962Z,1697901532869,328
-3.889477014541626,3.603067398071289,0.1592347025871276,2023-10-21T15:18:52.878402Z,1697901532878,329
-4.168170928955078,4.537058353424072,0.014367040246725,2023-10-21T15:18:52.889574Z,1697901532889,330
-4.785554885864258,6.146432876586914,0.0911242812871933,2023-10-21T15:18:52.902107Z,1697901532902,331
-6.438828468322754,9.582948684692385,0.5611127614974976,2023-10-21T15:18:52.909527Z,1697901532909,332
-9.02090549468994,14.561793327331545,1.4638417959213257,2023-10-21T15:18:52.919022Z,1697901532918,333
-11.32016372680664,18.69165229797364,2.322804450988769,2023-10-21T15:18:52.929829Z,1697901532929,334
-12.246837615966797,20.095632553100582,2.6721365451812744,2023-10-21T15:18:52.939336Z,1697901532939,335
-12.05527687072754,19.457494735717773,2.5935168266296387,2023-10-21T15:18:52.952858Z,1697901532952,336
-11.326682090759276,17.90851593017578,2.319744825363159,2023-10-21T15:18:52.959495Z,1697901532959,337
-10.38683795928955,16.036542892456055,1.9825185537338257,2023-10-21T15:18:52.970643Z,1697901532970,338
-9.394580841064451,14.10484218597412,1.6399710178375244,2023-10-21T15:18:52.979704Z,1697901532979,339
-8.428796768188477,12.22994327545166,1.3133869171142578,2023-10-21T15:18:52.990908Z,1697901532990,340
-7.53311824798584,10.468916893005373,1.005958914756775,2023-10-21T15:18:53.001894Z,1697901533001,341
-6.732954025268555,8.855684280395508,0.7135630249977112,2023-10-21T15:18:53.010828Z,1697901533010,342
-6.040808200836182,7.410200119018555,0.4290157854557037,2023-10-21T15:18:53.020391Z,1697901533020,343
-5.458012104034424,6.138717174530029,0.1453997641801834,2023-10-21T15:18:53.035337Z,1697901533035,344
-4.9795098304748535,5.039372444152832,-0.1408768147230148,2023-10-21T15:18:53.040611Z,1697901533040,345
-4.792738437652588,4.245327472686768,-0.4300800263881683,2023-10-21T15:18:53.053352Z,1697901533053,346
-4.458039283752441,3.396873950958252,-0.7184850573539734,2023-10-21T15:18:53.060782Z,1697901533060,347
-4.202625274658203,2.710049629211426,-1.0002386569976809,2023-10-21T15:18:53.071858Z,1697901533071,348
-4.005876541137695,2.1530606746673584,-1.266028881072998,2023-10-21T15:18:53.085292Z,1697901533085,349
-3.850233793258667,1.706086039543152,-1.5058786869049072,2023-10-21T15:18:53.091915Z,1697901533091,350
-3.7202653884887695,1.3556898832321167,-1.7111411094665527,2023-10-21T15:18:53.102019Z,1697901533101,351
-3.600672960281372,1.0879042148590088,-1.8767611980438232,2023-10-21T15:18:53.112202Z,1697901533112,352
-3.4794843196868896,0.8868986964225769,-2.0023398399353027,2023-10-21T15:18:53.121700Z,1697901533121,353
-3.348451614379883,0.7371090054512024,-2.091468572616577,2023-10-21T15:18:53.136308Z,1697901533136,354
-3.2051804065704346,0.6321497559547424,-2.1542580127716064,2023-10-21T15:18:53.141917Z,1697901533141,355
-3.053395271301269,0.5774751901626587,-2.204010486602783,2023-10-21T15:18:53.153020Z,1697901533152,356
-2.903073310852051,0.5831954479217529,-2.260813474655152,2023-10-21T15:18:53.162126Z,1697901533162,357
-2.7695131301879883,0.6572921276092529,-2.346217632293701,2023-10-21T15:18:53.173641Z,1697901533173,358
-2.5158283710479736,0.7478842735290527,-2.474323511123657,2023-10-21T15:18:53.185154Z,1697901533185,359
-2.170221328735352,0.8104075193405151,-2.642338275909424,2023-10-21T15:18:53.193261Z,1697901533193,360
-1.8973805904388428,0.8475223779678345,-2.8267152309417725,2023-10-21T15:18:53.202769Z,1697901533202,361
-1.683205246925354,0.8817105889320374,-2.995927095413208,2023-10-21T15:18:53.218436Z,1697901533218,362
-1.5167869329452517,0.9605962634086608,-3.1189780235290527,2023-10-21T15:18:53.223002Z,1697901533222,363
-1.398258924484253,1.1407164335250854,-3.1819002628326416,2023-10-21T15:18:53.235923Z,1697901533235,364
-1.2555197477340698,1.3340063095092771,-3.190946340560913,2023-10-21T15:18:53.243185Z,1697901533243,365
-1.0205919742584229,1.4078369140625,-3.165670871734619,2023-10-21T15:18:53.254351Z,1697901533254,366
-0.9063208103179932,1.359946846961975,-3.149308443069458,2023-10-21T15:18:53.263430Z,1697901533263,367
-0.7281960844993591,1.2094919681549072,-3.2085061073303223,2023-10-21T15:18:53.274581Z,1697901533274,368
-0.3599741756916046,1.0166010856628418,-3.3974058628082275,2023-10-21T15:18:53.285044Z,1697901533285,369
-0.1030968204140663,0.8766555190086365,-3.716673612594605,2023-10-21T15:18:53.294561Z,1697901533294,370
-0.0199542231857776,0.8778527975082397,-4.102588176727295,2023-10-21T15:18:53.304179Z,1697901533304,371
-0.1238492131233215,1.0543811321258545,-4.477594375610352,2023-10-21T15:18:53.319400Z,1697901533319,372
-0.3758045434951782,1.3795019388198853,-4.777972221374512,2023-10-21T15:18:53.324265Z,1697901533324,373
-0.7030537724494934,1.7980085611343384,-4.9330830574035645,2023-10-21T15:18:53.335851Z,1697901533335,374
-1.0071561336517334,2.2247629165649414,-4.875082492828369,2023-10-21T15:18:53.344470Z,1697901533344,375
-1.1957900524139404,2.5614571571350098,-4.593195915222168,2023-10-21T15:18:53.355594Z,1697901533355,376
-1.216808557510376,2.740778923034668,-4.177083969116211,2023-10-21T15:18:53.368353Z,1697901533368,377
-1.0644912719726562,2.759536027908325,-3.750595808029175,2023-10-21T15:18:53.375625Z,1697901533375,378
-0.7748889923095703,2.6729347705841064,-3.380511283874512,2023-10-21T15:18:53.385102Z,1697901533385,379
-0.3969559967517853,2.5468239784240723,-3.063106298446656,2023-10-21T15:18:53.395902Z,1697901533395,380
0.0347203463315963,2.427364587783813,-2.770045280456543,2023-10-21T15:18:53.405405Z,1697901533405,381
0.5146859288215637,2.335841417312622,-2.4950759410858154,2023-10-21T15:18:53.419360Z,1697901533419,382
1.0526517629623413,2.276510715484619,-2.2560243606567383,2023-10-21T15:18:53.425620Z,1697901533425,383
1.6496821641921997,2.248175859451294,-2.073110818862915,2023-10-21T15:18:53.436619Z,1697901533436,384
2.291010856628418,2.248973846435547,-1.9595047235488887,2023-10-21T15:18:53.445773Z,1697901533445,385
2.954422235488892,2.280102491378784,-1.9221237897872925,2023-10-21T15:18:53.456887Z,1697901533456,386
3.610250949859619,2.34222674369812,-1.9593716859817505,2023-10-21T15:18:53.468562Z,1697901533468,387
4.220717430114746,2.428961038589477,-2.057413339614868,2023-10-21T15:18:53.476921Z,1697901533476,388
4.749504089355469,2.5289981365203857,-2.190840721130371,2023-10-21T15:18:53.486554Z,1697901533486,389
5.174263000488281,2.633425235748291,-2.330786228179932,2023-10-21T15:18:53.501744Z,1697901533501,390
5.205790519714356,2.6958155632019043,-2.4189839363098145,2023-10-21T15:18:53.506704Z,1697901533506,391
5.386974811553955,2.786939859390259,-2.4845666885375977,2023-10-21T15:18:53.519445Z,1697901533519,392
5.501379013061523,2.872476816177368,-2.4894888401031494,2023-10-21T15:18:53.526866Z,1697901533526,393
5.580132007598877,2.959344387054444,-2.4362776279449463,2023-10-21T15:18:53.537941Z,1697901533537,394
5.638265132904053,3.046344757080078,-2.3385019302368164,2023-10-21T15:18:53.551714Z,1697901533551,395
5.670324802398682,3.120840549468994,-2.21159291267395,2023-10-21T15:18:53.558013Z,1697901533557,396
5.662210464477539,3.1667351722717285,-2.0720465183258057,2023-10-21T15:18:53.568284Z,1697901533568,397
5.600219249725342,3.171657085418701,-1.935559630393982,2023-10-21T15:18:53.578352Z,1697901533578,398
5.47078275680542,3.126294612884521,-1.810646176338196,2023-10-21T15:18:53.587789Z,1697901533587,399
3.43930983543396,1.3683276176452637,0.6793747544288635,2023-10-21T15:13:24.043614Z,1697901204043,400
3.398869276046753,1.388813853263855,0.7875266671180725,2023-10-21T15:13:24.052991Z,1697901204052,401
3.3318231105804443,1.3971946239471436,0.9121740460395812,2023-10-21T15:13:24.063960Z,1697901204063,402
3.2481484413146973,1.3994561433792114,1.0494590997695925,2023-10-21T15:13:24.075903Z,1697901204075,403
3.1519689559936523,1.397460699081421,1.1943267583847046,2023-10-21T15:13:24.084075Z,1697901204084,404
3.0366337299346924,1.3873505592346191,1.345978856086731,2023-10-21T15:13:24.093506Z,1697901204093,405
2.8954906463623047,1.3672633171081543,1.5053465366363523,2023-10-21T15:13:24.104325Z,1697901204104,406
2.7310678958892822,1.34198796749115,1.671365737915039,2023-10-21T15:13:24.113833Z,1697901204113,407
2.5528101921081543,1.31830894947052,1.842839002609253,2023-10-21T15:13:24.126173Z,1697901204126,408
2.373887300491333,1.3018134832382202,2.0188353061676025,2023-10-21T15:13:24.134015Z,1697901204133,409
2.21265721321106,1.2974236011505127,2.196959972381592,2023-10-21T15:13:24.145008Z,1697901204144,410
2.095060348510742,1.3113914728164673,2.372291088104248,2023-10-21T15:13:24.154226Z,1697901204154,411
2.0552849769592285,1.3516989946365356,2.536580801010132,2023-10-21T15:13:24.165328Z,1697901204165,412
2.1442806720733643,1.4231351613998413,2.6713383197784424,2023-10-21T15:13:24.175776Z,1697901204175,413
2.448516130447388,1.5229063034057615,2.739581823348999,2023-10-21T15:13:24.185335Z,1697901204185,414
3.15010666847229,1.634117841720581,2.6628246307373047,2023-10-21T15:13:24.194823Z,1697901204194,415
4.69682502746582,1.711008071899414,2.271721839904785,2023-10-21T15:13:24.209391Z,1697901204209,416
7.4940080642700195,1.6099066734313965,1.2273176908493042,2023-10-21T15:13:24.215141Z,1697901204215,417
12.85783576965332,1.0694133043289185,-0.7514760494232178,2023-10-21T15:13:24.226100Z,1697901204226,418
18.66331672668457,0.0826104804873466,-2.8555822372436523,2023-10-21T15:13:24.235389Z,1697901204235,419
21.573041915893555,-0.800563395023346,-3.7662930488586426,2023-10-21T15:13:24.246391Z,1697901204246,420
21.458106994628903,-1.2519279718399048,-3.5132734775543213,2023-10-21T15:13:24.259134Z,1697901204259,421
19.98229217529297,-1.402116775512695,-2.7914626598358154,2023-10-21T15:13:24.266457Z,1697901204266,422
18.09302520751953,-1.4015846252441406,-1.969481825828552,2023-10-21T15:13:24.275861Z,1697901204275,423
16.170902252197266,-1.3310797214508057,-1.1847487688064575,2023-10-21T15:13:24.286712Z,1697901204286,424
14.355732917785645,-1.2285150289535522,-0.481162816286087,2023-10-21T15:13:24.296163Z,1697901204296,425
12.694344520568848,-1.110918045043945,0.1310327351093292,2023-10-21T15:13:24.309488Z,1697901204309,426
11.19791030883789,-0.9868028163909912,0.6534342765808105,2023-10-21T15:13:24.316416Z,1697901204316,427
9.86736297607422,-0.8630866408348083,1.0920281410217283,2023-10-21T15:13:24.327375Z,1697901204327,428
8.697647094726562,-0.7464209794998169,1.453332543373108,2023-10-21T15:13:24.336686Z,1697901204336,429
7.675591468811035,-0.6401314735412598,1.7443981170654297,2023-10-21T15:13:24.347677Z,1697901204347,430
6.780179023742676,-0.5419566631317139,1.9729405641555784,2023-10-21T15:13:24.359033Z,1697901204358,431
5.989060401916504,-0.4480388164520263,2.1473405361175537,2023-10-21T15:13:24.367745Z,1697901204367,432
5.283080101013184,-0.3546530604362488,2.276643753051758,2023-10-21T15:13:24.377237Z,1697901204377,433
4.85020637512207,-0.2602030634880066,2.397566318511963,2023-10-21T15:13:24.388003Z,1697901204387,434
4.212070465087891,-0.1656200438737869,2.468470335006714,2023-10-21T15:13:24.397511Z,1697901204397,435
3.65135669708252,-0.0731654837727546,2.523277997970581,2023-10-21T15:13:24.409704Z,1697901204409,436
3.1619460582733154,0.0138349281623959,2.5695717334747314,2023-10-21T15:13:24.417775Z,1697901204417,437
2.7397148609161377,0.0929866805672645,2.611741781234741,2023-10-21T15:13:24.428744Z,1697901204428,438
2.382667303085327,0.1613631546497345,2.649920701980591,2023-10-21T15:13:24.437945Z,1697901204437,439
2.087876796722412,0.2159046977758407,2.682778835296631,2023-10-21T15:13:24.449005Z,1697901204448,440
1.849623441696167,0.2548819482326507,2.7060587406158447,2023-10-21T15:13:24.459110Z,1697901204459,441
1.6589940786361694,0.2793591320514679,2.7141733169555664,2023-10-21T15:13:24.469006Z,1697901204468,442
1.50561261177063,0.29252889752388,2.702333927154541,2023-10-21T15:13:24.478597Z,1697901204478,443
1.3812313079833984,0.2974509596824646,2.6673474311828613,2023-10-21T15:13:24.492993Z,1697901204492,444
1.2801299095153809,0.2953225076198578,2.60775089263916,2023-10-21T15:13:24.498801Z,1697901204498,445
1.1971203088760376,0.2872077822685241,2.5231449604034424,2023-10-21T15:13:24.509766Z,1697901204509,446
1.127413630485535,0.2737719416618347,2.413928747177124,2023-10-21T15:13:24.518994Z,1697901204518,447
1.0668858289718628,0.2566113173961639,2.281698942184448,2023-10-21T15:13:24.530068Z,1697901204530,448
1.0134084224700928,0.2367901057004928,2.128317356109619,2023-10-21T15:13:24.542383Z,1697901204542,449
0.9665825366973876,0.214308351278305,1.9557799100875848,2023-10-21T15:13:24.550034Z,1697901204550,450
0.9262750148773192,0.1879687756299972,1.7675451040267944,2023-10-21T15:13:24.559570Z,1697901204559,451
0.8914216756820679,0.1575053334236145,1.567470669746399,2023-10-21T15:13:24.570406Z,1697901204570,452
0.8610912561416626,0.1246473789215087,1.3604788780212402,2023-10-21T15:13:24.579920Z,1697901204579,453
0.8347516655921936,0.0915233716368675,1.151491641998291,2023-10-21T15:13:24.592543Z,1697901204592,454
0.8133341073989868,0.0587984435260295,0.9458301663398744,2023-10-21T15:13:24.600014Z,1697901204599,455
0.7977698445320129,0.0259404890239238,0.7480173110961914,2023-10-21T15:13:24.611064Z,1697901204611,456
0.7888569235801697,-0.0078486613929271,0.5616448521614075,2023-10-21T15:13:24.620250Z,1697901204620,457
0.7872605919837952,-0.0417708382010459,0.3887082636356354,2023-10-21T15:13:24.631365Z,1697901204631,458
0.7919166088104248,-0.0743627399206161,0.2296065837144851,2023-10-21T15:13:24.642024Z,1697901204641,459
0.800430417060852,-0.1033628731966018,0.0832756236195564,2023-10-21T15:13:24.651384Z,1697901204651,460
0.8088111877441406,-0.1289042830467224,-0.0521470345556736,2023-10-21T15:13:24.660884Z,1697901204660,461
0.8129350543022156,-0.1521842032670974,-0.1790558993816375,2023-10-21T15:13:24.675296Z,1697901204675,462
0.8088111877441406,-0.1736017316579818,-0.30024453997612,2023-10-21T15:13:24.681170Z,1697901204681,463
0.7933799028396606,-0.1912944763898849,-0.4177083969116211,2023-10-21T15:13:24.692271Z,1697901204692,464
0.7667742967605591,-0.2053954601287841,-0.533176839351654,2023-10-21T15:13:24.701348Z,1697901204701,465
0.7316548228263855,-0.2189643383026123,-0.648246169090271,2023-10-21T15:13:24.712401Z,1697901204712,466
0.692810595035553,-0.2365240603685379,-0.7643797397613525,2023-10-21T15:13:24.721553Z,1697901204721,467
0.6542324423789978,-0.2612673044204712,-0.8826417922973633,2023-10-21T15:13:24.732691Z,1697901204732,468
0.6185808777809143,-0.2926619350910187,-1.0034313201904297,2023-10-21T15:13:24.742257Z,1697901204742,469
0.586388111114502,-0.3277813792228699,-1.1270145177841189,2023-10-21T15:13:24.752746Z,1697901204752,470
0.5565897822380066,-0.363432914018631,-1.25246000289917,2023-10-21T15:13:24.762282Z,1697901204762,471
0.5285208225250244,-0.399749606847763,-1.3791028261184692,2023-10-21T15:13:24.775774Z,1697901204775,472
0.5025803446769714,-0.4387268424034118,-1.5061447620391846,2023-10-21T15:13:24.782473Z,1697901204782,473
0.4795664846897125,-0.4812958538532257,-1.632787585258484,2023-10-21T15:13:24.793412Z,1697901204793,474
0.4597452878952026,-0.52639240026474,-1.7584991455078125,2023-10-21T15:13:24.802676Z,1697901204802,475
0.4428507089614868,-0.5721541047096252,-1.882880449295044,2023-10-21T15:13:24.813822Z,1697901204813,476
0.4268873333930969,-0.6157873272895813,-2.0052664279937744,2023-10-21T15:13:24.825717Z,1697901204825,477
0.4105248749256134,-0.6567599773406982,-2.1241934299468994,2023-10-21T15:13:24.833849Z,1697901204833,478
0.3949605822563171,-0.697333574295044,-2.23726749420166,2023-10-21T15:13:24.843248Z,1697901204843,479
0.3816577792167663,-0.7392374277114868,-2.341694593429565,2023-10-21T15:13:24.854073Z,1697901204854,480
0.3700843155384063,-0.7800770998001099,-2.434415102005005,2023-10-21T15:13:24.863585Z,1697901204863,481
0.3574466407299042,-0.8147974610328674,-2.511305570602417,2023-10-21T15:13:24.876011Z,1697901204875,482
0.3425475060939789,-0.8408709764480591,-2.5691726207733154,2023-10-21T15:13:24.883751Z,1697901204883,483
0.325652927160263,-0.8588297367095947,-2.606686592102051,2023-10-21T15:13:24.894956Z,1697901204894,484
0.3068959414958954,-0.8713343739509583,-2.625975608825684,2023-10-21T15:13:24.903938Z,1697901204903,485
0.2877399027347564,-0.8830408453941345,-2.632627010345459,2023-10-21T15:13:24.915132Z,1697901204915,486
0.2677856683731079,-0.8999354243278503,-2.635952949523926,2023-10-21T15:13:24.925289Z,1697901204925,487
0.243840605020523,-0.9274722933769226,-2.648191452026367,2023-10-21T15:13:24.935071Z,1697901204935,488
0.2116477936506271,-0.9712385535240172,-2.6853063106536865,2023-10-21T15:13:24.944552Z,1697901204944,489
0.169743925333023,-1.0364223718643188,-2.761930465698242,2023-10-21T15:13:24.959096Z,1697901204959,490
0.1219868138432502,-1.1263493299484253,-2.8883073329925537,2023-10-21T15:13:24.964841Z,1697901204964,491
0.074229709804058,-1.2395563125610352,-3.0673630237579346,2023-10-21T15:13:24.975744Z,1697901204975,492
0.0328579545021057,-1.3692587614059448,-3.2941761016845703,2023-10-21T15:13:24.985094Z,1697901204985,493
0.0053211259655654,-1.5054795742034912,-3.559035062789917,2023-10-21T15:13:24.996093Z,1697901204996,494
0.0022614786867052,-1.636512279510498,-3.849435567855835,2023-10-21T15:13:25.008493Z,1697901205008,495
0.0381790809333324,-1.751448631286621,-4.153803825378418,2023-10-21T15:13:25.016142Z,1697901205016,496
0.1259776651859283,-1.840311408042908,-4.463094711303711,2023-10-21T15:13:25.025620Z,1697901205025,497
0.2711113691329956,-1.8943208456039429,-4.770788669586182,2023-10-21T15:13:25.036385Z,1697901205036,498
0.473846286535263,-1.905761361122132,-5.071033000946045,2023-10-21T15:13:25.045936Z,1697901205045,499
0.7296594381332397,-1.8548115491867063,-5.090588092803955,2023-10-21T15:13:25.058995Z,1697901205058,500
1.027376413345337,-1.764352321624756,-5.309818744659424,2023-10-21T15:13:25.066175Z,1697901205066,501
1.343717336654663,-1.620149850845337,-5.484484672546387,2023-10-21T15:13:25.077149Z,1697901205077,502
1.6479527950286863,-1.429387450218201,-5.596228122711182,2023-10-21T15:13:25.086556Z,1697901205086,503
1.9093530178070068,-1.2064323425292969,-5.630416393280029,2023-10-21T15:13:25.097456Z,1697901205097,504
2.103574275970459,-0.9697751998901368,-5.580398082733154,2023-10-21T15:13:25.109133Z,1697901205109,505
2.2195746898651123,-0.7364438772201538,-5.450695514678955,2023-10-21T15:13:25.117563Z,1697901205117,506
2.2610795497894287,-0.5198740363121033,-5.25567626953125,2023-10-21T15:13:25.127002Z,1697901205126,507
2.239262819290161,-0.329776793718338,-5.013432025909424,2023-10-21T15:13:25.137902Z,1697901205137,508
2.188446044921875,-0.1717393398284912,-4.956894874572754,2023-10-21T15:13:25.147280Z,1697901205147,509
2.0760374069213867,-0.0470919646322727,-4.634434700012207,2023-10-21T15:13:25.158995Z,1697901205158,510
1.9344953298568728,0.0442983731627464,-4.306919574737549,2023-10-21T15:13:25.167517Z,1697901205167,511
1.7690083980560305,0.1013674512505531,-3.975546360015869,2023-10-21T15:13:25.178677Z,1697901205178,512
1.5843652486801147,0.1235831528902053,-3.639251232147217,2023-10-21T15:13:25.187784Z,1697901205187,513
1.3877496719360352,0.1129409000277519,-3.2985661029815674,2023-10-21T15:13:25.198793Z,1697901205198,514
1.1884734630584717,0.0738306269049644,-2.958147048950196,2023-10-21T15:13:25.208374Z,1697901205208,515
0.9945184588432312,0.0099771115928888,-2.625044584274292,2023-10-21T15:13:25.218753Z,1697901205218,516
0.8124029040336609,-0.0735645666718483,-2.307905435562134,2023-10-21T15:13:25.228304Z,1697901205228,517
0.6475810408592224,-0.1700099855661392,-2.015243530273437,2023-10-21T15:13:25.242036Z,1697901205242,518
0.5037776231765747,-0.2716434895992279,-1.754109263420105,2023-10-21T15:13:25.248536Z,1697901205248,519
0.3824559450149536,-0.3712815642356872,-1.527828335762024,2023-10-21T15:13:25.259682Z,1697901205259,520
0.2820196747779846,-0.4641352295875549,-1.3348045349121094,2023-10-21T15:13:25.268797Z,1697901205268,521
0.1992761790752411,-0.5468787550926208,-1.1706477403640747,2023-10-21T15:13:25.279770Z,1697901205279,522
0.1308996975421905,-0.6173836588859558,-1.028307557106018,2023-10-21T15:13:25.291710Z,1697901205291,523
0.0732985138893127,-0.6759160161018372,-0.9009996652603148,2023-10-21T15:13:25.299847Z,1697901205299,524
0.0238120388239622,-0.7231410145759583,-0.7847330570220947,2023-10-21T15:13:25.309309Z,1697901205309,525
-0.0174266882240772,-0.7601228356361389,-0.6799069046974182,2023-10-21T15:13:25.320186Z,1697901205320,526
-0.0490873865783214,-0.7871275544166565,-0.589181661605835,2023-10-21T15:13:25.329601Z,1697901205329,527
-0.0702388659119606,-0.8048202991485596,-0.5136216878890991,2023-10-21T15:13:25.342075Z,1697901205342,528
-0.0819453448057174,-0.8132010698318481,-0.4526948034763336,2023-10-21T15:13:25.349780Z,1697901205349,529
-0.0850049927830696,-0.8102744817733765,-0.4061349630355835,2023-10-21T15:13:25.360793Z,1697901205360,530
-0.079417809844017,-0.7944441437721252,-0.3739421367645263,2023-10-21T15:13:25.369980Z,1697901205369,531
-0.0669131577014923,-0.7650449275970459,-0.3545200228691101,2023-10-21T15:13:25.381116Z,1697901205381,532
-0.0494864732027053,-0.7232740521430969,-0.3461392521858215,2023-10-21T15:13:25.391755Z,1697901205391,533
-0.0291331652551889,-0.670461893081665,-0.3474695384502411,2023-10-21T15:13:25.401115Z,1697901205401,534
-0.0059862667694687,-0.6084707379341125,-0.3590429723262787,2023-10-21T15:13:25.410641Z,1697901205410,535
0.0211514756083488,-0.5395621657371521,-0.3827219903469085,2023-10-21T15:13:25.425114Z,1697901205425,536
0.0526791475713253,-0.4662636816501617,-0.4205019772052765,2023-10-21T15:13:25.430930Z,1697901205430,537
0.0876655504107475,-0.3892403841018677,-0.4731811285018921,2023-10-21T15:13:25.441837Z,1697901205441,538
0.1250464618206024,-0.3075610995292663,-0.537699818611145,2023-10-21T15:13:25.451109Z,1697901205451,539
0.1640237122774124,-0.2194964438676834,-0.6083377599716187,2023-10-21T15:13:25.462186Z,1697901205462,540
0.2036661058664322,-0.1243813186883926,-0.678177535533905,2023-10-21T15:13:25.474795Z,1697901205474,541
0.2421112358570099,-0.0227478146553039,-0.741365909576416,2023-10-21T15:13:25.482249Z,1697901205482,542
0.2759003937244415,0.0839407667517662,-0.7925817370414734,2023-10-21T15:13:25.491692Z,1697901205491,543
0.30024453997612,0.1932899057865142,-0.8257057666778564,2023-10-21T15:13:25.502537Z,1697901205502,544
0.3122170865535736,0.3047674894332886,-0.8363479971885681,2023-10-21T15:13:25.512Z,1697901205511,545
0.3120840489864349,0.4195708036422729,-0.8242424130439758,2023-10-21T15:13:25.525218Z,1697901205525,546
0.3025060296058655,0.5402273535728455,-0.7912514209747314,2023-10-21T15:13:25.532196Z,1697901205532,547
0.284547209739685,0.6678013205528259,-0.7388383746147156,2023-10-21T15:13:25.543230Z,1697901205543,548
0.2567443251609802,0.8008294701576233,-0.6664710640907288,2023-10-21T15:13:25.552401Z,1697901205552,549
0.2173680067062378,0.9361190795898438,-0.5736173987388611,2023-10-21T15:13:25.563515Z,1697901205563,550
0.1641567349433899,1.0658215284347534,-0.459080159664154,2023-10-21T15:13:25.574859Z,1697901205574,551
0.0957802683115005,1.179560661315918,-0.322061151266098,2023-10-21T15:13:25.583538Z,1697901205583,552
0.0139679564163088,1.26789128780365,-0.1649549156427383,2023-10-21T15:13:25.593023Z,1697901205592,553
-0.0767572447657585,1.3253594636917114,0.0065183793194592,2023-10-21T15:13:25.603801Z,1697901205603,554
-0.1698769479990005,1.349703669548035,0.1839779317378997,2023-10-21T15:13:25.613312Z,1697901205613,555
-0.2591388523578644,1.3398596048355105,0.3582448065280914,2023-10-21T15:13:25.625012Z,1697901205624,556
-0.3390887677669525,1.2959603071212769,0.5204061269760132,2023-10-21T15:13:25.633555Z,1697901205633,557
-0.4065340459346771,1.219602108001709,0.6630123257637024,2023-10-21T15:13:25.644503Z,1697901205644,558
-0.4606764912605285,1.114243745803833,0.7811412811279297,2023-10-21T15:13:25.653669Z,1697901205653,559
0.3201987743377685,-0.0510828122496604,-0.4013459384441376,2023-10-21T15:15:51.356273Z,1697901351356,560
0.2735058665275574,-0.0436332337558269,-0.3426805138587951,2023-10-21T15:15:51.365716Z,1697901351365,561
0.2335974276065826,-0.0372478812932968,-0.2926619350910187,2023-10-21T15:15:51.379483Z,1697901351379,562
0.1994092017412185,-0.0691746398806572,-0.252088338136673,2023-10-21T15:15:51.386016Z,1697901351385,563
0.1617622375488281,-0.1259776651859283,-0.2171019464731216,2023-10-21T15:15:51.397036Z,1697901351397,564
0.1197253391146659,-0.1729366034269333,-0.1866385042667389,2023-10-21T15:15:51.406127Z,1697901351406,565
0.0791517496109008,-0.2256157398223877,-0.1628264635801315,2023-10-21T15:15:51.417388Z,1697901351417,566
0.0372478812932968,-0.2810884714126587,-0.1422071009874344,2023-10-21T15:15:51.428922Z,1697901351428,567
-0.0058532385155558,-0.3342997431755066,-0.1223858967423439,2023-10-21T15:15:51.437474Z,1697901351437,568
-0.0506837256252765,-0.3808596134185791,-0.1005692854523658,2023-10-21T15:15:51.446763Z,1697901351446,569
-0.0987068861722946,-0.4175753593444824,-0.0739636495709419,2023-10-21T15:15:51.457671Z,1697901351457,570
-0.151119977235794,-0.4417864978313446,-0.040440559387207,2023-10-21T15:15:51.467071Z,1697901351467,571
-0.2071248292922973,-0.4508323967456817,0.000266056304099,2023-10-21T15:15:51.479381Z,1697901351479,572
-0.2655241787433624,-0.4435158669948578,0.04855527728796,2023-10-21T15:15:51.487279Z,1697901351487,573
-0.3240565657615661,-0.4187726080417633,0.103628933429718,2023-10-21T15:15:51.498317Z,1697901351498,574
-0.3791302442550659,-0.3759375512599945,0.1632255464792251,2023-10-21T15:15:51.507551Z,1697901351507,575
-0.429547905921936,-0.3162079155445099,0.2254827171564102,2023-10-21T15:15:51.519337Z,1697901351518,576
-0.477304995059967,-0.243840605020523,0.2898683547973633,2023-10-21T15:15:51.529129Z,1697901351529,577
-0.5239979028701782,-0.1622943431138992,0.3555842638015747,2023-10-21T15:15:51.538670Z,1697901351538,578
-0.5673650503158569,-0.0732985138893127,0.4195708036422729,2023-10-21T15:15:51.548227Z,1697901351548,579
-0.6043468713760376,0.0215505603700876,0.4778371155261993,2023-10-21T15:15:51.562544Z,1697901351562,580
-0.6326819062232971,0.1198583617806434,0.5267914533615112,2023-10-21T15:15:51.568371Z,1697901351568,581
-0.6501085758209229,0.2186982780694961,0.563241183757782,2023-10-21T15:15:51.579338Z,1697901351579,582
-0.655961811542511,0.314345508813858,0.585456907749176,2023-10-21T15:15:51.588517Z,1697901351588,583
-0.6507737040519714,0.4016119837760925,0.5927734375,2023-10-21T15:15:51.599639Z,1697901351599,584
-0.6374709010124207,0.4761077463626861,0.5858559608459473,2023-10-21T15:15:51.612238Z,1697901351612,585
-0.6188469529151917,0.5339750051498413,0.5663008689880371,2023-10-21T15:15:51.619706Z,1697901351619,586
-0.5982276201248169,0.5732182860374451,0.5367686152458191,2023-10-21T15:15:51.629081Z,1697901351629,587
-0.5789385437965393,0.5926403999328613,0.4995207190513611,2023-10-21T15:15:51.639935Z,1697901351639,588
-0.5625760555267334,0.5929064750671387,0.4572177529335022,2023-10-21T15:15:51.649409Z,1697901351649,589
-0.5487411022186279,0.5766770243644714,0.4118551611900329,2023-10-21T15:15:51.662275Z,1697901351662,590
-0.5358374118804932,0.5478099584579468,0.3655613660812378,2023-10-21T15:15:51.669742Z,1697901351669,591
-0.5226675868034363,0.5101629495620728,0.3197996914386749,2023-10-21T15:15:51.680657Z,1697901351680,592
-0.5090987086296082,0.467061847448349,0.2753682732582092,2023-10-21T15:15:51.689858Z,1697901351689,593
-0.4955298602581024,0.4209010601043701,0.2326662391424179,2023-10-21T15:15:51.700908Z,1697901351700,594
-0.481827974319458,0.3732770085334778,0.1911614537239074,2023-10-21T15:15:51.712147Z,1697901351712,595
-0.4675939679145813,0.325918972492218,0.1497897058725357,2023-10-21T15:15:51.720958Z,1697901351720,596
-0.4266212880611419,0.2804233431816101,0.1197253391146659,2023-10-21T15:15:51.730425Z,1697901351730,597
-0.4099927544593811,0.2387855350971222,0.0721012577414512,2023-10-21T15:15:51.741244Z,1697901351741,598
-0.395891785621643,0.2032670229673385,0.0315276719629764,2023-10-21T15:15:51.750696Z,1697901351750,599
-0.3774008750915527,0.1686796993017196,-0.0187569689005613,2023-10-21T15:15:51.762584Z,1697901351762,600
-0.3615705072879791,0.1391474455595016,-0.0615920349955558,2023-10-21T15:15:51.770977Z,1697901351770,601
-0.3489328324794769,0.1092161163687706,-0.1058904081583023,2023-10-21T15:15:51.781981Z,1697901351781,602
-0.3381575644016266,0.08367470651865,-0.1436704099178314,2023-10-21T15:15:51.791067Z,1697901351791,603
-0.3272492587566376,0.0627892911434173,-0.1743999123573303,2023-10-21T15:15:51.802279Z,1697901351802,604
-0.317937284708023,0.0449635162949562,-0.2006064504384994,2023-10-21T15:15:51.812129Z,1697901351812,605
-0.315010666847229,0.0295322500169277,-0.2107165902853012,2023-10-21T15:15:51.822329Z,1697901351822,606
-0.3126161694526672,0.0163624621927738,-0.2193634212017059,2023-10-21T15:15:51.831772Z,1697901351831,607
-0.3196666538715362,0.0043899291194975,-0.2071248292922973,2023-10-21T15:15:51.845664Z,1697901351845,608
-0.3546530604362488,-0.00957802683115,-0.1982119530439376,2023-10-21T15:15:51.851993Z,1697901351851,609
-0.3618365824222564,-0.014367040246725,-0.1673494130373001,2023-10-21T15:15:51.863031Z,1697901351863,610
-0.3695521950721741,-0.0166285187005996,-0.1311657577753067,2023-10-21T15:15:51.872190Z,1697901351872,611
-0.3779329657554626,-0.0164954904466867,-0.0915233716368675,2023-10-21T15:15:51.883331Z,1697901351883,612
-0.3861807286739349,-0.013701899908483,-0.0506837256252765,2023-10-21T15:15:51.895609Z,1697901351895,613
-0.392965167760849,-0.0079816887155175,-0.0111743649467825,2023-10-21T15:15:51.903448Z,1697901351903,614
-0.3965569138526916,0.0006651407456956,0.0246102083474397,2023-10-21T15:15:51.912831Z,1697901351912,615
-0.3964239060878753,0.0118395052850246,0.0548075996339321,2023-10-21T15:15:51.923733Z,1697901351923,616
-0.392965167760849,0.0248762648552656,0.0782205536961555,2023-10-21T15:15:51.933140Z,1697901351933,617
-0.3867128491401672,0.0384451374411582,0.0935187935829162,2023-10-21T15:15:51.945190Z,1697901351945,618
-0.3777999579906463,0.0517479516565799,0.0996380895376205,2023-10-21T15:15:51.953333Z,1697901351953,619
-0.3656944036483764,0.0638535097241401,0.0965784415602684,2023-10-21T15:15:51.964366Z,1697901351964,620
-0.3325703740119934,0.0643856227397918,0.0860692113637924,2023-10-21T15:15:51.973551Z,1697901351973,621
-0.3163409531116485,0.0739636495709419,0.0677113309502601,2023-10-21T15:15:51.984692Z,1697901351984,622
-0.3025060296058655,0.082211397588253,0.0518809780478477,2023-10-21T15:15:51.995433Z,1697901351995,623
-0.277762770652771,0.0891288593411445,0.0260735172778368,2023-10-21T15:15:52.004727Z,1697901352004,624
-0.2567443251609802,0.0949821025133133,0.0041238726116716,2023-10-21T15:15:52.014144Z,1697901352014,625
-0.2362580001354217,0.093119703233242,-0.0170276034623384,2023-10-21T15:15:52.024842Z,1697901352024,626
-0.2186982780694961,0.0913903415203094,-0.0351194329559803,2023-10-21T15:15:52.034440Z,1697901352034,627
-0.1867715269327163,0.0780875235795974,-0.0299313347786664,2023-10-21T15:15:52.045925Z,1697901352045,628
-0.1595007479190826,0.0666471049189567,-0.0255414061248302,2023-10-21T15:15:52.054629Z,1697901352054,629
-0.1725375205278396,0.0556057691574096,-0.0504176691174507,2023-10-21T15:15:52.065737Z,1697901352065,630
-0.1835788488388061,0.0461607687175273,-0.0717021748423576,2023-10-21T15:15:52.074856Z,1697901352074,631
-0.184510052204132,0.0242111235857009,-0.0650507658720016,2023-10-21T15:15:52.086099Z,1697901352086,632
-0.1853082180023193,0.0054541542194783,-0.0593305565416812,2023-10-21T15:15:52.096163Z,1697901352096,633
-0.1869045495986938,-0.0139679564163088,-0.0510828122496604,2023-10-21T15:15:52.106162Z,1697901352106,634
-0.1882348358631134,-0.0305964741855859,-0.0440323166549205,2023-10-21T15:15:52.115460Z,1697901352115,635
-0.1863724440336227,-0.0445644296705722,-0.0360506288707256,2023-10-21T15:15:52.129175Z,1697901352129,636
-0.184776097536087,-0.056536965072155,-0.0292661935091018,2023-10-21T15:15:52.135755Z,1697901352135,637
-0.181583434343338,-0.0673122480511665,-0.0216835886240005,2023-10-21T15:15:52.146696Z,1697901352146,638
-0.1789228618144989,-0.0764911845326423,-0.0152982370927929,2023-10-21T15:15:52.155888Z,1697901352155,639
-0.1730696260929107,-0.0859361886978149,-0.0078486613929271,2023-10-21T15:15:52.167016Z,1697901352166,640
-0.1681475788354873,-0.0940509065985679,-0.0014633096288889,2023-10-21T15:15:52.178548Z,1697901352178,641
-0.1630925089120865,-0.1073537170886993,0.0073165483772754,2023-10-21T15:15:52.187193Z,1697901352187,642
-0.158835619688034,-0.1187941431999206,0.0147661250084638,2023-10-21T15:15:52.196508Z,1697901352196,643
-0.1539135724306106,-0.1352896243333816,0.0234129540622234,2023-10-21T15:15:52.207375Z,1697901352207,644
-0.1595007479190826,-0.168280616402626,0.0372478812932968,2023-10-21T15:15:52.216811Z,1697901352216,645
-0.1563080847263336,-0.183046743273735,0.0461607687175273,2023-10-21T15:15:52.228551Z,1697901352228,646
-0.1555099040269851,-0.1984779983758926,0.0562709085643291,2023-10-21T15:15:52.236938Z,1697901352236,647
-0.1565741300582885,-0.2137762457132339,0.0679773837327957,2023-10-21T15:15:52.248023Z,1697901352247,648
-0.158835619688034,-0.227611169219017,0.0810141414403915,2023-10-21T15:15:52.257177Z,1697901352257,649
-0.1613631546497345,-0.2386524975299835,0.0951151251792907,2023-10-21T15:15:52.268387Z,1697901352268,650
-0.162959486246109,-0.2461020797491073,0.1090830862522125,2023-10-21T15:15:52.278858Z,1697901352278,651
-0.1626934260129928,-0.2499599009752273,0.1217207610607147,2023-10-21T15:15:52.288458Z,1697901352288,652
-0.1614961773157119,-0.2512901723384857,0.1315648406744003,2023-10-21T15:15:52.297868Z,1697901352297,653
-0.1589686423540115,-0.2507580518722534,0.1374180763959884,2023-10-21T15:15:52.312751Z,1697901352312,654
-0.1457988619804382,-0.2318680733442306,0.1290373057126999,2023-10-21T15:15:52.318148Z,1697901352318,655
-0.1352896243333816,-0.2280102521181106,0.1229180097579956,2023-10-21T15:15:52.329056Z,1697901352329,656
-0.1263767480850219,-0.2248175740242004,0.1177299171686172,2023-10-21T15:15:52.338318Z,1697901352338,657
-0.1074867472052574,-0.2159046977758407,0.0995050594210624,2023-10-21T15:15:52.349493Z,1697901352349,658
-0.0912573114037513,-0.2083220928907394,0.0839407667517662,2023-10-21T15:15:52.362082Z,1697901352362,659
-0.0748948529362678,-0.2032670229673385,0.0639865398406982,2023-10-21T15:15:52.369442Z,1697901352369,660
-0.0607938654720783,-0.1988770812749862,0.0469589382410049,2023-10-21T15:15:52.378855Z,1697901352378,661
-0.0464268252253532,-0.2000743448734283,0.0335230939090251,2023-10-21T15:15:52.389699Z,1697901352389,662
-0.0341882333159446,-0.2011385709047317,0.0220826733857393,2023-10-21T15:15:52.399176Z,1697901352399,663
-0.0235459823161363,-0.2108496278524398,0.0208854191005229,2023-10-21T15:15:52.412549Z,1697901352412,664
-0.0139679564163088,-0.2425103187561035,0.025674432516098,2023-10-21T15:15:52.419416Z,1697901352419,665
-0.0118395052850246,-0.255680114030838,0.0357845723628997,2023-10-21T15:15:52.430435Z,1697901352430,666
-0.0107752801850438,-0.2689829170703888,0.0477571077644825,2023-10-21T15:15:52.439595Z,1697901352439,667
-0.008912886492908,-0.2805563807487488,0.0586654134094715,2023-10-21T15:15:52.450775Z,1697901352450,668
-0.0054541542194783,-0.2894692718982696,0.0658489316701889,2023-10-21T15:15:52.461732Z,1697901352461,669
-0.0003990844707004,-0.2957215905189514,0.0679773837327957,2023-10-21T15:15:52.470767Z,1697901352470,670
0.0046559851616621,-0.3001115024089813,0.0650507658720016,2023-10-21T15:15:52.480188Z,1697901352480,671
0.0075826048851013,-0.30410236120224,0.0586654134094715,2023-10-21T15:15:52.491459Z,1697901352491,672
0.0079816887155175,-0.3078271448612213,0.0510828122496604,2023-10-21T15:15:52.500574Z,1697901352500,673
0.0081147169694304,-0.3099555969238281,0.0436332337558269,2023-10-21T15:15:52.511789Z,1697901352511,674
0.0107752801850438,-0.3087583482265472,0.0372478812932968,2023-10-21T15:15:52.520655Z,1697901352520,675
0.0155642936006188,-0.3050335645675659,0.033789150416851,2023-10-21T15:15:52.531743Z,1697901352531,676
0.0202202796936035,-0.3009096682071686,0.0348533764481544,2023-10-21T15:15:52.540883Z,1697901352540,677
0.0228808429092168,-0.2978500425815582,0.0405735857784748,2023-10-21T15:15:52.552053Z,1697901352552,678
0.024078095331788,-0.2962536811828613,0.0493534430861473,2023-10-21T15:15:52.561537Z,1697901352561,679
0.0248762648552656,-0.2949234247207641,0.0583993569016456,2023-10-21T15:15:52.571995Z,1697901352571,680
0.0259404890239238,-0.2930610179901123,0.0649177357554435,2023-10-21T15:15:52.581559Z,1697901352581,681
0.0247432366013526,-0.2705792486667633,0.0623902045190334,2023-10-21T15:15:52.595256Z,1697901352595,682
0.0300643630325794,-0.2673865854740143,0.0598626695573329,2023-10-21T15:15:52.601739Z,1697901352601,683
0.0345873199403286,-0.2645930051803589,0.0577342174947261,2023-10-21T15:15:52.612779Z,1697901352612,684
0.0449635162949562,-0.2543498277664184,0.0433671772480011,2023-10-21T15:15:52.621997Z,1697901352621,685
0.0537433736026287,-0.2457029968500137,0.0312616154551506,2023-10-21T15:15:52.633072Z,1697901352633,686
0.066114991903305,-0.23000568151474,0.0070504918694496,2023-10-21T15:15:52.644754Z,1697901352644,687
0.088862806558609,-0.2236203253269195,-0.0272707715630531,2023-10-21T15:15:52.653126Z,1697901352653,688
0.1021656244993209,-0.2030009627342224,-0.0530782341957092,2023-10-21T15:15:52.662574Z,1697901352662,689
0.1171978041529655,-0.1817164570093155,-0.0795508325099945,2023-10-21T15:15:52.673396Z,1697901352673,690
0.1320969611406326,-0.1606980115175247,-0.105092242360115,2023-10-21T15:15:52.682878Z,1697901352682,691
0.1460649073123932,-0.1403446942567825,-0.1289042830467224,2023-10-21T15:15:52.695200Z,1697901352695,692
0.1597668081521988,-0.1198583617806434,-0.1501887887716293,2023-10-21T15:15:52.703051Z,1697901352703,693
0.1737347692251205,-0.098440833389759,-0.168546661734581,2023-10-21T15:15:52.714138Z,1697901352714,694
0.1882348358631134,-0.0756930187344551,-0.1829137057065963,2023-10-21T15:15:52.723225Z,1697901352723,695
0.2027349025011062,-0.0520140081644058,-0.1920926570892334,2023-10-21T15:15:52.734491Z,1697901352734,696
0.2156386375427246,-0.028867108747363,-0.1948862373828888,2023-10-21T15:15:52.745019Z,1697901352744,697
0.2250836342573166,-0.0077156326733529,-0.1899642050266266,2023-10-21T15:15:52.754461Z,1697901352754,698
0.2119138389825821,0.0019954221788793,-0.1720054000616073,2023-10-21T15:15:52.763877Z,1697901352763,699
0.2137762457132339,0.0166285187005996,-0.1544456779956817,2023-10-21T15:15:52.778461Z,1697901352778,700
0.2153725773096084,0.029000137001276,-0.1394135057926178,2023-10-21T15:15:52.784174Z,1697901352784,701
0.1839779317378997,0.0247432366013526,-0.1190601959824562,2023-10-21T15:15:52.795103Z,1697901352795,702
0.1946201920509338,0.0429680943489074,-0.095514215528965,2023-10-21T15:15:52.804343Z,1697901352804,703
0.2036661058664322,0.0585323870182037,-0.0752939358353614,2023-10-21T15:15:52.815518Z,1697901352815,704
0.173867791891098,0.050018586218357,-0.0642526000738143,2023-10-21T15:15:52.828069Z,1697901352828,705
0.1821155399084091,0.0762251317501068,-0.0530782341957092,2023-10-21T15:15:52.835537Z,1697901352835,706
0.1891660392284393,0.0985738635063171,-0.0436332337558269,2023-10-21T15:15:52.844909Z,1697901352844,707
0.1888999789953231,0.1165326610207557,-0.0403075292706489,2023-10-21T15:15:52.855701Z,1697901352855,708
0.188633918762207,0.1318309009075164,-0.0375139378011226,2023-10-21T15:15:52.865251Z,1697901352865,709
0.1890330016613006,0.1467300504446029,-0.0311285872012376,2023-10-21T15:15:52.878407Z,1697901352878,710
0.1894320845603943,0.1593677252531051,-0.025674432516098,2023-10-21T15:15:52.885444Z,1697901352885,711
0.1617622375488281,0.1360878050327301,-0.0219496451318264,2023-10-21T15:15:52.896483Z,1697901352896,712
0.1700099855661392,0.1579044163227081,-0.0023945067077875,2023-10-21T15:15:52.905692Z,1697901352905,713
0.1769274473190307,0.1765283644199371,0.0142340119928121,2023-10-21T15:15:52.916761Z,1697901352916,714
0.151119977235794,0.1508539170026779,0.0122385900467634,2023-10-21T15:15:52.928028Z,1697901352927,715
0.1595007479190826,0.1501887887716293,0.0098440833389759,2023-10-21T15:15:52.936914Z,1697901352936,716
0.1665512472391128,0.149656668305397,0.0077156326733529,2023-10-21T15:15:52.946255Z,1697901352946,717
0.1648218780755996,0.1291703283786773,-0.0218166168779134,2023-10-21T15:15:52.956997Z,1697901352956,718
0.1746659576892852,0.1108124479651451,-0.0653168261051178,2023-10-21T15:15:52.966575Z,1697901352966,719
0.1705420911312103,0.0929866805672645,-0.090326115489006,2023-10-21T15:15:52.978641Z,1697901352978,720
0.1556429415941238,0.0784866064786911,-0.0935187935829162,2023-10-21T15:15:52.986766Z,1697901352986,721
0.1330281496047973,0.0670461878180503,-0.0798168927431106,2023-10-21T15:15:52.997935Z,1697901352997,722
0.1136060431599617,0.0572021044790744,-0.0682434439659118,2023-10-21T15:15:53.006976Z,1697901353006,723
0.096977524459362,0.0488213300704956,-0.0582663305103778,2023-10-21T15:15:53.018186Z,1697901353018,724
0.0828765407204628,0.0417708382010459,-0.0497525297105312,2023-10-21T15:15:53.028128Z,1697901353028,725
0.0690416097640991,0.0678443610668182,-0.014500068500638,2023-10-21T15:15:53.038206Z,1697901353038,726
0.0572021044790744,0.090326115489006,0.0154312653467059,2023-10-21T15:15:53.047592Z,1697901353047,727
0.0446974597871303,0.1174638569355011,0.0316606983542442,2023-10-21T15:15:53.061657Z,1697901353061,728
0.0340552069246768,0.1406107544898986,0.0454956293106079,2023-10-21T15:15:53.067851Z,1697901353067,729
0.030463445931673,0.160564973950386,0.0444314032793045,2023-10-21T15:15:53.078871Z,1697901353078,730
0.027403799816966,0.1775925755500793,0.0435002073645591,2023-10-21T15:15:53.088138Z,1697901353088,731
0.0175597164779901,0.1712072342634201,0.0424359813332557,2023-10-21T15:15:53.099205Z,1697901353099,732
0.0091789420694112,0.1656200438737869,0.0415047816932201,2023-10-21T15:15:53.110871Z,1697901353110,733
-0.0062523232772946,0.1400786489248275,0.0440323166549205,2023-10-21T15:15:53.119245Z,1697901353119,734
-0.0195551384240388,0.1182620301842689,0.0461607687175273,2023-10-21T15:15:53.128612Z,1697901353128,735
-0.0364497154951095,0.0883306935429573,0.0528121776878833,2023-10-21T15:15:53.139437Z,1697901353139,736
-0.0637204870581626,0.0554727390408515,0.0699728056788444,2023-10-21T15:15:53.148940Z,1697901353148,737
-0.0818123146891594,0.0339221805334091,0.0863352715969085,2023-10-21T15:15:53.161432Z,1697901353161,738
-0.0992389991879463,0.0194221101701259,0.106422521173954,2023-10-21T15:15:53.169173Z,1697901353169,739
-0.1153354048728942,0.013701899908483,0.1285052001476287,2023-10-21T15:15:53.180122Z,1697901353180,740
-0.129303365945816,0.017825772985816,0.1501887887716293,2023-10-21T15:15:53.189330Z,1697901353189,741
-0.1399456113576889,0.0315276719629764,0.1689457595348358,2023-10-21T15:15:53.200462Z,1697901353200,742
-0.1475282162427902,0.0530782341957092,0.1826476454734802,2023-10-21T15:15:53.210953Z,1697901353210,743
-0.1531154066324234,0.0800829455256462,0.1906293481588363,2023-10-21T15:15:53.220456Z,1697901353220,744
-0.157372310757637,0.1100142821669578,0.1928908228874206,2023-10-21T15:15:53.230027Z,1697901353229,745
-0.1593677252531051,0.1408768147230148,0.1902302503585815,2023-10-21T15:15:53.240710Z,1697901353240,746
-0.1597668081521988,0.1705420911312103,0.1842439919710159,2023-10-21T15:15:53.250223Z,1697901353250,747
-0.1597668081521988,0.1968816667795181,0.1762623041868209,2023-10-21T15:15:53.261341Z,1697901353261,748
-0.1610970944166183,0.2185652554035186,0.1678815335035324,2023-10-21T15:15:53.270418Z,1697901353270,749
-0.1646888554096222,0.234661653637886,0.1604319512844085,2023-10-21T15:15:53.281486Z,1697901353281,750
-0.1710741966962814,0.2449048310518264,0.1547117382287979,2023-10-21T15:15:53.290569Z,1697901353290,751
-0.1802531480789184,0.2491617351770401,0.1509869545698166,2023-10-21T15:15:53.301855Z,1697901353301,752
-0.1912944763898849,0.2480975091457367,0.1484594196081161,2023-10-21T15:15:53.311051Z,1697901353311,753
-0.2024688422679901,0.2431754618883133,0.1459318846464157,2023-10-21T15:15:53.321884Z,1697901353321,754
-0.2120468765497207,0.2355928570032119,0.1430052667856216,2023-10-21T15:15:53.331267Z,1697901353331,755
-0.2204276472330093,0.2264139205217361,0.1392804682254791,2023-10-21T15:15:53.344473Z,1697901353344,756
-0.229074478149414,0.2163037806749344,0.1356887221336364,2023-10-21T15:15:53.351541Z,1697901353351,757
-0.2389185577630996,0.2060606032609939,0.1336932927370071,2023-10-21T15:15:53.362527Z,1697901353362,758
-0.2504920065402984,0.1966156065464019,0.1347575187683105,2023-10-21T15:15:53.371697Z,1697901353371,759
0.0767572447657585,-0.1661521643400192,-0.2458360195159912,2023-10-21T15:13:15.805629Z,1697901195805,760
0.1114775910973548,-0.1279730796813964,-0.2873408198356628,2023-10-21T15:13:15.816629Z,1697901195816,761
0.1412758976221084,-0.0936518162488937,-0.3213960230350494,2023-10-21T15:13:15.825853Z,1697901195825,762
0.1649549156427383,-0.0657159090042114,-0.3474695384502411,2023-10-21T15:13:15.836951Z,1697901195836,763
0.1825146228075027,-0.045229572802782,-0.366359531879425,2023-10-21T15:13:15.848331Z,1697901195848,764
0.193955048918724,-0.0321928113698959,-0.3792632520198822,2023-10-21T15:13:15.856971Z,1697901195856,765
0.201936736702919,-0.0228808429092168,-0.388841301202774,2023-10-21T15:13:15.866483Z,1697901195866,766
0.2115147560834884,-0.0110413366928696,-0.3993505239486694,2023-10-21T15:13:15.877264Z,1697901195877,767
0.2280102521181106,0.0110413366928696,-0.414781779050827,2023-10-21T15:13:15.886774Z,1697901195886,768
0.2523544132709503,0.0481561906635761,-0.4360662698745727,2023-10-21T15:13:15.898553Z,1697901195898,769
0.2805563807487488,0.101234421133995,-0.4604104459285736,2023-10-21T15:13:15.906917Z,1697901195906,770
0.3055656552314758,0.1686796993017196,-0.4826261401176452,2023-10-21T15:13:15.917933Z,1697901195917,771
0.3195336163043976,0.2451708912849426,-0.4956628978252411,2023-10-21T15:13:15.927095Z,1697901195927,772
0.3162079155445099,0.3235244750976562,-0.4923371970653534,2023-10-21T15:13:15.938307Z,1697901195938,773
0.2906665205955505,0.3950936198234558,-0.4662636816501617,2023-10-21T15:13:15.948305Z,1697901195948,774
0.239982783794403,0.451630562543869,-0.414515733718872,2023-10-21T15:13:15.958298Z,1697901195958,775
0.1652209609746933,0.4863509237766266,-0.3392217755317688,2023-10-21T15:13:15.967760Z,1697901195967,776
0.0697067528963089,0.4951307773590088,-0.2454369366168975,2023-10-21T15:13:15.982335Z,1697901195982,777
-0.0387111939489841,0.4770389497280121,-0.1415419578552246,2023-10-21T15:13:15.988092Z,1697901195988,778
-0.1499227285385131,0.4355341792106628,-0.0369818247854709,2023-10-21T15:13:15.999006Z,1697901195998,779
-0.2538177073001861,0.3783320784568786,0.059463582932949,2023-10-21T15:13:16.008462Z,1697901196008,780
-0.3449420034885406,0.3156757950782776,0.1414089202880859,2023-10-21T15:13:16.019385Z,1697901196019,781
-0.4213001430034637,0.2592718601226806,0.2059275805950164,2023-10-21T15:13:16.031594Z,1697901196031,782
-0.4816949367523193,0.2210927903652191,0.2523544132709503,2023-10-21T15:13:16.039366Z,1697901196039,783
-0.5250621438026428,0.210450530052185,0.2812215089797973,2023-10-21T15:13:16.048779Z,1697901196048,784
-0.5511356592178345,0.233198344707489,0.2929279804229736,2023-10-21T15:13:16.059642Z,1697901196059,785
-0.5603145956993103,0.2885380685329437,0.288405030965805,2023-10-21T15:13:16.069131Z,1697901196069,786
-0.5535301566123962,0.3708824813365936,0.2692489922046661,2023-10-21T15:13:16.081947Z,1697901196081,787
-0.5326447486877441,0.4689242243766784,0.2379873692989349,2023-10-21T15:13:16.089312Z,1697901196089,788
-0.5008509755134583,0.5698925852775574,0.1982119530439376,2023-10-21T15:13:16.100329Z,1697901196100,789
-0.4620067775249481,0.6610168814659119,0.1541796326637268,2023-10-21T15:13:16.109473Z,1697901196109,790
-0.4203689694404602,0.7324529886245728,0.1098812520503997,2023-10-21T15:13:16.120600Z,1697901196120,791
-0.3784650862216949,0.7794119715690613,0.0693076699972152,2023-10-21T15:13:16.131344Z,1697901196131,792
-0.3365612328052521,0.8021597862243652,0.035252459347248,2023-10-21T15:13:16.140640Z,1697901196140,793
-0.2950564324855804,0.8036230802536011,0.0090459147468209,2023-10-21T15:13:16.150168Z,1697901196150,794
-0.2562122344970703,0.7867285013198853,-0.0094449985772371,2023-10-21T15:13:16.160905Z,1697901196160,795
-0.2222900390625,0.7538705468177795,-0.0210184473544359,2023-10-21T15:13:16.170459Z,1697901196170,796
-0.1940880715847015,0.707310676574707,-0.0263395737856626,2023-10-21T15:13:16.181679Z,1697901196181,797
-0.1681475788354873,0.6310855746269226,-0.0255414061248302,2023-10-21T15:13:16.190621Z,1697901196190,798
-0.1461979448795318,0.5678972005844116,-0.0215505603700876,2023-10-21T15:13:16.201663Z,1697901196201,799
-0.1274409741163253,0.5140208005905151,-0.0179588012397289,2023-10-21T15:13:16.210754Z,1697901196210,800
-0.1089500561356544,0.4389928877353668,-0.0152982370927929,2023-10-21T15:13:16.221986Z,1697901196221,801
-0.0858031585812568,0.3414832651615143,0.0001330281520495,2023-10-21T15:13:16.231244Z,1697901196231,802
-0.0618580915033817,0.2269460260868072,0.0182248577475547,2023-10-21T15:13:16.241989Z,1697901196241,803
-0.0417708382010459,0.126908853650093,0.0224817581474781,2023-10-21T15:13:16.251495Z,1697901196251,804
-0.0179588012397289,0.037114854902029,0.0186239406466484,2023-10-21T15:13:16.264976Z,1697901196264,805
0.0114404214546084,-0.0344542898237705,0.0041238726116716,2023-10-21T15:13:16.271735Z,1697901196271,806
0.0469589382410049,-0.0810141414403915,-0.0222157016396522,2023-10-21T15:13:16.282709Z,1697901196282,807
0.0866013243794441,-0.0992389991879463,-0.0605278089642524,2023-10-21T15:13:16.291916Z,1697901196291,808
0.1297024488449096,-0.0893949195742607,-0.109349139034748,2023-10-21T15:13:16.303062Z,1697901196303,809
0.1751980781555175,-0.0548075996339321,-0.164422795176506,2023-10-21T15:13:16.314378Z,1697901196314,810
0.2210927903652191,-0.0013302814913913,-0.2201615869998932,2023-10-21T15:13:16.323092Z,1697901196323,811
0.2623315155506134,0.0614590048789978,-0.2700471580028534,2023-10-21T15:13:16.332527Z,1697901196332,812
0.2942582666873932,0.1218537837266922,-0.3088913559913635,2023-10-21T15:13:16.343320Z,1697901196343,813
0.3146115839481354,0.1701430082321167,-0.332969456911087,2023-10-21T15:13:16.352805Z,1697901196352,814
0.3236574828624725,0.2008725106716156,-0.3412172198295593,2023-10-21T15:13:16.365014Z,1697901196364,815
0.3239235579967499,0.2120468765497207,-0.3353639841079712,2023-10-21T15:13:16.373Z,1697901196372,816
0.3190014958381653,0.2044642716646194,-0.3195336163043976,2023-10-21T15:13:16.384017Z,1697901196383,817
0.315010666847229,0.1813173741102218,-0.2997124195098877,2023-10-21T15:13:16.393210Z,1697901196393,818
0.3191345334053039,0.1480603367090225,-0.280689388513565,2023-10-21T15:13:16.404356Z,1697901196404,819
0.3361621499061584,0.1100142821669578,-0.2675196230411529,2023-10-21T15:13:16.414577Z,1697901196414,820
0.3690201044082641,0.0705049186944961,-0.2651250958442688,2023-10-21T15:13:16.424399Z,1697901196424,821
0.4175753593444824,0.0303304195404052,-0.2769646048545837,2023-10-21T15:13:16.433850Z,1697901196433,822
0.4785022735595703,-0.0102431681007146,-0.3026390373706817,2023-10-21T15:13:16.448374Z,1697901196448,823
0.540493369102478,-0.0502846427261829,-0.3339006602764129,2023-10-21T15:13:16.454095Z,1697901196454,824
0.5883834958076477,-0.0897940024733543,-0.3571805953979492,2023-10-21T15:13:16.465008Z,1697901196464,825
0.6088698506355286,-0.1328951269388198,-0.3591760098934173,2023-10-21T15:13:16.474321Z,1697901196474,826
0.5954340100288391,-0.18717060983181,-0.3305749595165252,2023-10-21T15:13:16.485369Z,1697901196485,827
0.5467457175254822,-0.2594048976898193,-0.2672535479068756,2023-10-21T15:13:16.497844Z,1697901196497,828
0.4637361466884613,-0.3501301109790802,-0.1684136390686035,2023-10-21T15:13:16.505445Z,1697901196505,829
0.3566484749317169,-0.455488383769989,-0.0415047816932201,2023-10-21T15:13:16.514911Z,1697901196514,830
0.2451708912849426,-0.5696265697479248,0.0968444943428039,2023-10-21T15:13:16.525626Z,1697901196525,831
0.1505878716707229,-0.6865583062171936,0.2257487773895263,2023-10-21T15:13:16.535177Z,1697901196535,832
0.0840737894177436,-0.7998982667922974,0.3296437561511993,2023-10-21T15:13:16.548069Z,1697901196548,833
0.0446974597871303,-0.9061877727508544,0.4042725563049316,2023-10-21T15:13:16.555397Z,1697901196555,834
0.0271377433091402,-1.0062249898910522,0.4524287581443786,2023-10-21T15:13:16.566448Z,1697901196566,835
0.0250092931091785,-1.1029363870620728,0.4793004393577575,2023-10-21T15:13:16.575593Z,1697901196575,836
0.0320597849786281,-1.1965882778167725,0.4902087450027466,2023-10-21T15:13:16.586776Z,1697901196586,837
0.041903868317604,-1.2830564975738523,0.4898096621036529,2023-10-21T15:13:16.597850Z,1697901196597,838
0.0505506992340087,-1.3562220335006714,0.4808967709541321,2023-10-21T15:13:16.606801Z,1697901196606,839
0.0591975264251232,-1.407969951629639,0.4618737399578094,2023-10-21T15:13:16.616214Z,1697901196616,840
0.0722342878580093,-1.4309837818145752,0.4266212880611419,2023-10-21T15:13:16.627011Z,1697901196626,841
0.0945830196142196,-1.4199424982070925,0.3687540292739868,2023-10-21T15:13:16.636489Z,1697901196636,842
0.1285052001476287,-1.37285053730011,0.2856114506721496,2023-10-21T15:13:16.648146Z,1697901196648,843
0.1732026487588882,-1.2926346063613892,0.1805192083120346,2023-10-21T15:13:16.656754Z,1697901196656,844
0.2238863855600357,-1.186345100402832,0.0619911178946495,2023-10-21T15:13:16.667815Z,1697901196667,845
0.2740379869937897,-1.0643582344055176,-0.0581333041191101,2023-10-21T15:13:16.676900Z,1697901196676,846
0.3162079155445099,-0.9375824332237244,-0.1676154732704162,2023-10-21T15:13:16.688044Z,1697901196688,847
0.3441438376903534,-0.8158616423606873,-0.2552810311317444,2023-10-21T15:13:16.697509Z,1697901196697,848
0.3531897366046905,-0.707310676574707,-0.3122170865535736,2023-10-21T15:13:16.708045Z,1697901196708,849
0.3418823480606079,-0.6168515682220459,-0.3342997431755066,2023-10-21T15:13:16.717592Z,1697901196717,850
0.307028979063034,-0.5343740582466125,-0.3119510114192962,2023-10-21T15:13:16.731456Z,1697901196731,851
0.2621984779834747,-0.4562865495681762,-0.266322374343872,2023-10-21T15:13:16.737800Z,1697901196737,852
0.2157716602087021,-0.4363323450088501,-0.2186982780694961,2023-10-21T15:13:16.748721Z,1697901196748,853
0.1561750471591949,-0.4433828294277191,-0.1485924422740936,2023-10-21T15:13:16.758006Z,1697901196757,854
0.0866013243794441,-0.4310111999511719,-0.0570690780878067,2023-10-21T15:13:16.769086Z,1697901196769,855
0.0151652097702026,-0.4272864162921905,0.0405735857784748,2023-10-21T15:13:16.780889Z,1697901196780,856
-0.0550736561417579,-0.4302130341529846,0.1400786489248275,2023-10-21T15:13:16.789097Z,1697901196789,857
-0.1218537837266922,-0.4381947219371795,0.2367901057004928,2023-10-21T15:13:16.798610Z,1697901196798,858
-0.1831797659397125,-0.4508323967456817,0.3267171382904053,2023-10-21T15:13:16.809391Z,1697901196809,859
-0.237056165933609,-0.4669288098812103,0.4053367674350738,2023-10-21T15:13:16.818899Z,1697901196818,860
-0.2812215089797973,-0.4851536750793457,0.4685251414775848,2023-10-21T15:13:16.831408Z,1697901196831,861
-0.3135473430156708,-0.503644585609436,0.5129565596580505,2023-10-21T15:13:16.839141Z,1697901196839,862
-0.333634614944458,-0.5212042927742004,0.537300705909729,2023-10-21T15:13:16.850034Z,1697901196850,863
-0.3429465889930725,-0.5366355776786804,0.54182368516922,2023-10-21T15:13:16.859268Z,1697901196859,864
-0.3421483933925628,-0.5471447706222534,0.5274566411972046,2023-10-21T15:13:16.870413Z,1697901196870,865
-0.3315061628818512,-0.5499383807182312,0.4957959353923797,2023-10-21T15:13:16.881010Z,1697901196880,866
-0.3115519285202026,-0.5432869791984558,0.4499012231826782,2023-10-21T15:13:16.890430Z,1697901196890,867
-0.2856114506721496,-0.5271905660629272,0.3952266275882721,2023-10-21T15:13:16.899903Z,1697901196899,868
-0.2519553303718567,-0.4791674017906189,0.3397538959980011,2023-10-21T15:13:16.914369Z,1697901196914,869
-0.2280102521181106,-0.4501672685146332,0.2856114506721496,2023-10-21T15:13:16.920189Z,1697901196920,870
-0.2076569497585296,-0.4254240393638611,0.2394506782293319,2023-10-21T15:13:16.931257Z,1697901196931,871
-0.1999413073062896,-0.385249525308609,0.211381733417511,2023-10-21T15:13:16.940336Z,1697901196940,872
-0.2117808163166046,-0.3565154373645782,0.2031339854001999,2023-10-21T15:13:16.951476Z,1697901196951,873
-0.223487302660942,-0.3134143352508545,0.2153725773096084,2023-10-21T15:13:16.964127Z,1697901196964,874
-0.2447717934846878,-0.2729737758636474,0.2467672228813171,2023-10-21T15:13:16.971552Z,1697901196971,875
-0.2733728587627411,-0.2369231432676315,0.29252889752388,2023-10-21T15:13:16.980959Z,1697901196980,876
-0.3051665723323822,-0.205794557929039,0.3466713726520538,2023-10-21T15:13:16.991882Z,1697901196991,877
-0.3356300294399261,-0.1797210276126861,0.4014789760112762,2023-10-21T15:13:17.001254Z,1697901197001,878
-0.3609053790569305,-0.1597668081521988,0.4503003060817718,2023-10-21T15:13:17.014944Z,1697901197014,879
-0.3792632520198822,-0.1483263969421386,0.4887454211711883,2023-10-21T15:13:17.021498Z,1697901197021,880
-0.3899055123329162,-0.1471291333436966,0.5146859288215637,2023-10-21T15:13:17.032475Z,1697901197032,881
-0.3926990926265716,-0.1571062505245208,0.5274566411972046,2023-10-21T15:13:17.041680Z,1697901197041,882
-0.3880431056022644,-0.1785237789154052,0.5277226567268372,2023-10-21T15:13:17.052792Z,1697901197052,883
-0.3774008750915527,-0.2112487107515335,0.5165483355522156,2023-10-21T15:13:17.064136Z,1697901197064,884
-0.3623686730861664,-0.2543498277664184,0.4943326115608215,2023-10-21T15:13:17.072792Z,1697901197072,885
-0.3430795967578888,-0.3052996098995209,0.4609425365924835,2023-10-21T15:13:17.082326Z,1697901197082,886
-0.3194005787372589,-0.3605062961578369,0.4163781106472015,2023-10-21T15:13:17.093113Z,1697901197093,887
-0.292262852191925,-0.4166441857814789,0.3610384166240692,2023-10-21T15:13:17.102623Z,1697901197102,888
-0.2625975608825683,-0.4698554277420044,0.2950564324855804,2023-10-21T15:13:17.114535Z,1697901197114,889
-0.2310699075460434,-0.5162822604179382,0.2197625041007995,2023-10-21T15:13:17.122775Z,1697901197122,890
-0.1991431415081024,-0.5532640814781189,0.1382162570953369,2023-10-21T15:13:17.133801Z,1697901197133,891
-0.1690787822008133,-0.5789385437965393,0.0558718256652355,2023-10-21T15:13:17.142941Z,1697901197142,892
-0.1428722292184829,-0.5914431810379028,-0.0216835886240005,2023-10-21T15:13:17.154094Z,1697901197154,893
-0.1219868138432502,-0.5898468494415283,-0.0887297764420509,2023-10-21T15:13:17.164101Z,1697901197164,894
-0.1090830862522125,-0.5760118961334229,-0.1403446942567825,2023-10-21T15:13:17.174052Z,1697901197174,895
-0.0972435772418975,-0.5249291062355042,-0.1499227285385131,2023-10-21T15:13:17.183630Z,1697901197183,896
-0.106555551290512,-0.4987225532531738,-0.1636246293783188,2023-10-21T15:13:17.198022Z,1697901197197,897
-0.114537239074707,-0.4762407839298248,-0.175331100821495,2023-10-21T15:13:17.203884Z,1697901197203,898
-0.1414089202880859,-0.4348690211772918,-0.1465970277786255,2023-10-21T15:13:17.214781Z,1697901197214,899
-0.1936889886856079,-0.4062679708003998,-0.1073537170886993,2023-10-21T15:13:17.224078Z,1697901197224,900
-0.2302717268466949,-0.3569145202636719,-0.0553397126495838,2023-10-21T15:13:17.235172Z,1697901197235,901
-0.2729737758636474,-0.3086253106594085,0.0009311970788985,2023-10-21T15:13:17.247476Z,1697901197247,902
-0.3168730437755584,-0.2598039805889129,0.0554727390408515,2023-10-21T15:13:17.255378Z,1697901197255,903
-0.3555842638015747,-0.2081890553236007,0.1020325943827629,2023-10-21T15:13:17.264637Z,1697901197264,904
-0.3856486082077026,-0.1528493463993072,0.1364868879318237,2023-10-21T15:13:17.275430Z,1697901197275,905
-0.4085294604301452,-0.0963123813271522,0.1584365218877792,2023-10-21T15:13:17.284939Z,1697901197284,906
-0.4264882504940033,-0.0412387289106845,0.1686796993017196,2023-10-21T15:13:17.297786Z,1697901197297,907
-0.4396580457687378,0.0113073932006955,0.1684136390686035,2023-10-21T15:13:17.305144Z,1697901197305,908
-0.4476397335529327,0.06132597848773,0.1595007479190826,2023-10-21T15:13:17.316183Z,1697901197316,909
-0.451630562543869,0.1074867472052574,0.1448676586151123,2023-10-21T15:13:17.325351Z,1697901197325,910
-0.4542911350727081,0.1476612538099289,0.1285052001476287,2023-10-21T15:13:17.336434Z,1697901197336,911
-0.4580159187316894,0.1801201105117797,0.1140051260590553,2023-10-21T15:13:17.347152Z,1697901197347,912
-0.4636031091213226,0.2037991285324096,0.1033628731966018,2023-10-21T15:13:17.356444Z,1697901197356,913
-0.4695893824100494,0.219629481434822,0.0956472381949424,2023-10-21T15:13:17.366010Z,1697901197365,914
-0.473846286535263,0.2294735610485077,0.0895279496908187,2023-10-21T15:13:17.380591Z,1697901197380,915
-0.4766398668289184,0.2342625707387924,0.0835416764020919,2023-10-21T15:13:17.386280Z,1697901197386,916
-0.4793004393577575,0.233198344707489,0.077023297548294,2023-10-21T15:13:17.397524Z,1697901197397,917
-0.4822270572185516,0.2265469431877136,0.0693076699972152,2023-10-21T15:13:17.406433Z,1697901197406,918
-0.4842224717140198,0.2163037806749344,0.0599956959486007,2023-10-21T15:13:17.417604Z,1697901197417,919
0.0023945067077875,-0.006784435827285,0.3941624164581299,2023-10-21T15:20:32.689481Z,1697901632689,920
0.0393763333559036,-0.0037247883155941,0.4210340976715088,2023-10-21T15:20:32.699473Z,1697901632699,921
0.074229709804058,-0.0086468299850821,0.4417864978313446,2023-10-21T15:20:32.709792Z,1697901632709,922
0.1072206869721412,-0.0206193644553422,0.4562865495681762,2023-10-21T15:20:32.719170Z,1697901632719,923
0.1394135057926178,-0.0377799943089485,0.4646673202514648,2023-10-21T15:20:32.733687Z,1697901632733,924
0.1708081513643264,-0.058000274002552,0.4679930508136749,2023-10-21T15:20:32.739397Z,1697901632739,925
0.1999413073062896,-0.0803490057587623,0.4665297269821167,2023-10-21T15:20:32.751725Z,1697901632751,926
0.2236203253269195,-0.1045601293444633,0.4612086117267608,2023-10-21T15:20:32.759646Z,1697901632759,927
0.2395837008953094,-0.1302345544099807,0.45229572057724,2023-10-21T15:20:32.770757Z,1697901632770,928
0.2458360195159912,-0.1567071676254272,0.4403231739997864,2023-10-21T15:20:32.782779Z,1697901632782,929
0.2410470098257064,-0.1835788488388061,0.4258231222629547,2023-10-21T15:20:32.790874Z,1697901632790,930
0.2248175740242004,-0.2103175073862075,0.4093276262283325,2023-10-21T15:20:32.800189Z,1697901632800,931
0.1976798325777053,-0.2369231432676315,0.3916348814964294,2023-10-21T15:20:32.810968Z,1697901632810,932
0.1616291999816894,-0.2628636360168457,0.3735430538654327,2023-10-21T15:20:32.820497Z,1697901632820,933
0.1195923089981079,-0.2870747447013855,0.3553181886672973,2023-10-21T15:20:32.833279Z,1697901632833,934
0.0743627399206161,-0.3086253106594085,0.3366942405700683,2023-10-21T15:20:32.840719Z,1697901632840,935
0.029000137001276,-0.3269831836223602,0.3172721564769745,2023-10-21T15:20:32.851738Z,1697901632851,936
-0.0138349281623959,-0.3418823480606079,0.2973179221153259,2023-10-21T15:20:32.865933Z,1697901632865,937
-0.0524130910634994,-0.3527906537055969,0.2776297628879547,2023-10-21T15:20:32.871798Z,1697901632871,938
-0.0871334373950958,-0.3597081303596496,0.2600700259208679,2023-10-21T15:20:32.882421Z,1697901632882,939
-0.1197253391146659,-0.3630338311195373,0.2474323660135269,2023-10-21T15:20:32.892107Z,1697901632892,940
-0.1488585025072097,-0.3623686730861664,0.2417121529579162,2023-10-21T15:20:32.901520Z,1697901632901,941
-0.1708081513643264,-0.3565154373645782,0.2439736276865005,2023-10-21T15:20:32.917215Z,1697901632917,942
-0.1817164570093155,-0.3450750410556793,0.2538177073001861,2023-10-21T15:20:32.921750Z,1697901632921,943
-0.1786568015813827,-0.329111635684967,0.2692489922046661,2023-10-21T15:20:32.933544Z,1697901632933,944
-0.1613631546497345,-0.3102216422557831,0.2872077822685241,2023-10-21T15:20:32.942061Z,1697901632942,945
-0.1311657577753067,-0.2906665205955505,0.3042353689670563,2023-10-21T15:20:32.953057Z,1697901632953,946
-0.0907251983880996,-0.2720425724983215,0.3176712393760681,2023-10-21T15:20:32.965986Z,1697901632965,947
-0.0427020378410816,-0.2559461593627929,0.3252538442611694,2023-10-21T15:20:32.973182Z,1697901632973,948
0.0090459147468209,-0.242377296090126,0.3263180553913116,2023-10-21T15:20:32.982760Z,1697901632982,949
0.0605278089642524,-0.231468990445137,0.3213960230350494,2023-10-21T15:20:32.993394Z,1697901632993,950
0.1086840033531189,-0.2222900390625,0.3116849660873413,2023-10-21T15:20:33.002852Z,1697901633002,951
0.153514489531517,-0.2133771628141403,0.2987812161445617,2023-10-21T15:20:33.016716Z,1697901633016,952
0.1959504634141922,-0.2039321511983871,0.2837490439414978,2023-10-21T15:20:33.023090Z,1697901633023,953
0.237056165933609,-0.1936889886856079,0.2677856683731079,2023-10-21T15:20:33.034076Z,1697901633034,954
0.2769646048545837,-0.1823816001415252,0.2508910894393921,2023-10-21T15:20:33.043317Z,1697901633043,955
0.3152767121791839,-0.1704090684652328,0.233198344707489,2023-10-21T15:20:33.054441Z,1697901633054,956
0.3506622016429901,-0.1584365218877792,0.2144413739442825,2023-10-21T15:20:33.065772Z,1697901633065,957
0.3804605007171631,-0.1480603367090225,0.1947532147169113,2023-10-21T15:20:33.074468Z,1697901633074,958
0.4029422700405121,-0.140211671590805,0.1741338521242141,2023-10-21T15:20:33.083869Z,1697901633083,959
0.418905645608902,-0.1342253983020782,0.1521842032670974,2023-10-21T15:20:33.100090Z,1697901633100,960
0.4314102828502655,-0.1287712454795837,0.1281061172485351,2023-10-21T15:20:33.104156Z,1697901633104,961
0.4428507089614868,-0.1231840699911117,0.1015004813671112,2023-10-21T15:20:33.116812Z,1697901633116,962
0.4533599317073822,-0.1174638569355011,0.0721012577414512,2023-10-21T15:20:33.124401Z,1697901633124,963
0.4626719057559967,-0.1120097041130065,0.0397754162549972,2023-10-21T15:20:33.135386Z,1697901633135,964
0.4701215028762817,-0.1070876643061637,0.0046559851616621,2023-10-21T15:20:33.148996Z,1697901633148,965
0.4747774600982666,-0.1038949862122535,-0.0332570374011993,2023-10-21T15:20:33.155493Z,1697901633155,966
0.4749104976654053,-0.103628933429718,-0.0732985138893127,2023-10-21T15:20:33.167903Z,1697901633167,967
0.4689242243766784,-0.1068216040730476,-0.1150693520903587,2023-10-21T15:20:33.175624Z,1697901633175,968
0.4577498733997345,-0.113206960260868,-0.1585695594549179,2023-10-21T15:20:33.185188Z,1697901633185,969
0.4427177011966705,-0.1219868138432502,-0.2036661058664322,2023-10-21T15:20:33.199475Z,1697901633199,970
0.4246258735656738,-0.1326290667057037,-0.2496938407421112,2023-10-21T15:20:33.205404Z,1697901633205,971
0.4029422700405121,-0.1453997641801834,-0.2957215905189514,2023-10-21T15:20:33.216302Z,1697901633216,972
0.3777999579906463,-0.1598998457193374,-0.3408181369304657,2023-10-21T15:20:33.225541Z,1697901633225,973
0.3519924879074096,-0.1749320179224014,-0.3843183219432831,2023-10-21T15:20:33.236625Z,1697901633236,974
0.3280474245548248,-0.188633918762207,-0.4251579642295837,2023-10-21T15:20:33.248745Z,1697901633248,975
0.3071620166301727,-0.2000743448734283,-0.4625388979911804,2023-10-21T15:20:33.256673Z,1697901633256,976
0.2894692718982696,-0.2092532813549041,-0.4956628978252411,2023-10-21T15:20:33.266250Z,1697901633266,977
0.2740379869937897,-0.2159046977758407,-0.5250621438026428,2023-10-21T15:20:33.281884Z,1697901633281,978
0.259537935256958,-0.2202946245670318,-0.5507365465164185,2023-10-21T15:20:33.286488Z,1697901633286,979
0.2441066652536392,-0.223487302660942,-0.5724201202392578,2023-10-21T15:20:33.299540Z,1697901633299,980
0.2262808829545974,-0.2260148376226425,-0.5898468494415283,2023-10-21T15:20:33.306773Z,1697901633306,981
0.2069918066263198,-0.2273451089859008,-0.6031496524810791,2023-10-21T15:20:33.317845Z,1697901633317,982
0.1882348358631134,-0.2266799658536911,-0.6131267547607422,2023-10-21T15:20:33.331923Z,1697901633331,983
0.1729366034269333,-0.2228221595287323,-0.6195120811462402,2023-10-21T15:20:33.337800Z,1697901633337,984
0.1634915918111801,-0.2144413739442825,-0.6213744878768921,2023-10-21T15:20:33.348629Z,1697901633348,985
0.1609640568494796,-0.2007394880056381,-0.6168515682220459,2023-10-21T15:20:33.358068Z,1697901633358,986
0.1650879383087158,-0.1803861707448959,-0.604080855846405,2023-10-21T15:20:33.367586Z,1697901633367,987
0.1754641383886337,-0.1523172408342361,-0.5815990567207336,2023-10-21T15:20:33.382768Z,1697901633382,988
0.1926247626543045,-0.1156014651060104,-0.5490071773529053,2023-10-21T15:20:33.387814Z,1697901633387,989
0.2177670896053314,-0.0703718960285186,-0.5073693990707397,2023-10-21T15:20:33.399249Z,1697901633399,990
0.2523544132709503,-0.0170276034623384,-0.4589471220970154,2023-10-21T15:20:33.407951Z,1697901633407,991
0.2966527938842773,0.0417708382010459,-0.4074652194976806,2023-10-21T15:20:33.419067Z,1697901633419,992
0.3474695384502411,0.1009683683514595,-0.3569145202636719,2023-10-21T15:20:33.431773Z,1697901633431,993
0.4008138179779053,0.1543126553297042,-0.3114188909530639,2023-10-21T15:20:33.439123Z,1697901633439,994
0.4544241726398468,0.1967486441135406,-0.2749691903591156,2023-10-21T15:20:33.448616Z,1697901633448,995
0.5076354146003723,0.2245515137910843,-0.2499599009752273,2023-10-21T15:20:33.459343Z,1697901633459,996
0.5599154829978943,0.2363910228013992,-0.2363910228013992,2023-10-21T15:20:33.468899Z,1697901633468,997
0.60820472240448,0.2338634878396988,-0.2312029302120208,2023-10-21T15:20:33.482643Z,1697901633482,998
0.6494434475898743,0.2204276472330093,-0.2308038473129272,2023-10-21T15:20:33.489097Z,1697901633489,999
0.6820353269577026,0.2006064504384994,-0.2322671562433242,2023-10-21T15:20:33.500151Z,1697901633500,1000
0.7067785859107971,0.1797210276126861,-0.2330653220415115,2023-10-21T15:20:33.509270Z,1697901633509,1001
0.7230079770088196,0.1637576520442962,-0.2297396212816238,2023-10-21T15:20:33.520448Z,1697901633520,1002
0.7287282347679138,0.1567071676254272,-0.2193634212017059,2023-10-21T15:20:33.531774Z,1697901633531,1003
0.7215446829795837,0.1592347025871276,-0.2018037140369415,2023-10-21T15:20:33.540440Z,1697901633540,1004
0.7001271843910217,0.1681475788354873,-0.1811843365430832,2023-10-21T15:20:33.549939Z,1697901633549,1005
0.6639435291290283,0.1795880049467086,-0.1617622375488281,2023-10-21T15:20:33.565084Z,1697901633565,1006
0.6123285889625549,0.1907623708248138,-0.1472621709108352,2023-10-21T15:20:33.570205Z,1697901633570,1007
0.543686032295227,0.1990101188421249,-0.1412758976221084,2023-10-21T15:20:33.582670Z,1697901633582,1008
0.4556214213371277,0.1979458928108215,-0.1487254798412323,2023-10-21T15:20:33.590420Z,1697901633590,1009
0.3462722897529602,0.1789228618144989,-0.1761292666196823,2023-10-21T15:20:33.601485Z,1697901633601,1010
0.2180331349372863,0.1383492797613144,-0.2248175740242004,2023-10-21T15:20:33.615068Z,1697901633615,1011
0.0786196365952491,0.0830095633864402,-0.2874738276004791,2023-10-21T15:20:33.621493Z,1697901633621,1012
-0.0586654134094715,0.0270047150552272,-0.3506622016429901,2023-10-21T15:20:33.631743Z,1697901633631,1013
-0.1797210276126861,-0.0175597164779901,-0.4028092324733734,2023-10-21T15:20:33.641729Z,1697901633641,1014
-0.2755013108253479,-0.0445644296705722,-0.4380617141723633,2023-10-21T15:20:33.651278Z,1697901633651,1015
-0.3440108001232147,-0.0520140081644058,-0.4541580975055694,2023-10-21T15:20:33.665916Z,1697901633665,1016
-0.3876440227031708,-0.0412387289106845,-0.4518966376781463,2023-10-21T15:20:33.671486Z,1697901633671,1017
-0.4113230407238006,-0.0162294339388608,-0.4351350963115692,2023-10-21T15:20:33.682540Z,1697901633682,1018
-0.4214331805706024,0.013701899908483,-0.4135845303535461,2023-10-21T15:20:33.691625Z,1697901633691,1019
-0.4251579642295837,0.0375139378011226,-0.3982862830162048,2023-10-21T15:20:33.702797Z,1697901633702,1020
-0.4299469888210296,0.0478901341557502,-0.3969559967517853,2023-10-21T15:20:33.714965Z,1697901633714,1021
-0.4416534602642059,0.0432341508567333,-0.411190003156662,2023-10-21T15:20:33.722801Z,1697901633722,1022
-0.4617407023906708,0.0278028845787048,-0.4373965561389923,2023-10-21T15:20:33.747561Z,1697901633747,1023
-0.4874151349067688,0.0074495766311883,-0.4705205857753753,2023-10-21T15:20:33.749040Z,1697901633749,1024
-0.5128235220909119,-0.0122385900467634,-0.5051078796386719,2023-10-21T15:20:33.752496Z,1697901633752,1025
-0.5322456359863281,-0.0275368280708789,-0.5365025401115417,2023-10-21T15:20:33.765935Z,1697901633765,1026
-0.5426218509674072,-0.0372478812932968,-0.5605806112289429,2023-10-21T15:20:33.772775Z,1697901633772,1027
-0.5416906476020813,-0.0411056987941265,-0.5760118961334229,2023-10-21T15:20:33.799453Z,1697901633799,1028
-0.5279887318611145,-0.0389772467315197,-0.5837275385856628,2023-10-21T15:20:33.800097Z,1697901633800,1029
-0.4999198019504547,-0.0316606983542442,-0.5849247574806213,2023-10-21T15:20:33.803851Z,1697901633803,1030
-0.4578829109668731,-0.0216835886240005,-0.5817320942878723,2023-10-21T15:20:33.831886Z,1697901633831,1031
-0.4048046767711639,-0.0125046465545892,-0.5758788585662842,2023-10-21T15:20:33.833424Z,1697901633833,1032
-0.3436117172241211,-0.0071835201233625,-0.5696265697479248,2023-10-21T15:20:33.833972Z,1697901633833,1033
-0.2761664390563965,-0.0070504918694496,-0.5649705529212952,2023-10-21T15:20:33.866160Z,1697901633866,1034
-0.2035330682992935,-0.0126376748085021,-0.5628421306610107,2023-10-21T15:20:33.866809Z,1697901633866,1035
-0.1271749138832092,-0.0250092931091785,-0.5641723871231079,2023-10-21T15:20:33.867881Z,1697901633867,1036
-0.0488213300704956,-0.0441653467714786,-0.5688284039497375,2023-10-21T15:20:33.874099Z,1697901633874,1037
0.0301973912864923,-0.0687755569815635,-0.5757458209991455,2023-10-21T15:20:33.948755Z,1697901633948,1038
0.1094821691513061,-0.0957802683115005,-0.5823972225189209,2023-10-21T15:20:33.949439Z,1697901633949,1039
0.1887669414281845,-0.1222528740763664,-0.5866541266441345,2023-10-21T15:20:33.950690Z,1697901633950,1040
0.2669875025749206,-0.1464639902114868,-0.5865211486816406,2023-10-21T15:20:33.951246Z,1697901633951,1041
0.3428135514259338,-0.168280616402626,-0.5809339284896851,2023-10-21T15:20:33.952338Z,1697901633952,1042
0.4143826961517334,-0.1873036324977874,-0.5694935321807861,2023-10-21T15:20:33.952870Z,1697901633952,1043
0.4791674017906189,-0.2037991285324096,-0.5525989532470703,2023-10-21T15:20:33.953919Z,1697901633953,1044
0.5342410802841187,-0.2180331349372863,-0.5319795608520508,2023-10-21T15:20:33.955163Z,1697901633955,1045
0.5760118961334229,-0.2310699075460434,-0.5102959871292114,2023-10-21T15:20:33.966205Z,1697901633966,1046
0.600089967250824,-0.2445057481527328,-0.4906078279018402,2023-10-21T15:20:33.975281Z,1697901633975,1047
0.6034156680107117,-0.259537935256958,-0.4749104976654053,2023-10-21T15:20:33.986499Z,1697901633986,1048
0.5830624103546143,-0.2757673561573028,-0.4620067775249481,2023-10-21T15:20:34.014967Z,1697901634014,1049
0.5386309623718262,-0.2898683547973633,-0.4495021402835846,2023-10-21T15:20:34.016511Z,1697901634016,1050
0.4710526764392853,-0.2974509596824646,-0.4342038929462433,2023-10-21T15:20:34.017037Z,1697901634017,1051
0.3829880356788635,-0.2947903871536255,-0.4121212065219879,2023-10-21T15:20:34.031686Z,1697901634031,1052
0.2781618535518646,-0.2790930569171905,-0.3788641691207886,2023-10-21T15:20:34.036228Z,1697901634036,1053
0.1609640568494796,-0.2486296147108078,-0.3300428390502929,2023-10-21T15:20:34.049154Z,1697901634049,1054
0.0365827418863773,-0.2028679251670837,-0.262996643781662,2023-10-21T15:20:34.056425Z,1697901634056,1055
-0.0893949195742607,-0.1436704099178314,-0.1774595528841018,2023-10-21T15:20:34.067544Z,1697901634067,1056
-0.2115147560834884,-0.0739636495709419,-0.0756930187344551,2023-10-21T15:20:34.081672Z,1697901634081,1057
-0.3251208066940307,0.0026605629827827,0.0369818247854709,2023-10-21T15:20:34.087544Z,1697901634087,1058
-0.4292818605899811,0.0812802016735076,0.1527163237333297,2023-10-21T15:20:34.098069Z,1697901634098,1059
-0.5257272720336914,0.1560420244932174,0.2636618018150329,2023-10-21T15:20:34.107798Z,1697901634107,1060
-0.6171175837516785,0.2220239788293838,0.3626347482204437,2023-10-21T15:20:34.117332Z,1697901634117,1061
-0.7051822543144226,0.277496725320816,0.4459103643894195,2023-10-21T15:20:34.132632Z,1697901634132,1062
-0.7907193303108215,0.322061151266098,0.5125574469566345,2023-10-21T15:20:34.137515Z,1697901634137,1063
-0.8751922249794006,0.354786068201065,0.5633742213249207,2023-10-21T15:20:34.148731Z,1697901634148,1064
-0.9592660069465636,0.3760705888271332,0.6007551550865173,2023-10-21T15:20:34.157627Z,1697901634157,1065
-1.040014147758484,0.3883091807365417,0.626828670501709,2023-10-21T15:20:34.168858Z,1697901634168,1066
-1.1135786771774292,0.3944284617900848,0.6437232494354248,2023-10-21T15:20:34.180992Z,1697901634180,1067
-1.1775652170181274,0.3952266275882721,0.6526361107826233,2023-10-21T15:20:34.188827Z,1697901634188,1068
-1.2319737672805786,0.3903045952320099,0.6543654799461365,2023-10-21T15:20:34.198397Z,1697901634198,1069
-1.2777353525161743,0.3795293271541595,0.6487783193588257,2023-10-21T15:20:34.209126Z,1697901634209,1070
-1.3153823614120483,0.3635659515857696,0.6354754567146301,2023-10-21T15:20:34.218653Z,1697901634218,1071
-1.3446485996246338,0.3433456718921661,0.6152551770210266,2023-10-21T15:20:34.231901Z,1697901634231,1072
-1.3655339479446411,0.3190014958381653,0.589580774307251,2023-10-21T15:20:34.238758Z,1697901634238,1073
-1.3791028261184692,0.2911986112594604,0.5605806112289429,2023-10-21T15:20:34.249867Z,1697901634249,1074
-1.385621190071106,0.2607351839542389,0.529585063457489,2023-10-21T15:20:34.258936Z,1697901634258,1075
-1.3844239711761477,0.2292075008153915,0.4960619807243347,2023-10-21T15:20:34.270173Z,1697901634270,1076
-1.374180793762207,0.1978128552436828,0.4594792425632477,2023-10-21T15:20:34.281032Z,1697901634280,1077
-1.355024814605713,0.1665512472391128,0.4205019772052765,2023-10-21T15:20:34.290211Z,1697901634290,1078
-1.3285521268844604,0.134624496102333,0.3804605007171631,2023-10-21T15:20:34.299709Z,1697901634299,1079
-1.2966253757476809,0.101234421133995,0.3402860164642334,2023-10-21T15:20:34.315301Z,1697901634315,1080
-1.2579141855239868,0.0679773837327957,0.299978494644165,2023-10-21T15:20:34.319879Z,1697901634319,1081
-1.208826780319214,0.0369818247854709,0.2592718601226806,2023-10-21T15:20:34.332025Z,1697901634332,1082
-1.1473678350448608,0.00957802683115,0.2186982780694961,2023-10-21T15:20:34.340076Z,1697901634340,1083
-1.0748674869537354,-0.0151652097702026,0.1789228618144989,2023-10-21T15:20:34.351279Z,1697901634351,1084
-0.9954496622085572,-0.0393763333559036,0.1404777318239212,2023-10-21T15:20:34.364571Z,1697901634364,1085
-0.9112428426742554,-0.0635874569416046,0.1029637902975082,2023-10-21T15:20:34.371212Z,1697901634371,1086
-0.823178231716156,-0.0867343544960022,0.066114991903305,2023-10-21T15:20:34.381059Z,1697901634381,1087
-0.7328521013259888,-0.1073537170886993,0.0297983065247535,2023-10-21T15:20:34.391511Z,1697901634391,1088
-0.6431910991668701,-0.1251794844865799,-0.0057202107273042,2023-10-21T15:20:34.401006Z,1697901634400,1089
-0.5581861138343811,-0.1411428749561309,-0.0403075292706489,2023-10-21T15:20:34.415353Z,1697901634415,1090
-0.4803646504878998,-0.1567071676254272,-0.0750278756022453,2023-10-21T15:20:34.421171Z,1697901634421,1091
-0.4121212065219879,-0.1722714602947235,-0.111743651330471,2023-10-21T15:20:34.432263Z,1697901634432,1092
-0.3558503091335296,-0.1890330016613006,-0.1529823690652847,2023-10-21T15:20:34.441323Z,1697901634441,1093
-0.3130152523517608,-0.2079229950904846,-0.2004734277725219,2023-10-21T15:20:34.452544Z,1697901634452,1094
-0.2846802473068237,-0.2302717268466949,-0.255014955997467,2023-10-21T15:20:34.464423Z,1697901634464,1095
-0.2712444067001343,-0.2570104002952575,-0.3167400360107422,2023-10-21T15:20:34.472570Z,1697901634472,1096
-0.2727077007293701,-0.2878729104995727,-0.3841853141784668,2023-10-21T15:20:34.482107Z,1697901634482,1097
-0.2877399027347564,-0.3209969401359558,-0.4545572102069855,2023-10-21T15:20:34.497499Z,1697901634497,1098
-0.3130152523517608,-0.3538548946380615,-0.5239979028701782,2023-10-21T15:20:34.502312Z,1697901634502,1099
-0.3449420034885406,-0.3840522766113281,-0.5893146991729736,2023-10-21T15:20:34.515045Z,1697901634515,1100
-0.3803274929523468,-0.4110569953918457,-0.6485122442245483,2023-10-21T15:20:34.522454Z,1697901634522,1101
-0.415047824382782,-0.4350020587444305,-0.7013244032859802,2023-10-21T15:20:34.533566Z,1697901634533,1102
-0.4444470703601837,-0.4562865495681762,-0.7478842735290527,2023-10-21T15:20:34.547720Z,1697901634547,1103
-0.4641352295875549,-0.4754426181316376,-0.7873936295509338,2023-10-21T15:20:34.553657Z,1697901634553,1104
-0.4726490378379822,-0.4931353628635406,-0.8171919584274292,2023-10-21T15:20:34.564417Z,1697901634564,1105
-0.4705205857753753,-0.5096308588981628,-0.8342195153236389,2023-10-21T15:20:34.573863Z,1697901634573,1106
-0.4589471220970154,-0.5229336619377136,-0.8343525528907776,2023-10-21T15:20:34.583397Z,1697901634583,1107
-0.4403231739997864,-0.5294520258903503,-0.8130680918693542,2023-10-21T15:20:34.598605Z,1697901634598,1108
-0.4177083969116211,-0.525993287563324,-0.7678384780883789,2023-10-21T15:20:34.603591Z,1697901634603,1109
-0.3946945369243622,-0.512291431427002,-0.699595034122467,2023-10-21T15:20:34.615121Z,1697901634615,1110
-0.3724788129329681,-0.4910069108009338,-0.615521252155304,2023-10-21T15:20:34.623769Z,1697901634623,1111
-0.3499970734119415,-0.4666627645492553,-0.5273236036300659,2023-10-21T15:20:34.634930Z,1697901634634,1112
-0.3247217237949371,-0.444314032793045,-0.447506695985794,2023-10-21T15:20:34.647503Z,1697901634647,1113
-0.2933270633220672,-0.4283506572246551,-0.3856486082077026,2023-10-21T15:20:34.654936Z,1697901634654,1114
-0.2558131217956543,-0.4211671352386474,-0.3452080488204956,2023-10-21T15:20:34.664404Z,1697901634664,1115
-0.2173680067062378,-0.4232955873012543,-0.3237905204296112,2023-10-21T15:20:34.675191Z,1697901634675,1116
-0.1883678585290908,-0.4320754408836365,-0.3139464259147644,2023-10-21T15:20:34.684713Z,1697901634684,1117
-0.1803861707448959,-0.4431167840957641,-0.3050335645675659,2023-10-21T15:20:34.698509Z,1697901634698,1118
-0.2000743448734283,-0.4526948034763336,-0.2865426540374756,2023-10-21T15:20:34.704849Z,1697901634704,1119
0.3549191057682037,-0.3091574311256408,0.2907995283603668,2023-10-21T15:13:22.249570Z,1697901202249,1120
0.3573136031627655,-0.3879100978374481,0.3011757433414459,2023-10-21T15:13:22.260853Z,1697901202260,1121
0.3650292456150055,-0.4637361466884613,0.2966527938842773,2023-10-21T15:13:22.269798Z,1697901202269,1122
0.3793962895870209,-0.5314474701881409,0.2773636877536773,2023-10-21T15:13:22.280754Z,1697901202280,1123
0.4033413529396057,-0.5866541266441345,0.2441066652536392,2023-10-21T15:13:22.290006Z,1697901202289,1124
0.4380617141723633,-0.6272277235984802,0.1987440586090088,2023-10-21T15:13:22.301088Z,1697901202301,1125
0.4840894341468811,-0.6525030732154846,0.1434043496847152,2023-10-21T15:13:22.310281Z,1697901202310,1126
0.5395621657371521,-0.6638104915618896,0.0790187194943428,2023-10-21T15:13:22.321127Z,1697901202321,1127
0.6011542081832886,-0.6635444164276123,0.006784435827285,2023-10-21T15:13:22.330613Z,1697901202330,1128
0.6662049889564514,-0.6530352234840393,-0.0710370317101478,2023-10-21T15:13:22.344070Z,1697901202344,1129
0.7329851388931274,-0.6333470344543457,-0.1507208943367004,2023-10-21T15:13:22.350875Z,1697901202350,1130
0.8008294701576233,-0.605012059211731,-0.2284093350172042,2023-10-21T15:13:22.361764Z,1697901202361,1131
0.867742657661438,-0.5690944194793701,-0.3011757433414459,2023-10-21T15:13:22.371111Z,1697901202371,1132
0.9307979941368104,-0.5271905660629272,-0.3660934865474701,2023-10-21T15:13:22.382142Z,1697901202382,1133
0.98640376329422,-0.4807637333869934,-0.4210340976715088,2023-10-21T15:13:22.393642Z,1697901202393,1134
1.0320323705673218,-0.4310111999511719,-0.4636031091213226,2023-10-21T15:13:22.402143Z,1697901202402,1135
1.067417860031128,-0.3779329657554626,-0.4936674833297729,2023-10-21T15:13:22.411629Z,1697901202411,1136
1.0933583974838257,-0.3212629854679107,-0.5120253562927246,2023-10-21T15:13:22.422459Z,1697901202422,1137
1.1093217134475708,-0.2614003121852875,-0.519075870513916,2023-10-21T15:13:22.431942Z,1697901202431,1138
1.114642858505249,-0.1992761790752411,-0.514552891254425,2023-10-21T15:13:22.444077Z,1697901202444,1139
1.109587788581848,-0.1360878050327301,-0.4977913498878479,2023-10-21T15:13:22.452156Z,1697901202452,1140
1.0965510606765747,-0.072766400873661,-0.4698554277420044,2023-10-21T15:13:22.463247Z,1697901202463,1141
1.0776610374450684,-0.0111743649467825,-0.4323414862155914,2023-10-21T15:13:22.472387Z,1697901202472,1142
1.0541150569915771,0.0469589382410049,-0.3876440227031708,2023-10-21T15:13:22.483528Z,1697901202483,1143
1.0265783071517944,0.1001701951026916,-0.3378915190696716,2023-10-21T15:13:22.493694Z,1697901202493,1144
0.9954496622085572,0.1467300504446029,-0.2857444584369659,2023-10-21T15:13:22.503524Z,1697901202503,1145
0.9632568359375,0.1858403235673904,-0.2343956083059311,2023-10-21T15:13:22.513128Z,1697901202513,1146
0.93186217546463,0.2165698260068893,-0.1869045495986938,2023-10-21T15:13:22.527444Z,1697901202527,1147
0.8999354243278503,0.2386524975299835,-0.1427392065525055,2023-10-21T15:13:22.533260Z,1697901202533,1148
0.8648160099983215,0.2524874210357666,-0.1004362553358078,2023-10-21T15:13:22.544101Z,1697901202544,1149
0.8278341889381409,0.2607351839542389,-0.0597296394407749,2023-10-21T15:13:22.553510Z,1697901202553,1150
0.7935129404067993,0.2664553821086883,-0.0228808429092168,2023-10-21T15:13:22.564456Z,1697901202564,1151
0.7649118900299072,0.2723086178302765,0.0078486613929271,2023-10-21T15:13:22.576873Z,1697901202576,1152
0.7429622411727905,0.2801572978496551,0.0305964741855859,2023-10-21T15:13:22.584557Z,1697901202584,1153
