ACC_X,ACC_Y,ACC_Z,DATE,UNIX_TIMESTAMP,norm,Line_Number
0.3081836700439453,0.1845216751098632,-0.0743248462677002,2023-10-21T15:19:52.646790Z,1697901592646,0.3668100405384543,0
0.2561826705932617,0.1493668556213379,-0.0585395097732543,2023-10-21T15:19:52.667Z,1697901592666,0.3022695692176012,1
0.2105312347412109,0.1193623542785644,-0.0453099012374877,2023-10-21T15:19:52.687223Z,1697901592687,0.2462189261018154,2
0.1760969161987304,0.096961498260498,-0.0354796648025512,2023-10-21T15:19:52.710549Z,1697901592710,0.2041334432525073,3
0.1576871871948242,0.0842399597167968,-0.0295747518539428,2023-10-21T15:19:52.727808Z,1697901592727,0.1812078523842865,4
0.158792495727539,0.0822539329528808,-0.0276160240173339,2023-10-21T15:19:52.748081Z,1697901592748,0.1809514049907418,5
0.1819820404052734,0.0913724899291992,-0.0293030738830566,2023-10-21T15:19:52.768337Z,1697901592768,0.2057305642944773,6
0.2264261245727539,0.1101741790771484,-0.0337828397750854,2023-10-21T15:19:52.788506Z,1697901592788,0.2540638106610796,7
0.2896890640258789,0.1365742683410644,-0.0401594638824462,2023-10-21T15:19:52.810700Z,1697901592810,0.322777116797973,8
0.3675651550292969,0.1678318977355957,-0.047519564628601,2023-10-21T15:19:52.829147Z,1697901592829,0.406853533979655,9
0.4553375244140625,0.2011923789978027,-0.0551185607910156,2023-10-21T15:19:52.849383Z,1697901592849,0.500847971194848,10
0.5462770462036133,0.2332015037536621,-0.0620266199111938,2023-10-21T15:19:52.869638Z,1697901592869,0.5972008490780314,11
0.6307296752929688,0.2595071792602539,-0.0669370889663696,2023-10-21T15:19:52.893696Z,1697901592893,0.6853061164633503,12
0.6977624893188477,0.2756433486938476,-0.0683358311653137,2023-10-21T15:19:52.910229Z,1697901592910,0.753340250484897,13
0.7384357452392578,0.2785651683807373,-0.065173864364624,2023-10-21T15:19:52.930458Z,1697901592930,0.7919176317510963,14
0.7490520477294922,0.2678582668304443,-0.0573236346244812,2023-10-21T15:19:52.950727Z,1697901592950,0.7975669378827811,15
0.7300596237182617,0.2451205253601074,-0.0453637838363647,2023-10-21T15:19:52.970845Z,1697901592970,0.7714460441407535,16
0.6849575042724609,0.2133080959320068,-0.0304473340511322,2023-10-21T15:19:52.993750Z,1697901592993,0.7180488608723767,17
0.6189413070678711,0.1759612560272216,-0.0141520947217941,2023-10-21T15:19:53.011520Z,1697901593011,0.6436233269565179,18
0.5388069152832031,0.1370770931243896,0.0015068817883729,2023-10-21T15:19:53.031865Z,1697901593031,0.5559723843044343,19
0.4515037536621094,0.1002633571624755,0.014549434185028,2023-10-21T15:19:53.052044Z,1697901593052,0.4627310951249865,20
0.363530158996582,0.068318486213684,0.0234701037406921,2023-10-21T15:19:53.077238Z,1697901593077,0.3706378796456298,21
0.2800407409667969,0.0427650213241577,0.0276465415954589,2023-10-21T15:19:53.093685Z,1697901593093,0.2846330882246084,22
0.2051343917846679,0.0240364074707031,0.0273865461349487,2023-10-21T15:19:53.112894Z,1697901593112,0.2083456034721275,23
0.1411800384521484,0.0115680694580078,0.0237075090408325,2023-10-21T15:19:53.133050Z,1697901593133,0.1436233597756874,24
0.0866994857788086,0.0041216313838958,0.0174477100372314,2023-10-21T15:19:53.153294Z,1697901593153,0.0885336730578702,25
0.0339336395263671,0.000487133860588,0.0079052448272705,2023-10-21T15:19:53.176960Z,1697901593176,0.0348456896428043,26
-0.0284557342529296,0.0004967302083969,-0.0074779987335205,2023-10-21T15:19:53.193931Z,1697901593193,0.0294261111571308,27
-0.1118764877319336,0.0053600668907165,-0.0325310230255126,2023-10-21T15:19:53.214130Z,1697901593214,0.1166333840861735,28
-0.2231578826904297,0.0172690153121948,-0.070789098739624,2023-10-21T15:19:53.234380Z,1697901593234,0.2347525420460801,29
-0.3626985549926758,0.0386097431182861,-0.1244058609008789,2023-10-21T15:19:53.254550Z,1697901593254,0.3853800361771792,30
-0.5244245529174805,0.0712970495223999,-0.1938097476959228,2023-10-21T15:19:53.276820Z,1697901593276,0.5636191970428758,31
-0.6968097686767578,0.1163017749786377,-0.2775924205780029,2023-10-21T15:19:53.295194Z,1697901593295,0.7590306374244015,32
-0.8641576766967773,0.1732964515686035,-0.3721959590911865,2023-10-21T15:19:53.315409Z,1697901593315,0.9567287924401824,33
-1.0097508430480957,0.2405328750610351,-0.471811294555664,2023-10-21T15:19:53.335639Z,1697901593335,1.140201178166274,34
-1.1192941665649414,0.3150980472564697,-0.5692102909088135,2023-10-21T15:19:53.360238Z,1697901593360,1.294645343701372,35
-1.1815900802612305,0.3919939994812011,-0.6552207469940186,2023-10-21T15:19:53.377428Z,1697901593377,1.406815069827022,36
-1.1918039321899414,0.4646201133728027,-0.7203445434570312,2023-10-21T15:19:53.396419Z,1697901593396,1.4680479296747369,37
-1.1518001556396484,0.5249946117401123,-0.7558646202087402,2023-10-21T15:19:53.416765Z,1697901593416,1.474311454534276,38
-1.0672931671142578,0.5646476745605469,-0.7551751136779785,2023-10-21T15:19:53.437027Z,1697901593436,1.424159806087071,39
-0.9478306770324708,0.5767924785614014,-0.7163577079772949,2023-10-21T15:19:53.460059Z,1697901593460,1.320697134632812,40
-0.8065972328186035,0.5587100982666016,-0.6435837745666504,2023-10-21T15:19:53.477541Z,1697901593477,1.1734377464446766,41
-0.6593375205993652,0.5140175819396973,-0.5479989051818848,2023-10-21T15:19:53.497824Z,1697901593497,0.9996213486584788,42
-0.5222845077514648,0.4532365798950195,-0.4461441040039062,2023-10-21T15:19:53.518081Z,1697901593518,0.8229514359484237,43
-0.4065632820129394,0.3891077041625976,-0.3528804779052734,2023-10-21T15:19:53.543431Z,1697901593543,0.6642462942361625,44
-0.3189015388488769,0.3340520858764648,-0.2786526679992676,2023-10-21T15:19:53.560026Z,1697901593559,0.5393851100481999,45
-0.2603797912597656,0.2966465950012207,-0.2272300720214843,2023-10-21T15:19:53.578899Z,1697901593578,0.4554452147659324,46
-0.2286105155944824,0.2815017700195312,-0.1976962089538574,2023-10-21T15:19:53.599141Z,1697901593599,0.4130251873666197,47
-0.2169828414916992,0.287086009979248,-0.1846470832824707,2023-10-21T15:19:53.619393Z,1697901593619,0.404468139650505,48
-0.2198519706726074,0.3109626770019531,-0.1830630302429199,2023-10-21T15:19:53.643234Z,1697901593643,0.4225455579444307,49
-0.2305374145507812,0.3472504615783691,-0.1870083808898925,2023-10-21T15:19:53.659942Z,1697901593659,0.4568397061302884,50
-0.2416667938232422,0.386545181274414,-0.1902341842651367,2023-10-21T15:19:53.680215Z,1697901593680,0.4939727333226977,51
-0.2441420555114746,0.4136829376220703,-0.185800552368164,2023-10-21T15:19:53.700468Z,1697901593700,0.5150347186445866,52
-0.227510929107666,0.4074063301086426,-0.1667506694793701,2023-10-21T15:19:53.720598Z,1697901593720,0.4955269179851321,53
-0.1843147277832031,0.3479776382446289,-0.1296095848083496,2023-10-21T15:19:53.742833Z,1697901593742,0.4145588017040512,54
-0.1120138168334961,0.2225780487060547,-0.0752472877502441,2023-10-21T15:19:53.761263Z,1697901593761,0.2602887574236945,55
-0.0135254859924316,0.028273582458496,-0.0086243152618408,2023-10-21T15:19:53.781518Z,1697901593781,0.0325071230671749,56
0.1050245761871337,-0.2312374114990234,0.0629260540008544,2023-10-21T15:19:53.801754Z,1697901593801,0.2616497474720244,57
0.2351832389831543,-0.5466861724853516,0.1301550865173339,2023-10-21T15:19:53.826173Z,1697901593826,0.6091939540340381,58
0.367889404296875,-0.9052801132202148,0.1831499338150024,2023-10-21T15:19:53.842774Z,1697901593842,0.9941924338086436,59
0.4944188594818115,-1.2897472381591797,0.2127277851104736,2023-10-21T15:19:53.862587Z,1697901593862,1.3975518085239398,60
0.607398509979248,-1.679304122924805,0.2122201919555664,2023-10-21T15:19:53.882827Z,1697901593882,1.7983416519312776,61
0.7014162540435791,-2.050930976867676,0.1786691546440124,2023-10-21T15:19:53.903081Z,1697901593903,2.174908113032165,62
0.7721645832061768,-2.3791065216064453,0.1128931641578674,2023-10-21T15:19:53.926152Z,1697901593926,2.503823246801152,63
0.8160362243652344,-2.636056900024414,0.018834039568901,2023-10-21T15:19:53.943619Z,1697901593943,2.759540871356877,64
0.8325879573822021,-2.800985336303711,-0.0952895283699035,2023-10-21T15:19:53.963893Z,1697901593963,2.9236623702444238,65
0.8232645988464355,-2.8613176345825195,-0.2170178294181823,2023-10-21T15:19:53.984112Z,1697901593984,2.985297295743268,66
0.7916505336761475,-2.815448760986328,-0.330923318862915,2023-10-21T15:19:54.004386Z,1697901594004,2.943292805035956,67
0.742988109588623,-2.6698522567749023,-0.4227428436279297,2023-10-21T15:19:54.025993Z,1697901594025,2.80336474898197,68
0.6835296154022217,-2.43777847290039,-0.4821622371673584,2023-10-21T15:19:54.044952Z,1697901594044,2.5772964596682897,69
0.6186118125915527,-2.141063690185547,-0.5053009986877441,2023-10-21T15:19:54.065209Z,1697901594065,2.285205329808153,70
0.5516769886016846,-1.807517051696777,-0.4934961795806885,2023-10-21T15:19:54.085465Z,1697901594085,1.953203489447008,71
0.4830381870269775,-1.462021827697754,-0.4508891105651855,2023-10-21T15:19:54.109220Z,1697901594109,1.604411014926429,72
0.4081118106842041,-1.1105403900146484,-0.3801202774047851,2023-10-21T15:19:54.126005Z,1697901594125,1.2427174389892974,73
0.3219163417816162,-0.7625904083251953,-0.2859492301940918,2023-10-21T15:19:54.146308Z,1697901594146,0.8757518051504319,74
0.2117762565612793,-0.426091194152832,-0.173389196395874,2023-10-21T15:19:54.166565Z,1697901594166,0.5064254160333012,75
0.0619163513183593,-0.1050162315368652,-0.0461025238037109,2023-10-21T15:19:54.186684Z,1697901594186,0.1303360508372672,76
-0.138247013092041,0.1970195770263672,0.0930168628692627,2023-10-21T15:19:54.209386Z,1697901594209,0.2580331124847329,77
-0.3948111534118652,0.4673986434936523,0.2378952503204345,2023-10-21T15:19:54.227313Z,1697901594227,0.6564537218442255,78
-0.7028717994689941,0.6735196113586426,0.3737030029296875,2023-10-21T15:19:54.247606Z,1697901594247,1.0427422345777235,79
-1.052846908569336,0.7868170738220215,0.4854512214660644,2023-10-21T15:19:54.267857Z,1697901594267,1.4011533138685253,80
-1.4362940788269043,0.7921719551086426,0.5658876895904541,2023-10-21T15:19:54.292479Z,1697901594292,1.735138600966475,81
-1.8098087310791016,0.6571235656738281,0.5985574722290039,2023-10-21T15:19:54.309128Z,1697901594309,2.016306046019604,82
-2.070042133331299,0.3693897724151611,0.5608460903167725,2023-10-21T15:19:54.328619Z,1697901594328,2.1762517259626306,83
-2.139359474182129,-0.0070377513766288,0.460810899734497,2023-10-21T15:19:54.348886Z,1697901594348,2.1884366966013413,84
-1.95825719833374,-0.3611609935760498,0.3195317983627319,2023-10-21T15:19:54.369132Z,1697901594369,2.016757072200732,85
-1.4923639297485352,-0.5453872680664062,0.1674711108207702,2023-10-21T15:19:54.392222Z,1697901594392,1.5976995787515786,86
-0.8119397163391113,-0.4407825469970703,0.0519648790359497,2023-10-21T15:19:54.409686Z,1697901594409,0.9253300521215562,87
-0.0526542663574218,-0.0375185012817382,0.0010860860347747,2023-10-21T15:19:54.429992Z,1697901594429,0.064662889565353,88
0.6707143783569336,0.58551025390625,0.0117446929216384,2023-10-21T15:19:54.450225Z,1697901594450,0.8904032640191256,89
1.3222126960754397,1.3506460189819336,0.0659260749816894,2023-10-21T15:19:54.470356Z,1697901594470,1.891252846558947,90
1.9117202758789065,2.201324462890625,0.1454919576644897,2023-10-21T15:19:54.492356Z,1697901594492,2.919190249687791,91
2.436770439147949,3.0717592239379883,0.2342444658279419,2023-10-21T15:19:54.511011Z,1697901594510,3.927903432204568,92
2.88349723815918,3.904340267181397,0.3196105360984802,2023-10-21T15:19:54.531267Z,1697901594531,4.864214236563895,93
3.2524852752685547,4.664551734924316,0.3943783044815063,2023-10-21T15:19:54.551498Z,1697901594551,5.70019627738115,94
3.5537233352661133,5.3373870849609375,0.4572590589523315,2023-10-21T15:19:54.575649Z,1697901594575,6.428509647291252,95
3.79573917388916,5.918603897094727,0.5095728635787964,2023-10-21T15:19:54.592299Z,1697901594592,7.049622150881389,96
3.981142997741699,6.406092643737793,0.552245020866394,2023-10-21T15:19:54.612338Z,1697901594612,7.56257212142079,97
4.098318576812744,6.783052444458008,0.582740068435669,2023-10-21T15:19:54.632579Z,1697901594632,7.946420679065299,98
4.125966548919678,7.031210899353027,0.5941019058227539,2023-10-21T15:19:54.652760Z,1697901594652,8.174012707874095,99
4.069903373718262,7.153006553649902,0.58045494556427,2023-10-21T15:19:54.675532Z,1697901594675,8.250245097679933,100
3.97503662109375,7.176449775695801,0.5427213907241821,2023-10-21T15:19:54.693385Z,1697901594693,8.221733030819616,101
3.87054443359375,7.118038177490234,0.4789499044418335,2023-10-21T15:19:54.713677Z,1697901594713,8.116463190306286,102
3.760861396789551,6.97569465637207,0.3867255449295044,2023-10-21T15:19:54.733904Z,1697901594733,7.934352590596206,103
3.633269309997559,6.740994453430176,0.2639498710632324,2023-10-21T15:19:54.758781Z,1697901594758,7.662331344609213,104
3.493440628051758,6.423218727111816,0.1098548769950866,2023-10-21T15:19:54.775570Z,1697901594775,7.312587389702923,105
3.3638086318969727,6.040563583374023,-0.0679491013288497,2023-10-21T15:19:54.794759Z,1697901594794,6.914349860773636,106
3.2446203231811523,5.596927642822266,-0.2553512454032898,2023-10-21T15:19:54.814960Z,1697901594814,6.4744393069297645,107
3.132753372192383,5.115530967712402,-0.4368722438812256,2023-10-21T15:19:54.835219Z,1697901594835,6.014454100754378,108
3.0467677116394043,4.631984710693359,-0.6025762557983398,2023-10-21T15:19:54.858839Z,1697901594858,5.576842654480885,109
2.986199855804444,4.168550491333008,-0.7481346130371094,2023-10-21T15:19:54.875777Z,1697901594875,5.182075662977464,110
2.915454864501953,3.716359615325928,-0.8697645664215088,2023-10-21T15:19:54.896029Z,1697901594895,4.802884160416112,111
2.812032699584961,3.269465446472168,-0.959254503250122,2023-10-21T15:19:54.916297Z,1697901594916,4.417816362323832,112
2.6805644035339355,2.8392276763916016,-1.012838363647461,2023-10-21T15:19:54.936529Z,1697901594936,4.033916319255689,113
2.5422701835632324,2.444921493530273,-1.0348544120788574,2023-10-21T15:19:54.958725Z,1697901594958,3.675826770940112,114
2.3925857543945312,2.0853214263916016,-1.0267956256866455,2023-10-21T15:19:54.977098Z,1697901594977,3.335766973340432,115
2.209634780883789,1.749112606048584,-0.9881155490875244,2023-10-21T15:19:54.997412Z,1697901594997,2.986344439591314,116
2.0030298233032227,1.4446144104003906,-0.927359104156494,2023-10-21T15:19:55.017658Z,1697901595017,2.6379981379524406,117
1.8045997619628904,1.1858506202697754,-0.8600258827209473,2023-10-21T15:19:55.042251Z,1697901595042,2.324320656325344,118
1.628840446472168,0.976409912109375,-0.7964437007904053,2023-10-21T15:19:55.058968Z,1697901595058,2.059325152825023,119
1.4796476364135742,0.8120570182800293,-0.7414283752441406,2023-10-21T15:19:55.078401Z,1697901595078,1.843504750332717,120
1.358910083770752,0.6870012283325195,-0.697354793548584,2023-10-21T15:19:55.098647Z,1697901595098,1.6747868555698098,121
1.2683916091918943,0.5956220626831055,-0.6658649444580078,2023-10-21T15:19:55.118909Z,1697901595118,1.5514377332272622,122
1.208120346069336,0.5320963859558105,-0.6473674774169922,2023-10-21T15:19:55.141746Z,1697901595141,1.4702945233357727,123
1.178720474243164,0.4916615486145019,-0.6418790817260742,2023-10-21T15:19:55.159421Z,1697901595159,1.4293781131469545,124
1.1805124282836914,0.4703164100646972,-0.6489500999450684,2023-10-21T15:19:55.179714Z,1697901595179,1.4268648678578908,125
1.204999923706055,0.4625563621520996,-0.6637692451477051,2023-10-21T15:19:55.207362Z,1697901595207,1.451403739523547,126
1.2355337142944336,0.461848497390747,-0.6769695281982422,2023-10-21T15:19:55.225385Z,1697901595225,1.4826109860004548,127
1.2530279159545898,0.4623160362243652,-0.6780786514282227,2023-10-21T15:19:55.258746Z,1697901595258,1.497867061202171,128
1.2442750930786133,0.4598326683044433,-0.6596279144287109,2023-10-21T15:19:55.260927Z,1697901595260,1.4814774974967884,129
1.202472686767578,0.4514448642730713,-0.6185860633850098,2023-10-21T15:19:55.294446Z,1697901595294,1.4256197759973497,130
1.1265020370483398,0.4348025321960449,-0.5563983917236328,2023-10-21T15:19:55.301193Z,1697901595301,1.3295259500253451,131
1.0173702239990234,0.4076185226440429,-0.4768533706665039,2023-10-21T15:19:55.326121Z,1697901595326,1.1952339393601328,132
0.8769826889038086,0.3676767349243164,-0.3850727081298828,2023-10-21T15:19:55.358612Z,1697901595358,1.0259462990761468,133
0.7103500366210938,0.3137016296386719,-0.2877836227416992,2023-10-21T15:19:55.362038Z,1697901595361,0.8281457000334448,134
0.5281133651733398,0.2468180656433105,-0.1937077045440673,2023-10-21T15:19:55.392985Z,1697901595392,0.614284591050717,135
0.3443078994750976,0.170687198638916,-0.1116309165954589,2023-10-21T15:19:55.402578Z,1697901595402,0.4001793484927688,136
0.171696662902832,0.0903005599975586,-0.047717809677124,2023-10-21T15:19:55.428468Z,1697901595428,0.1997771872567627,137
0.017897605895996,0.0099701881408691,-0.0040910243988037,2023-10-21T15:19:55.458491Z,1697901595458,0.0208917550484473,138
-0.1140146255493164,-0.0670557022094726,0.0201650857925415,2023-10-21T15:19:55.463357Z,1697901595463,0.1337999728063382,139
-0.2242145538330078,-0.1384763717651367,0.0276245474815368,2023-10-21T15:19:55.492880Z,1697901595492,0.2649735596457329,140
-0.3148183822631836,-0.202852725982666,0.0213155150413513,2023-10-21T15:19:55.525402Z,1697901595525,0.3751189057230848,141
-0.3883166313171386,-0.2592144012451172,0.0040813237428665,2023-10-21T15:19:55.527661Z,1697901595527,0.4669031689481763,142
-0.4453577995300293,-0.3058538436889648,-0.0214276015758514,2023-10-21T15:19:55.560385Z,1697901595560,0.5406933376793512,143
-0.4868531227111816,-0.3417119979858398,-0.0523431897163391,2023-10-21T15:19:55.564643Z,1697901595564,0.5971037281501298,144
-0.5163669586181641,-0.368323802947998,-0.0862953662872314,2023-10-21T15:19:55.592669Z,1697901595592,0.6401126072913234,145
-0.538325309753418,-0.3886404037475586,-0.1219949722290039,2023-10-21T15:19:55.624992Z,1697901595624,0.6750690896458926,146
-0.5569238662719727,-0.4058895111083984,-0.159273624420166,2023-10-21T15:19:55.627238Z,1697901595627,0.7073037363729057,147
-0.5748863220214844,-0.4222602844238281,-0.1985516548156738,2023-10-21T15:19:55.658435Z,1697901595658,0.7404193343498835,148
-0.5941743850708008,-0.4392757415771484,-0.2407100200653076,2023-10-21T15:19:55.665945Z,1697901595665,0.7771407149109218,149
-0.6153497695922852,-0.457404613494873,-0.2864201068878174,2023-10-21T15:19:55.694470Z,1697901595694,0.8184807859768617,150
-0.638390064239502,-0.4769272804260254,-0.3360445499420166,2023-10-21T15:19:55.725009Z,1697901595724,0.8648279854861385,151
-0.6637544631958008,-0.4989347457885742,-0.390211820602417,2023-10-21T15:19:55.727579Z,1697901595727,0.9174808624191066,152
-0.6928224563598633,-0.5254311561584473,-0.4505009651184082,2023-10-21T15:19:55.759320Z,1697901595759,0.9793017795711058,153
-0.7256407737731934,-0.5574636459350586,-0.518338680267334,2023-10-21T15:19:55.767388Z,1697901595767,1.051663081296785,154
-0.7589774131774902,-0.593019962310791,-0.5927000045776367,2023-10-21T15:19:55.792717Z,1697901595792,1.1309344299467663,155
-0.7878203392028809,-0.6278929710388184,-0.6701469421386719,2023-10-21T15:19:55.826825Z,1697901595826,1.2099617324525225,156
-0.8079357147216797,-0.6576695442199707,-0.7458300590515137,2023-10-21T15:19:55.829281Z,1697901595829,1.2812305902928325,157
-0.8168272972106934,-0.6783895492553711,-0.8144760131835938,2023-10-21T15:19:55.859266Z,1697901595859,1.338204166059452,158
-0.8135409355163574,-0.6877665519714355,-0.8710699081420898,2023-10-21T15:19:55.868565Z,1697901595868,1.3760939170863944,159
-0.7985820770263672,-0.6857089996337891,-0.9124398231506348,2023-10-21T15:19:55.892464Z,1697901595892,1.393009905491587,160
-0.7735719680786133,-0.6738729476928711,-0.9379324913024902,2023-10-21T15:19:55.909266Z,1697901595909,1.3900488112545524,161
-0.7405910491943359,-0.6535286903381348,-0.947861671447754,2023-10-21T15:19:55.929491Z,1697901595929,1.3689472595544268,162
-0.7015938758850098,-0.6257321834564209,-0.9427895545959472,2023-10-21T15:19:55.949682Z,1697901595949,1.3314003441293365,163
-0.6578660011291504,-0.5914778709411621,-0.9233007431030272,2023-10-21T15:19:55.974654Z,1697901595974,1.2787173297759562,164
-0.6108264923095703,-0.5529241561889648,-0.8914332389831543,2023-10-21T15:19:55.991306Z,1697901595991,1.21387287051342,165
-0.5621256828308105,-0.5125281810760498,-0.850064754486084,2023-10-21T15:19:56.010517Z,1697901596010,1.1407368261411637,166
-0.5136899948120117,-0.472186803817749,-0.8022727966308594,2023-10-21T15:19:56.030745Z,1697901596030,1.063240061643412,167
-0.4675559997558594,-0.4339325428009033,-0.7519865036010742,2023-10-21T15:19:56.051013Z,1697901596050,0.9860982538304828,168
-0.4249467849731445,-0.3988118171691894,-0.7025876045227051,2023-10-21T15:19:56.074514Z,1697901596074,0.9128307497021316,169
-0.386502742767334,-0.3672981262207031,-0.656618595123291,2023-10-21T15:19:56.091546Z,1697901596091,0.8458370192617464,170
-0.3519830703735351,-0.338616132736206,-0.6143760681152344,2023-10-21T15:19:56.111841Z,1697901596111,0.7848636316275204,171
-0.3211286067962646,-0.3122072219848633,-0.5755586624145508,2023-10-21T15:19:56.132066Z,1697901596132,0.729290549399101,172
-0.2936367988586426,-0.2875485420227051,-0.5396943092346191,2023-10-21T15:19:56.152240Z,1697901596152,0.6783632368308051,173
-0.2692916393280029,-0.2646512985229492,-0.5067758560180664,2023-10-21T15:19:56.174575Z,1697901596174,0.631965240392769,174
-0.2472283840179443,-0.24298095703125,-0.475651741027832,2023-10-21T15:19:56.209894Z,1697901596209,0.5885628242479761,175
-0.2267394065856933,-0.2221367359161377,-0.4452977180480957,2023-10-21T15:19:56.213086Z,1697901596213,0.5468505697548002,176
-0.2071633338928222,-0.2019007205963134,-0.4147725105285644,2023-10-21T15:19:56.242233Z,1697901596242,0.505684470175887,177
-0.1879432201385498,-0.181767463684082,-0.3829159736633301,2023-10-21T15:19:56.274730Z,1697901596274,0.4636665911371311,178
-0.1689651012420654,-0.1618218421936035,-0.3495955467224121,2023-10-21T15:19:56.277Z,1697901596276,0.4206572955944246,179
-0.1503970623016357,-0.1423718929290771,-0.3152875900268554,2023-10-21T15:19:56.307976Z,1697901596307,0.3772204881367303,180
-0.1329166889190673,-0.1243054866790771,-0.2816848754882812,2023-10-21T15:19:56.314412Z,1697901596314,0.3353581209551646,181
-0.1170713901519775,-0.1083676815032959,-0.2506103515625,2023-10-21T15:19:56.344250Z,1697901596344,0.297077116413897,182
-0.1032876968383789,-0.0951001644134521,-0.2235870361328125,2023-10-21T15:19:56.374446Z,1697901596374,0.2640143032418852,183
-0.0918664932250976,-0.0847134590148925,-0.2016992568969726,2023-10-21T15:19:56.376691Z,1697901596376,0.2372728660182949,184
-0.0832660198211669,-0.0774366855621337,-0.1861114501953125,2023-10-21T15:19:56.395517Z,1697901596395,0.2180989276028427,185
-0.0774602890014648,-0.073045015335083,-0.176849365234375,2023-10-21T15:19:56.415753Z,1697901596415,0.2064252131433908,186
-0.0741200447082519,-0.0711898803710937,-0.1734561920166015,2023-10-21T15:19:56.435965Z,1697901596435,0.2016155515918948,187
-0.0725750923156738,-0.071359634399414,-0.1748275756835937,2023-10-21T15:19:56.457666Z,1697901596457,0.2022968676614872,188
-0.0725998878479003,-0.0734963417053222,-0.1808757781982422,2023-10-21T15:19:56.476530Z,1697901596476,0.2082990712855265,189
-0.0737974643707275,-0.0773875713348388,-0.1910886764526367,2023-10-21T15:19:56.496774Z,1697901596496,0.2189743916833062,190
-0.0755455493927002,-0.0825340747833252,-0.204319953918457,2023-10-21T15:19:56.517009Z,1697901596516,0.2329498810959662,191
-0.0771155357360839,-0.0882806777954101,-0.2189292907714843,2023-10-21T15:19:56.541037Z,1697901596540,0.2483350927307402,192
-0.0776677131652832,-0.0936546325683593,-0.2324752807617187,2023-10-21T15:19:56.557570Z,1697901596557,0.2623894434520547,193
-0.0769071578979492,-0.0981318950653076,-0.2435579299926757,2023-10-21T15:19:56.577906Z,1697901596577,0.2736147748703745,194
-0.0747208595275878,-0.1012961864471435,-0.2511110305786133,2023-10-21T15:19:56.598122Z,1697901596598,0.2808929937102903,195
-0.071213960647583,-0.1030504703521728,-0.254791259765625,2023-10-21T15:19:56.618308Z,1697901596618,0.2839179699911116,196
-0.066591739654541,-0.103360891342163,-0.2545795440673828,2023-10-21T15:19:56.640564Z,1697901596640,0.2827166035216558,197
-0.0612013339996337,-0.1025567054748535,-0.2511711120605469,2023-10-21T15:19:56.658951Z,1697901596658,0.2781194143797271,198
-0.0551662445068359,-0.1005895137786865,-0.2444934844970703,2023-10-21T15:19:56.679240Z,1697901596679,0.2700715252979101,199
0.1694412231445312,0.0999460220336914,-0.043264627456665,2023-10-21T15:19:16.313543Z,1697901556313,0.2014233437564721,200
0.1840677261352539,0.1085181236267089,-0.046255350112915,2023-10-21T15:19:16.335840Z,1697901556335,0.2186244917069742,201
0.200387954711914,0.1182832717895507,-0.0496482849121093,2023-10-21T15:19:16.354165Z,1697901556354,0.2379311181278708,202
0.2187280654907226,0.1294822692871093,-0.0535364151000976,2023-10-21T15:19:16.374435Z,1697901556374,0.2597571412585673,203
0.2388753890991211,0.1420493125915527,-0.0578746795654296,2023-10-21T15:19:16.394720Z,1697901556394,0.2838819072427658,204
0.2604122161865234,0.1557836532592773,-0.0625598430633544,2023-10-21T15:19:16.419129Z,1697901556419,0.3098335083978085,205
0.2824735641479492,0.1701793670654297,-0.0673756599426269,2023-10-21T15:19:16.435512Z,1697901556435,0.3365884890633372,206
0.3040084838867187,0.1845903396606445,-0.0720634460449218,2023-10-21T15:19:16.466785Z,1697901556466,0.3628882638319994,207
0.3239879608154297,0.1983327865600586,-0.0763545036315918,2023-10-21T15:19:16.475745Z,1697901556475,0.3874714224337647,208
0.3417911529541015,0.2109518051147461,-0.0800765752792358,2023-10-21T15:19:16.495906Z,1697901556495,0.4095535547731394,209
0.3570680618286133,0.2221560478210449,-0.0830990076065063,2023-10-21T15:19:16.520430Z,1697901556520,0.4286681180431955,210
0.3694934844970703,0.2316803932189941,-0.0853066444396972,2023-10-21T15:19:16.552454Z,1697901556552,0.4443854894947127,211
0.3788127899169922,0.2393131256103515,-0.0866187810897827,2023-10-21T15:19:16.556739Z,1697901556556,0.4563690558435911,212
0.3850841522216797,0.2450218200683593,-0.0870566368103027,2023-10-21T15:19:16.586516Z,1697901556586,0.464655092100175,213
0.3886661529541015,0.2489528656005859,-0.0867116451263427,2023-10-21T15:19:16.635073Z,1697901556635,0.4696358346031542,214
0.3902492523193359,0.2514581680297851,-0.0857441425323486,2023-10-21T15:19:16.636985Z,1697901556636,0.4720992980118738,215
0.3906164169311523,0.2529783248901367,-0.0843281745910644,2023-10-21T15:19:16.638563Z,1697901556638,0.4729592573046989,216
0.3907947540283203,0.2541093826293945,-0.0826817750930786,2023-10-21T15:19:16.658129Z,1697901556658,0.4734220041874795,217
0.3918437957763672,0.2555012702941894,-0.0810270309448242,2023-10-21T15:19:16.686420Z,1697901556686,0.4747502913681141,218
0.3953351974487304,0.2581586837768554,-0.079688549041748,2023-10-21T15:19:16.718881Z,1697901556718,0.478838270399938,219
0.4025506973266601,0.2629175186157226,-0.0789135694503784,2023-10-21T15:19:16.720792Z,1697901556720,0.487237146527878,220
0.4144191741943359,0.2703862190246582,-0.0788437128067016,2023-10-21T15:19:16.739151Z,1697901556739,0.5010671516149421,221
0.4317693710327148,0.2810883522033691,-0.0795807838439941,2023-10-21T15:19:16.759384Z,1697901556759,0.5213142551893396,222
0.455484390258789,0.2955727577209472,-0.0811994075775146,2023-10-21T15:19:16.779535Z,1697901556779,0.5490196978862651,223
0.4865846633911133,0.314420223236084,-0.0837643146514892,2023-10-21T15:19:16.801939Z,1697901556801,0.585355594349542,224
0.5256423950195312,0.3379130363464355,-0.0872027873992919,2023-10-21T15:19:16.820177Z,1697901556820,0.6309433205169404,225
0.5724058151245117,0.3657693862915039,-0.0912727117538452,2023-10-21T15:19:16.840473Z,1697901556840,0.6853950459751811,226
0.6262054443359375,0.3974575996398926,-0.0956934690475463,2023-10-21T15:19:16.860610Z,1697901556860,0.7478389145035365,227
0.6863889694213867,0.4324493408203125,-0.100209355354309,2023-10-21T15:19:16.885288Z,1697901556885,0.8174253266322266,228
0.7511348724365234,0.4694719314575195,-0.1043506860733032,2023-10-21T15:19:16.901811Z,1697901556901,0.8919061367098308,229
0.8181800842285156,0.5070109367370605,-0.1075786352157592,2023-10-21T15:19:16.921490Z,1697901556921,0.9685307960793286,230
0.8848075866699219,0.5433087348937988,-0.1093504428863525,2023-10-21T15:19:16.941707Z,1697901556941,1.044043277934393,231
0.9479694366455078,0.576378345489502,-0.1091924905776977,2023-10-21T15:19:16.961890Z,1697901556961,1.114800901489489,232
1.0053596496582031,0.6046280860900879,-0.1068254113197326,2023-10-21T15:19:16.985033Z,1697901556984,1.1780215686282902,233
1.0551471710205078,0.6268558502197266,-0.1021281480789184,2023-10-21T15:19:17.002578Z,1697901557002,1.2315494176432007,234
1.0945730209350586,0.641411304473877,-0.0950672626495361,2023-10-21T15:19:17.022860Z,1697901557022,1.2722170978624114,235
1.1212177276611328,0.6470174789428711,-0.085831344127655,2023-10-21T15:19:17.043056Z,1697901557043,1.2973541654128,236
1.132451057434082,0.6422891616821289,-0.0746882557868957,2023-10-21T15:19:17.063212Z,1697901557063,1.304054868573555,237
1.1263456344604492,0.6263394355773926,-0.0620009303092956,2023-10-21T15:19:17.085133Z,1697901557085,1.2902711700207583,238
1.1021203994750977,0.599034309387207,-0.0482624173164367,2023-10-21T15:19:17.103875Z,1697901557103,1.255324953821672,239
1.0588932037353516,0.5604524612426758,-0.034151941537857,2023-10-21T15:19:17.124113Z,1697901557124,1.198552515887683,240
0.9968576431274414,0.5115394592285156,-0.0204924345016479,2023-10-21T15:19:17.144309Z,1697901557144,1.1206327314875306,241
0.9162521362304688,0.4535169601440429,-0.0080306082963943,2023-10-21T15:19:17.168399Z,1697901557168,1.022379626633278,242
0.8171920776367188,0.3878774642944336,0.002502704039216,2023-10-21T15:19:17.185208Z,1697901557185,0.904576189487212,243
0.6986579895019531,0.3158354759216308,0.0104166269302368,2023-10-21T15:19:17.205201Z,1697901557205,0.7668008478491387,244
0.5605688095092773,0.2394013404846191,0.0150429904460906,2023-10-21T15:19:17.225505Z,1697901557225,0.6097349289503121,245
0.4032878875732422,0.1611227989196777,0.0156966149806976,2023-10-21T15:19:17.245584Z,1697901557245,0.4345665200137387,246
0.2284765243530273,0.0843672752380371,0.0117304325103759,2023-10-21T15:19:17.268303Z,1697901557268,0.2438379838302692,247
0.0381097793579101,0.0128076076507568,0.0024460554122924,2023-10-21T15:19:17.286280Z,1697901557286,0.0402786951566745,248
-0.1658811569213867,-0.0497353076934814,-0.0128616094589233,2023-10-21T15:19:17.306616Z,1697901557306,0.1736536208975121,249
-0.3807401657104492,-0.0991413593292236,-0.0347827672958374,2023-10-21T15:19:17.326743Z,1697901557326,0.394970788559892,250
-0.6035652160644531,-0.1313393115997314,-0.0637805461883544,2023-10-21T15:19:17.351771Z,1697901557351,0.6209741885831537,251
-0.8303146362304688,-0.1421821117401123,-0.1001051664352417,2023-10-21T15:19:17.368560Z,1697901557368,0.8483272908402988,252
-1.0560598373413086,-0.1276289224624633,-0.1438854932785034,2023-10-21T15:19:17.387568Z,1697901557387,1.0734312074233163,253
-1.2725248336791992,-0.0838186740875244,-0.194591999053955,2023-10-21T15:19:17.407840Z,1697901557407,1.290043049108005,254
-1.4684152603149414,-0.0083127357065677,-0.2504913806915283,2023-10-21T15:19:17.428012Z,1697901557427,1.4896504321824875,255
-1.6308002471923828,0.0983884632587432,-0.3085536956787109,2023-10-21T15:19:17.451645Z,1697901557451,1.6626470217884928,256
-1.747447490692139,0.2315200567245483,-0.3645354509353637,2023-10-21T15:19:17.468591Z,1697901557468,1.8000167678054113,257
-1.809850692749024,0.3822861909866333,-0.4138915538787842,2023-10-21T15:19:17.488847Z,1697901557488,1.895523273461812,258
-1.812428951263428,0.538658857345581,-0.451722502708435,2023-10-21T15:19:17.509091Z,1697901557509,1.9439921006598428,259
-1.7528362274169922,0.6854498386383057,-0.4728729724884033,2023-10-21T15:19:17.529284Z,1697901557529,1.9405888718491435,260
-1.6337480545043943,0.8061220645904541,-0.4733458757400512,2023-10-21T15:19:17.551669Z,1697901557551,1.8822916369937432,261
-1.4641094207763672,0.8853144645690918,-0.451387882232666,2023-10-21T15:19:17.569937Z,1697901557569,1.769505331274212,262
-1.2576913833618164,0.9121313095092772,-0.408153772354126,2023-10-21T15:19:17.590193Z,1697901557590,1.6063500999024378,263
-1.030202865600586,0.8815455436706543,-0.3474447727203369,2023-10-21T15:19:17.610401Z,1697901557610,1.3996993819916956,264
-0.7954716682434082,0.7928743362426758,-0.274728775024414,2023-10-21T15:19:17.634878Z,1697901557634,1.1562442596080769,265
-0.5648941993713379,0.6492180824279785,-0.1963640451431274,2023-10-21T15:19:17.651490Z,1697901557651,0.8826938389157469,266
-0.3478512763977051,0.4572262763977051,-0.1192196607589721,2023-10-21T15:19:17.671274Z,1697901557671,0.5867450092088621,267
-0.1504454612731933,0.2246236801147461,-0.0495829582214355,2023-10-21T15:19:17.691512Z,1697901557691,0.2748601539546689,268
0.0235242843627929,-0.0396337509155273,0.0072287321090698,2023-10-21T15:19:17.711735Z,1697901557711,0.0466527677026808,269
0.1720752716064453,-0.3249826431274414,0.0473743677139282,2023-10-21T15:19:17.734955Z,1697901557734,0.3707667031285635,270
0.2942581176757812,-0.618800163269043,0.0687400102615356,2023-10-21T15:19:17.752338Z,1697901557752,0.688641177167503,271
0.3895306587219238,-0.9068689346313475,0.0709324479103088,2023-10-21T15:19:17.772593Z,1697901557772,0.9895336330061146,272
0.4583847522735595,-1.1761178970336914,0.0554162859916687,2023-10-21T15:19:17.792776Z,1697901557792,1.263503404662194,273
0.5026459693908691,-1.4163484573364258,0.0252873599529266,2023-10-21T15:19:17.818231Z,1697901557818,1.503108570169683,274
0.5249042510986328,-1.6197662353515625,-0.0154171586036682,2023-10-21T15:19:17.834808Z,1697901557834,1.7027638764038309,275
0.5281732082366943,-1.7802238464355469,-0.062198668718338,2023-10-21T15:19:17.853653Z,1697901557853,1.857964627140988,276
0.5156590938568115,-1.8933048248291016,-0.1103928089141845,2023-10-21T15:19:17.873851Z,1697901557873,1.9653737642133997,277
0.4899375438690185,-1.95428466796875,-0.1558785438537597,2023-10-21T15:19:17.894089Z,1697901557894,2.0207833829443724,278
0.4530136585235595,-1.9594707489013672,-0.1955519914627075,2023-10-21T15:19:17.917915Z,1697901557917,2.0206403866037164,279
0.4069015979766845,-1.9073486328125,-0.2268215417861938,2023-10-21T15:19:17.934705Z,1697901557934,1.963414304049443,280
0.3547923564910888,-1.7993440628051758,-0.2469732761383056,2023-10-21T15:19:17.954999Z,1697901557954,1.850543831338027,281
0.3019521236419678,-1.641122817993164,-0.2533957958221435,2023-10-21T15:19:17.975147Z,1697901557975,1.6877999342487413,282
0.2525112628936767,-1.438328742980957,-0.2444561719894409,2023-10-21T15:19:17.995377Z,1697901557995,1.4806452413718387,283
0.2061618566513061,-1.1942739486694336,-0.2200484275817871,2023-10-21T15:19:18.017847Z,1697901558017,1.2317525263175275,284
0.1587282419204712,-0.9109821319580078,-0.18034029006958,2023-10-21T15:19:18.035995Z,1697901558035,0.9421282926185272,285
0.1056439876556396,-0.5937566757202148,-0.1259429454803466,2023-10-21T15:19:18.056279Z,1697901558056,0.6160919311323358,286
0.0404340028762817,-0.2252016067504882,-0.0513434410095214,2023-10-21T15:19:18.076493Z,1697901558076,0.2344926890252634,287
-0.0367020368576049,0.2071952819824218,0.0506653785705566,2023-10-21T15:19:18.101101Z,1697901558101,0.2164345281395047,288
-0.1197941303253173,0.6951284408569336,0.1806027889251709,2023-10-21T15:19:18.117707Z,1697901558117,0.7281288006363574,289
-0.2093173265457153,1.2412223815917969,0.3364453315734863,2023-10-21T15:19:18.137346Z,1697901558137,1.3029359941663483,290
-0.3100544214248657,1.8174781799316408,0.5024416446685791,2023-10-21T15:19:18.157522Z,1697901558157,1.910970508686621,291
-0.4313938617706299,2.43751859664917,0.6742266416549683,2023-10-21T15:19:18.177760Z,1697901558177,2.5655757905977468,292
-0.5768558979034424,3.1013479232788086,0.8376952409744263,2023-10-21T15:19:18.200886Z,1697901558200,3.2638711654909063,293
-0.7495474815368652,3.8127284049987793,0.9676780700683594,2023-10-21T15:19:18.218431Z,1697901558218,4.00438761418697,294
-0.9649839401245116,4.573070049285889,1.0191866159439087,2023-10-21T15:19:18.238718Z,1697901558238,4.783607952005794,295
-1.2775709629058838,5.367738723754883,0.9022284746170044,2023-10-21T15:19:18.258835Z,1697901558258,5.590959022579909,296
-1.820431470870972,6.094923496246338,0.435876190662384,2023-10-21T15:19:18.279081Z,1697901558279,6.375896111043488,297
-2.785280704498291,6.458017826080322,-0.6267822980880737,2023-10-21T15:19:18.300938Z,1697901558300,7.060923374036732,298
-4.180047512054443,5.786946773529053,-2.433276414871216,2023-10-21T15:19:18.319737Z,1697901558319,7.542041121199179,299
-5.296066284179688,3.4876387119293213,-4.338093280792236,2023-10-21T15:19:18.339948Z,1697901558339,7.68316309759383,300
-5.299848556518555,0.5434114336967468,-5.226423263549805,2023-10-21T15:19:18.360171Z,1697901558360,7.463189052816413,301
-4.557491779327393,-1.530912160873413,-5.042963981628418,2023-10-21T15:19:18.384221Z,1697901558384,6.967489439026687,302
-3.7175192832946777,-2.5815305709838867,-4.422775268554688,2023-10-21T15:19:18.400854Z,1697901558400,6.3281269572229,303
-2.997584581375122,-2.974371194839477,-3.712454319000244,2023-10-21T15:19:18.421029Z,1697901558420,5.622696363654386,304
-2.411362171173096,-2.983910083770752,-3.0299389362335205,2023-10-21T15:19:18.441263Z,1697901558441,4.88865184543728,305
-1.9264016151428225,-2.77273941040039,-2.409798622131348,2023-10-21T15:19:18.461429Z,1697901558461,4.148040069724318,306
-1.512284517288208,-2.435767650604248,-1.8605475425720213,2023-10-21T15:19:18.484181Z,1697901558484,3.4178364014578806,307
-1.149479866027832,-2.029715061187744,-1.382889986038208,2023-10-21T15:19:18.502114Z,1697901558502,2.7117212071856662,308
-0.826962947845459,-1.580939769744873,-0.9706604480743408,2023-10-21T15:19:18.522378Z,1697901558522,2.03111298999492,309
-0.5377862453460693,-1.1001157760620115,-0.6140351295471191,2023-10-21T15:19:18.542522Z,1697901558542,1.3698568927964307,310
-0.2707972526550293,-0.5837531089782715,-0.2986571788787842,2023-10-21T15:19:18.567532Z,1697901558567,0.7094328402203718,311
-0.0158448219299316,-0.035017967224121,-0.0166010856628417,2023-10-21T15:19:18.584046Z,1697901558584,0.0418677973588993,312
0.2404518127441406,0.5295028686523438,0.2340524196624755,2023-10-21T15:19:18.603411Z,1697901558603,0.6268739086234679,313
0.5088338851928711,1.097246170043945,0.4526164531707763,2023-10-21T15:19:18.623648Z,1697901558623,1.2914033971139582,314
0.7840003967285156,1.643998146057129,0.6301124095916748,2023-10-21T15:19:18.643825Z,1697901558643,1.9272851825900528,315
1.059206485748291,2.1704349517822266,0.7681996822357178,2023-10-21T15:19:18.667245Z,1697901558667,2.534331669524772,316
1.3295283317565918,2.6628808975219727,0.8691768646240234,2023-10-21T15:19:18.684459Z,1697901558684,3.100652944353582,317
1.5945191383361816,3.118077278137207,0.9372882843017578,2023-10-21T15:19:18.704747Z,1697901558704,3.625383638023047,318
1.852386474609375,3.5294952392578125,0.9729607105255128,2023-10-21T15:19:18.732590Z,1697901558732,4.103087232741418,319
2.096786975860596,3.887177467346192,0.9735584259033204,2023-10-21T15:19:18.745061Z,1697901558745,4.5226629648283465,320
2.31378173828125,4.177030563354492,0.9347317218780518,2023-10-21T15:19:18.784177Z,1697901558784,4.865685321872599,321
2.485652446746826,4.3978376388549805,0.8557136058807373,2023-10-21T15:19:18.786137Z,1697901558786,5.123640283922891,322
2.600895881652832,4.548890113830566,0.7452483177185059,2023-10-21T15:19:18.820297Z,1697901558820,5.29267944523059,323
2.662785530090332,4.625905990600586,0.6128147840499878,2023-10-21T15:19:18.826199Z,1697901558826,5.372613421109234,324
2.686334609985352,4.6403398513793945,0.4704090356826782,2023-10-21T15:19:18.851642Z,1697901558851,5.382418808858783,325
2.6898670196533203,4.5898847579956055,0.3212153315544128,2023-10-21T15:19:18.883976Z,1697901558883,5.329690982066842,326
2.6820311546325684,4.495227813720703,0.1669999361038208,2023-10-21T15:19:18.887036Z,1697901558887,5.237198983266398,327
2.6667160987854004,4.363095283508301,0.0115430057048797,2023-10-21T15:19:18.918398Z,1697901558918,5.1135221174327885,328
2.6435275077819824,4.198572158813477,-0.1408888101577758,2023-10-21T15:19:18.927493Z,1697901558927,4.963476152253715,329
2.610994338989258,4.007577896118164,-0.2870090007781982,2023-10-21T15:19:18.953395Z,1697901558953,4.791695545234123,330
2.568118095397949,3.794499397277832,-0.4240765571594238,2023-10-21T15:19:18.984016Z,1697901558983,4.601445115850499,331
2.512165069580078,3.563861846923828,-0.5495023727416992,2023-10-21T15:19:18.988345Z,1697901558988,4.394773880238477,332
2.443021774291992,3.323281764984131,-0.6617686748504639,2023-10-21T15:19:19.018340Z,1697901559018,4.1773789459605135,333
2.3623623847961426,3.08095121383667,-0.7602832317352295,2023-10-21T15:19:19.050888Z,1697901559050,3.956140418589706,334
2.275404930114746,2.846217632293701,-0.8456065654754639,2023-10-21T15:19:19.052874Z,1697901559052,3.74078506064506,335
2.1850318908691406,2.6228461265563965,-0.9180240631103516,2023-10-21T15:19:19.085862Z,1697901559085,3.535032439477282,336
2.090003967285156,2.4096622467041016,-0.9770228862762452,2023-10-21T15:19:19.089661Z,1697901559089,3.336039934827866,337
1.988134860992432,2.2036333084106445,-1.0211522579193115,2023-10-21T15:19:19.109899Z,1697901559109,3.1386990803968366,338
1.877848148345948,2.003747940063477,-1.049657106399536,2023-10-21T15:19:19.133978Z,1697901559133,2.9399148825382646,339
1.7591266632080078,1.8111724853515625,-1.062279224395752,2023-10-21T15:19:19.150507Z,1697901559150,2.7392169573596643,340
1.6360831260681152,1.629961013793945,-1.0613417625427246,2023-10-21T15:19:19.170810Z,1697901559170,2.54165049501506,341
1.5171527862548828,1.465931415557861,-1.0517024993896484,2023-10-21T15:19:19.190960Z,1697901559190,2.357283529655027,342
1.4115042686462402,1.3238134384155271,-1.0392279624938965,2023-10-21T15:19:19.217558Z,1697901559217,2.196547536058647,343
1.3234004974365234,1.2041916847229004,-1.0274152755737305,2023-10-21T15:19:19.233807Z,1697901559233,2.063261650555561,344
1.2494854927062988,1.1019821166992188,-1.0146722793579102,2023-10-21T15:19:19.267300Z,1697901559267,1.9506763997408103,345
1.1842198371887207,1.011615753173828,-0.9978623390197754,2023-10-21T15:19:19.272081Z,1697901559272,1.8497222230634385,346
1.1237249374389648,0.9299106597900392,-0.9750003814697266,2023-10-21T15:19:19.301459Z,1697901559301,1.754456415554249,347
1.069033145904541,0.8575115203857422,-0.9477620124816896,2023-10-21T15:19:19.333950Z,1697901559333,1.666256494943131,348
1.0216102600097656,0.7946281433105469,-0.9176945686340332,2023-10-21T15:19:19.335969Z,1697901559335,1.5865953267291544,349
0.981642246246338,0.7399802207946777,-0.8852396011352539,2023-10-21T15:19:19.383175Z,1697901559383,1.514873386854822,350
0.945620059967041,0.6900053024291992,-0.8479018211364746,2023-10-21T15:19:19.385152Z,1697901559385,1.4454210851786518,351
0.9080638885498048,0.6406283378601074,-0.8021240234375,2023-10-21T15:19:19.393567Z,1697901559393,1.3705428274713487,352
0.864565372467041,0.5891280174255371,-0.7454056739807129,2023-10-21T15:19:19.433736Z,1697901559433,1.2845912668967738,353
0.813453197479248,0.5349493026733398,-0.6781487464904785,2023-10-21T15:19:19.435750Z,1697901559435,1.1864917122704703,354
0.7553257942199707,0.4791984558105469,-0.6033525466918945,2023-10-21T15:19:19.467114Z,1697901559467,1.078972896353211,355
0.6918354034423828,0.4235801696777344,-0.5251045227050781,2023-10-21T15:19:19.474589Z,1697901559474,0.9663286942680688,356
0.6259479522705078,0.3701429367065429,-0.44805908203125,2023-10-21T15:19:19.494880Z,1697901559494,0.8541507908654491,357
0.5602226257324219,0.3201589584350586,-0.3756098747253418,2023-10-21T15:19:19.516709Z,1697901559516,0.7466149791157004,358
0.4975085258483886,0.2747688293457031,-0.3104128837585449,2023-10-21T15:19:19.535544Z,1697901559535,0.6475869063493647,359
0.4388489723205566,0.2341060638427734,-0.2531881332397461,2023-10-21T15:19:19.555710Z,1697901559555,0.5581203279295539,360
0.3846282958984375,0.1981077194213867,-0.203923225402832,2023-10-21T15:19:19.575960Z,1697901559575,0.4782993585180448,361
0.335153579711914,0.1667008399963379,-0.162372350692749,2023-10-21T15:19:19.600245Z,1697901559600,0.4080219017634764,362
0.2899055480957031,0.1393671035766601,-0.1277434825897216,2023-10-21T15:19:19.616667Z,1697901559616,0.3461023168373307,363
0.2496261596679687,0.1160817146301269,-0.0996580123901367,2023-10-21T15:19:19.636883Z,1697901559636,0.2927796159154545,364
0.2169361114501953,0.0976247787475586,-0.0781843662261962,2023-10-21T15:19:19.657035Z,1697901559657,0.250409003430055,365
0.1947689056396484,0.0848209857940673,-0.0630958080291748,2023-10-21T15:19:19.677254Z,1697901559677,0.2216091316394658,366
0.1839704513549804,0.0775306224822998,-0.0532667636871337,2023-10-21T15:19:19.699973Z,1697901559699,0.206623988220025,367
0.1827888488769531,0.0745999813079834,-0.046966552734375,2023-10-21T15:19:19.717902Z,1697901559717,0.2029354024330498,368
0.1879491806030273,0.0744249820709228,-0.0425050258636474,2023-10-21T15:19:19.738184Z,1697901559738,0.2065687528869647,369
0.1969795227050781,0.0758965015411377,-0.038884162902832,2023-10-21T15:19:19.758348Z,1697901559758,0.2146466618327857,370
0.208104133605957,0.0782358646392822,-0.0355705022811889,2023-10-21T15:19:19.783274Z,1697901559783,0.2251520410129078,371
0.2201976776123047,0.0809278488159179,-0.032266616821289,2023-10-21T15:19:19.800037Z,1697901559799,0.2368068168379373,372
0.2321147918701172,0.0834760665893554,-0.0287709236145019,2023-10-21T15:19:19.819228Z,1697901559819,0.2483410887142315,373
0.2414169311523437,0.0850257873535156,-0.0248251557350158,2023-10-21T15:19:19.839467Z,1697901559839,0.257153276314669,374
0.2454948425292968,0.0847547054290771,-0.0203690528869628,2023-10-21T15:19:19.867110Z,1697901559867,0.2605109903945815,375
0.2406244277954101,0.081531286239624,-0.015481412410736,2023-10-21T15:19:19.883384Z,1697901559883,0.2545331805835681,376
0.2229204177856445,0.0742311477661132,-0.0104565024375915,2023-10-21T15:19:19.916890Z,1697901559916,0.2351874027400876,377
0.1881971359252929,0.0616772174835205,-0.0057517290115356,2023-10-21T15:19:19.920463Z,1697901559920,0.1981295624423947,378
0.1340103149414062,0.0432872772216796,-0.0020006000995635,2023-10-21T15:19:19.951080Z,1697901559951,0.1408423064307021,379
0.0613975524902343,0.0195686817169189,3.192899748682976e-05,2023-10-21T15:19:19.960901Z,1697901559960,0.0644406220903401,380
-0.0238027572631835,-0.0074901580810546,-0.0003796219825744,2023-10-21T15:19:19.984888Z,1697901559984,0.0249563185237501,381
-0.1121273040771484,-0.0348548889160156,-0.0034871697425842,2023-10-21T15:19:20.066079Z,1697901560066,0.11747151124324,382
-0.1930551528930664,-0.0593612194061279,-0.0087262094020843,2023-10-21T15:19:20.068402Z,1697901560068,0.2021637780574866,383
-0.2595510482788086,-0.0791716575622558,-0.0149979591369628,2023-10-21T15:19:20.070149Z,1697901560070,0.2717716629857821,384
-0.3096370697021484,-0.0940713882446289,-0.0213245153427124,2023-10-21T15:19:20.071770Z,1697901560071,0.3243135457772407,385
-0.3433141708374023,-0.1042540073394775,-0.0270677804946899,2023-10-21T15:19:20.082606Z,1697901560082,0.3598140946169585,386
-0.3610601425170898,-0.1098215579986572,-0.0317621231079101,2023-10-21T15:19:20.102916Z,1697901560102,0.3787268588046478,387
-0.3598098754882812,-0.1096091270446777,-0.0345335602760314,2023-10-21T15:19:20.134096Z,1697901560134,0.3777166583773173,388
-0.3379926681518554,-0.1029603481292724,-0.0345724821090698,2023-10-21T15:19:20.143307Z,1697901560143,0.3550142722912603,389
-0.2965965270996094,-0.0901427268981933,-0.0315013527870178,2023-10-21T15:19:20.166535Z,1697901560166,0.3115887455085689,390
-0.2386293411254882,-0.0722119808197021,-0.0256305336952209,2023-10-21T15:19:20.183969Z,1697901560183,0.2506301196532282,391
-0.1700477600097656,-0.0511810779571533,-0.0180637836456298,2023-10-21T15:19:20.204255Z,1697901560204,0.1784994221413368,392
-0.0956621170043945,-0.0286207199096679,-0.0098828673362731,2023-10-21T15:19:20.224398Z,1697901560224,0.1003397095107241,393
-0.0160608291625976,-0.0047724246978759,-0.0015864968299865,2023-10-21T15:19:20.244761Z,1697901560244,0.0168298319385131,394
0.0722131729125976,0.0212709903717041,0.0066596865653991,2023-10-21T15:19:20.266129Z,1697901560266,0.0755747894383253,395
0.17462158203125,0.0509328842163085,0.0144894123077392,2023-10-21T15:19:20.285292Z,1697901560285,0.1824741041208646,396
0.295358657836914,0.0853023529052734,0.0209049582481384,2023-10-21T15:19:20.305493Z,1697901560305,0.3081399770392596,397
0.4339160919189453,0.1243062019348144,0.0243254303932189,2023-10-21T15:19:20.325713Z,1697901560325,0.4520253679048166,398
0.5887041091918945,0.1677145957946777,0.0232407748699188,2023-10-21T15:19:20.349552Z,1697901560349,0.6125690552407528,399
-0.0601210594177246,-0.0505800247192382,0.0171308517456054,2023-10-21T15:14:47.368872Z,1697901287368,0.0804135981512967,400
-0.0877571105957031,-0.0737433433532714,0.0237354040145874,2023-10-21T15:14:47.387782Z,1697901287387,0.1170587910101613,401
-0.130960464477539,-0.1101970672607421,0.0335958003997802,2023-10-21T15:14:47.407962Z,1697901287407,0.1744210844294437,402
-0.193300724029541,-0.1632943153381347,0.046974778175354,2023-10-21T15:14:47.428231Z,1697901287428,0.2573651746385254,403
-0.2727293968200683,-0.2315702438354492,0.0625622272491455,2023-10-21T15:14:47.452270Z,1697901287452,0.3632081138937033,404
-0.3635292053222656,-0.3102235794067383,0.0782161951065063,2023-10-21T15:14:47.468888Z,1697901287468,0.4842622487032268,405
-0.4580230712890625,-0.3926653861999511,0.0916790962219238,2023-10-21T15:14:47.489059Z,1697901287488,0.6102264301361349,406
-0.5472254753112793,-0.4711208343505859,0.1010551452636718,2023-10-21T15:14:47.509264Z,1697901287509,0.7291246147080138,407
-0.6208896636962891,-0.5367369651794434,0.1053071022033691,2023-10-21T15:14:47.529466Z,1697901287529,0.8274540047938621,408
-0.6669402122497559,-0.578911304473877,0.1039084196090698,2023-10-21T15:14:47.552354Z,1697901287552,0.8892381597913182,409
-0.6739950180053711,-0.5877485275268555,0.0968158245086669,2023-10-21T15:14:47.570061Z,1697901287570,0.8994948136489395,410
-0.6347217559814453,-0.5562424659729004,0.0844359993934631,2023-10-21T15:14:47.590371Z,1697901287590,0.8481785345440873,411
-0.545985221862793,-0.4807758331298828,0.0676344633102417,2023-10-21T15:14:47.610594Z,1697901287610,0.730629649577377,412
-0.4104137420654297,-0.3633432388305664,0.0478008389472961,2023-10-21T15:14:47.635507Z,1697901287635,0.550220564032371,413
-0.2388777732849121,-0.2130579948425293,0.0265120863914489,2023-10-21T15:14:47.652137Z,1697901287652,0.3211840445300867,414
-0.0479841232299804,-0.0432319641113281,0.0051435828208923,2023-10-21T15:14:47.671438Z,1697901287671,0.0647914751129227,415
0.1444745063781738,0.1317377090454101,-0.0151538252830505,2023-10-21T15:14:47.691661Z,1697901287691,0.1961054445915751,416
0.3251028060913086,0.3002548217773437,-0.0339272618293762,2023-10-21T15:14:47.711930Z,1697901287711,0.4438421471922495,417
0.4844346046447754,0.4534459114074707,-0.0515304803848266,2023-10-21T15:14:47.735418Z,1697901287735,0.6655414871803129,418
0.6149311065673828,0.5841851234436035,-0.0685612559318542,2023-10-21T15:14:47.752429Z,1697901287752,0.8509483944940242,419
0.7109408378601074,0.6865463256835938,-0.0852210521697998,2023-10-21T15:14:47.772712Z,1697901287772,0.9919906047840386,420
0.7710204124450684,0.7578058242797852,-0.1014212369918823,2023-10-21T15:14:47.792999Z,1697901287792,1.0858307469547412,421
0.8012723922729492,0.8017477989196777,-0.1176464557647705,2023-10-21T15:14:47.813205Z,1697901287813,1.139595396728758,422
0.8138332366943359,0.8284807205200195,-0.13541841506958,2023-10-21T15:14:47.835398Z,1697901287835,1.1692061360434725,423
0.8223857879638672,0.8509402275085449,-0.1568974256515503,2023-10-21T15:14:47.853809Z,1697901287853,1.1937480710825583,424
0.8394293785095215,0.8818621635437012,-0.1846480369567871,2023-10-21T15:14:47.874011Z,1697901287873,1.2314290294397214,425
0.8747282028198242,0.9314537048339844,-0.2213668823242187,2023-10-21T15:14:47.894281Z,1697901287894,1.2968264069054498,426
0.9340696334838868,1.0057125091552734,-0.2692945003509521,2023-10-21T15:14:47.918671Z,1697901287918,1.3987363079534998,427
1.0162529945373535,1.103184700012207,-0.3287603855133056,2023-10-21T15:14:47.935082Z,1697901287935,1.535535744399986,428
1.1105632781982422,1.2123498916625977,-0.3965442180633545,2023-10-21T15:14:47.955079Z,1697901287955,1.6912688643666969,429
1.2025799751281738,1.3169631958007812,-0.4668989181518554,2023-10-21T15:14:47.975328Z,1697901287975,1.8435252250632368,430
1.2790441513061523,1.4017119407653809,-0.5334591865539551,2023-10-21T15:14:47.995565Z,1697901287995,1.971123793573994,431
1.3276724815368652,1.452845573425293,-0.589066743850708,2023-10-21T15:14:48.018652Z,1697901288018,2.0543792510543426,432
1.3366823196411133,1.4574847221374512,-0.6252429485321045,2023-10-21T15:14:48.036135Z,1697901288036,2.074104646249641,433
1.2950897216796875,1.4040837287902832,-0.6335597038269043,2023-10-21T15:14:48.056413Z,1697901288056,2.0124876156059277,434
1.1982855796813965,1.2879886627197266,-0.6093106269836426,2023-10-21T15:14:48.076677Z,1697901288076,1.861736438361276,435
1.0502119064331057,1.115978717803955,-0.5533666610717773,2023-10-21T15:14:48.101757Z,1697901288101,1.6292845695552831,436
0.8614039421081543,0.9027109146118164,-0.4701533317565918,2023-10-21T15:14:48.118580Z,1697901288118,1.3333971284657076,437
0.6458029747009277,0.6654272079467773,-0.365180492401123,2023-10-21T15:14:48.137382Z,1697901288137,0.9966000417613564,438
0.4221882820129394,0.425727367401123,-0.2471461296081543,2023-10-21T15:14:48.157713Z,1697901288157,0.6485121018173975,439
0.2110795974731445,0.2071390151977539,-0.127713918685913,2023-10-21T15:14:48.178051Z,1697901288177,0.3221366373336508,440
0.0323705673217773,0.0307812690734863,-0.0201978683471679,2023-10-21T15:14:48.201761Z,1697901288201,0.0490234029854885,441
-0.1007394790649414,-0.0927133560180664,0.0646038055419921,2023-10-21T15:14:48.218499Z,1697901288218,0.1513864614716785,442
-0.1838231086730957,-0.1640186309814453,0.1204962730407714,2023-10-21T15:14:48.238818Z,1697901288238,0.2742487892552753,443
-0.218841552734375,-0.1899237632751464,0.1455364227294922,2023-10-21T15:14:48.259008Z,1697901288258,0.324258402205222,444
-0.2129316329956054,-0.1805696487426757,0.1424870491027832,2023-10-21T15:14:48.279241Z,1697901288279,0.3134451108874526,445
-0.1786293983459472,-0.1488308906555175,0.119302749633789,2023-10-21T15:14:48.301643Z,1697901288301,0.2613278439755936,446
-0.1333074569702148,-0.1097984313964843,0.0881934165954589,2023-10-21T15:14:48.319776Z,1697901288319,0.1939191902617539,447
-0.0931501388549804,-0.0763182640075683,0.0606007575988769,2023-10-21T15:14:48.340079Z,1697901288340,0.134810524853918,448
-0.0718812942504882,-0.0588841438293457,0.0456175804138183,2023-10-21T15:14:48.360350Z,1697901288360,0.1035143782305217,449
-0.0791611671447753,-0.0650663375854492,0.0485334396362304,2023-10-21T15:14:48.385026Z,1697901288384,0.1133825975775397,450
-0.1215200424194336,-0.1003742218017578,0.0711762905120849,2023-10-21T15:14:48.401308Z,1697901288401,0.1729397855988902,451
-0.1999039649963379,-0.1659259796142578,0.1105387210845947,2023-10-21T15:14:48.421128Z,1697901288421,0.2823328439824634,452
-0.3072161674499511,-0.2562589645385742,0.1586270332336425,2023-10-21T15:14:48.441424Z,1697901288441,0.4303637602325801,453
-0.4308342933654785,-0.3618345260620117,0.2057759761810302,2023-10-21T15:14:48.461639Z,1697901288461,0.5990710850671294,454
-0.5535545349121094,-0.4703578948974609,0.2425804138183593,2023-10-21T15:14:48.484575Z,1697901288484,0.7658357719396627,455
-0.6551051139831543,-0.5671525001525879,0.2612771987915039,2023-10-21T15:14:48.502142Z,1697901288502,0.905036155854863,456
-0.7143645286560059,-0.6353116035461426,0.2572734355926513,2023-10-21T15:14:48.522472Z,1697901288522,0.9900137039778464,457
-0.7138242721557617,-0.6580181121826172,0.2307982444763183,2023-10-21T15:14:48.542764Z,1697901288542,0.9978981697209536,458
-0.6445393562316895,-0.6216483116149902,0.1866755485534668,2023-10-21T15:14:48.562930Z,1697901288562,0.9147269349336262,459
-0.510955810546875,-0.519920825958252,0.1324782371520996,2023-10-21T15:14:48.584679Z,1697901288584,0.7409075441076659,460
-0.3273787498474121,-0.3534498214721679,0.0758558511734008,2023-10-21T15:14:48.603483Z,1697901288603,0.487706604740599,461
-0.1128711700439453,-0.1297450065612793,0.023242712020874,2023-10-21T15:14:48.623769Z,1697901288623,0.1735335455085295,462
0.1165571212768554,0.1430578231811523,-0.0211035013198852,2023-10-21T15:14:48.644018Z,1697901288643,0.1857322294639134,463
0.3480172157287597,0.457834243774414,-0.0544182658195495,2023-10-21T15:14:48.668080Z,1697901288668,0.5776586577477176,464
0.5700454711914062,0.8071532249450684,-0.0745948553085327,2023-10-21T15:14:48.684759Z,1697901288684,0.990965468724091,465
0.7719454765319824,1.180039405822754,-0.0802275538444519,2023-10-21T15:14:48.715690Z,1697901288715,1.4123842531083997,466
0.9445295333862304,1.5605268478393557,-0.0715624988079071,2023-10-21T15:14:48.725087Z,1697901288725,1.8255139751592917,467
1.0831518173217771,1.931968688964844,-0.0517450273036956,2023-10-21T15:14:48.745324Z,1697901288745,2.215490560205271,468
1.1879920959472656,2.276498794555664,-0.0241371244192123,2023-10-21T15:14:48.769019Z,1697901288768,2.567947542770645,469
1.265993595123291,2.58718204498291,0.0055771917104721,2023-10-21T15:14:48.801366Z,1697901288801,2.880326686652492,470
1.3283095359802246,2.8759822845458984,0.0310616493225097,2023-10-21T15:14:48.806081Z,1697901288806,3.168066468756058,471
1.3838999271392822,3.149686813354492,0.0453744828701019,2023-10-21T15:14:48.837469Z,1697901288837,3.4406053063743034,472
1.4349730014801023,3.4151382446289062,0.0407381802797317,2023-10-21T15:14:48.882144Z,1697901288882,3.704588552624478,473
1.4818658828735352,3.649761199951172,0.0137569792568683,2023-10-21T15:14:48.884207Z,1697901288884,3.9391461722017698,474
1.5256943702697754,3.838751792907715,-0.0388307571411132,2023-10-21T15:14:48.887156Z,1697901288887,4.131012765258083,475
1.5669283866882324,3.976106643676758,-0.1150071322917938,2023-10-21T15:14:48.907448Z,1697901288907,4.275267857266702,476
1.608485460281372,4.062891960144043,-0.2098180055618286,2023-10-21T15:14:48.935588Z,1697901288935,4.37473886662937,477
1.6500258445739746,4.104367256164551,-0.3161884546279907,2023-10-21T15:14:48.969484Z,1697901288969,4.434905974209354,478
1.6891968250274658,4.112939834594727,-0.4312301874160766,2023-10-21T15:14:48.971494Z,1697901288971,4.467171305336059,479
1.7214889526367188,4.0919342041015625,-0.5507785081863403,2023-10-21T15:14:48.988664Z,1697901288988,4.473344018720953,480
1.7394211292266846,4.025912284851074,-0.6680910587310791,2023-10-21T15:14:49.008895Z,1697901289008,4.43620347288889,481
1.735985517501831,3.9040002822875977,-0.7746500968933105,2023-10-21T15:14:49.029141Z,1697901289029,4.34222830971548,482
1.7081546783447266,3.706772804260254,-0.8587250709533691,2023-10-21T15:14:49.051198Z,1697901289051,4.170775200731667,483
1.6542696952819824,3.446012496948242,-0.9171993732452391,2023-10-21T15:14:49.069695Z,1697901289069,3.931013233777427,484
1.572463035583496,3.130087852478028,-0.946406364440918,2023-10-21T15:14:49.089822Z,1697901289089,3.628467303030476,485
1.461951732635498,2.769864082336426,-0.946208953857422,2023-10-21T15:14:49.110058Z,1697901289110,3.271813149850294,486
1.3209614753723145,2.374764442443848,-0.9158322811126708,2023-10-21T15:14:49.134637Z,1697901289134,2.8676112260279427,487
1.1506290435791016,1.951838493347168,-0.8530912399291992,2023-10-21T15:14:49.151207Z,1697901289151,2.421029814703536,488
0.953277587890625,1.5099167823791504,-0.7540414333343506,2023-10-21T15:14:49.170919Z,1697901289170,1.9383408710723964,489
0.7321085929870605,1.0666732788085938,-0.6158533096313477,2023-10-21T15:14:49.191150Z,1697901289191,1.4328468775949696,490
0.4916458129882812,0.6468019485473633,-0.4382085800170898,2023-10-21T15:14:49.211409Z,1697901289211,0.9230899878528463,491
0.2405376434326172,0.2796392440795898,-0.2262754440307617,2023-10-21T15:14:49.234800Z,1697901289234,0.4327320664208277,492
-0.0095839500427246,-0.0096015930175781,0.0094742774963378,2023-10-21T15:14:49.251936Z,1697901289251,0.0165470426655115,493
-0.2440147399902343,-0.2045392990112304,0.2529611587524414,2023-10-21T15:14:49.272225Z,1697901289272,0.4066557094273791,494
-0.4519906044006347,-0.304640531539917,0.4912676811218261,2023-10-21T15:14:49.292431Z,1697901289292,0.7337883171856788,495
-0.6251220703125,-0.3163778781890869,0.7121391296386719,2023-10-21T15:14:49.317832Z,1697901289317,0.9990068591164628,496
-0.7529311180114746,-0.2516005039215088,0.8989295959472656,2023-10-21T15:14:49.334401Z,1697901289334,1.199284161703756,497
-0.8298168182373047,-0.1283976435661316,1.0330991744995115,2023-10-21T15:14:49.353245Z,1697901289353,1.3313060546149378,498
-0.8558497428894043,0.0236644297838211,1.107013702392578,2023-10-21T15:14:49.373477Z,1697901289373,1.3994706588298935,499
-0.8433332443237305,0.1787753105163574,1.1291885375976562,2023-10-21T15:14:49.393771Z,1697901289393,1.4206471504471976,500
-0.8007993698120117,0.3186964988708496,1.107557773590088,2023-10-21T15:14:49.417524Z,1697901289417,1.4033999112596829,501
-0.7368359565734863,0.4318950176239013,1.053640842437744,2023-10-21T15:14:49.434316Z,1697901289434,1.3563257565942015,502
-0.6567745208740234,0.510504961013794,0.9725680351257324,2023-10-21T15:14:49.454613Z,1697901289454,1.2797877439002634,503
-0.5680227279663086,0.5511584281921387,0.8686304092407227,2023-10-21T15:14:49.475900Z,1697901289475,1.1751358305792658,504
-0.4764389991760254,0.5523138046264648,0.7464752197265625,2023-10-21T15:14:49.495048Z,1697901289495,1.0436809437671233,505
-0.3892078399658203,0.5191750526428223,0.618070125579834,2023-10-21T15:14:49.517602Z,1697901289517,0.8961228476675553,506
-0.3072865009307861,0.4568376541137695,0.4886369705200195,2023-10-21T15:14:49.535629Z,1697901289535,0.7361329532288582,507
-0.2347054481506347,0.379434585571289,0.3719382286071777,2023-10-21T15:14:49.555921Z,1697901289555,0.5808573818233623,508
-0.1674177646636963,0.2889537811279297,0.2632203102111816,2023-10-21T15:14:49.576141Z,1697901289576,0.4252151540817742,509
-0.1030828952789306,0.1871700286865234,0.1603164672851562,2023-10-21T15:14:49.600836Z,1697901289600,0.2671330616385653,510
-0.0409028530120849,0.0771522521972656,0.0626115798950195,2023-10-21T15:14:49.617735Z,1697901289617,0.1074510276385903,511
0.0208134651184082,-0.0402722358703613,-0.0310859680175781,2023-10-21T15:14:49.636923Z,1697901289636,0.0549671785688796,512
0.0815100669860839,-0.1599197387695312,-0.1176962852478027,2023-10-21T15:14:49.657181Z,1697901289657,0.2146406984458519,513
0.1404058933258056,-0.2763562202453613,-0.1943697929382324,2023-10-21T15:14:49.677353Z,1697901289677,0.3658772905712671,514
0.1975092887878418,-0.3860673904418945,-0.2601680755615234,2023-10-21T15:14:49.700752Z,1697901289700,0.5057127412489029,515
0.2527265548706054,-0.485940933227539,-0.3145813941955566,2023-10-21T15:14:49.718028Z,1697901289717,0.6316413188644618,516
0.3053274154663086,-0.5727109909057617,-0.3568401336669922,2023-10-21T15:14:49.738289Z,1697901289738,0.7406467381519155,517
0.3543224334716797,-0.6438322067260742,-0.3864860534667969,2023-10-21T15:14:49.758514Z,1697901289758,0.8303226883588085,518
0.3967962265014648,-0.6938934326171875,-0.4017238616943359,2023-10-21T15:14:49.778656Z,1697901289778,0.8946046066557422,519
0.4298210144042969,-0.7182445526123047,-0.4014816284179687,2023-10-21T15:14:49.800319Z,1697901289800,0.9283365982971544,520
0.4528012275695801,-0.7174358367919922,-0.3877725601196289,2023-10-21T15:14:49.819324Z,1697901289819,0.9327972394811618,521
0.4670062065124511,-0.6963434219360352,-0.364495038986206,2023-10-21T15:14:49.851178Z,1697901289851,0.9142459142048672,522
0.4731016159057617,-0.6596288681030273,-0.3351330757141113,2023-10-21T15:14:49.859737Z,1697901289859,0.8782081535974966,523
0.469057559967041,-0.6080751419067383,-0.3011729717254638,2023-10-21T15:14:49.900494Z,1697901289900,0.8249094081564843,524
0.4507784843444824,-0.5403661727905273,-0.2625465393066406,2023-10-21T15:14:49.902504Z,1697901289902,0.7510842349204809,525
0.4180970191955566,-0.4608383178710937,-0.2211918830871582,2023-10-21T15:14:49.933799Z,1697901289933,0.6603808914725742,526
0.3723607063293457,-0.3752388954162597,-0.1792972087860107,2023-10-21T15:14:49.941928Z,1697901289941,0.5582152034204714,527
0.3156929016113281,-0.2891483306884765,-0.1387684345245361,2023-10-21T15:14:49.968183Z,1697901289968,0.4500282698765742,528
0.2524900436401367,-0.2089796066284179,-0.1017329692840576,2023-10-21T15:14:50.014853Z,1697901290014,0.3431811404540136,529
0.187408447265625,-0.1394171714782714,-0.0696296691894531,2023-10-21T15:14:50.016988Z,1697901290016,0.2437362604147092,530
0.1213812828063964,-0.0807061195373535,-0.041907787322998,2023-10-21T15:14:50.021898Z,1697901290021,0.1516679141572587,531
0.0541763305664062,-0.0319786071777343,-0.0175325870513916,2023-10-21T15:14:50.042241Z,1697901290042,0.0653077156190827,532
-0.0126237869262695,0.0065598487854003,0.003861665725708,2023-10-21T15:14:50.068085Z,1697901290068,0.0147412372148432,533
-0.0763654708862304,0.0345983505249023,0.0222277641296386,2023-10-21T15:14:50.100578Z,1697901290100,0.0867341022950174,534
-0.1344823837280273,0.052563190460205,0.03749680519104,2023-10-21T15:14:50.102934Z,1697901290102,0.1491791236201063,535
-0.1902952194213867,0.0633080005645752,0.0512490272521972,2023-10-21T15:14:50.123272Z,1697901290123,0.2069942904150122,536
-0.245884895324707,0.0683746337890625,0.0645697116851806,2023-10-21T15:14:50.143533Z,1697901290143,0.2632559970100166,537
-0.3027429580688476,0.0686919689178466,0.0782561302185058,2023-10-21T15:14:50.167033Z,1697901290166,0.3201498198826014,538
-0.3640022277832031,0.0652154684066772,0.0934393405914306,2023-10-21T15:14:50.184066Z,1697901290184,0.3814204891203389,539
-0.4318761825561523,0.0580823421478271,0.1110789775848388,2023-10-21T15:14:50.204335Z,1697901290204,0.4496989379462057,540
-0.5036468505859375,0.0463657975196838,0.1310329437255859,2023-10-21T15:14:50.224575Z,1697901290224,0.5224744679179668,541
-0.5707406997680664,0.0290510952472686,0.1517691612243652,2023-10-21T15:14:50.244766Z,1697901290244,0.5912890924121257,542
-0.6236057281494141,0.0062988698482513,0.1712775230407714,2023-10-21T15:14:50.266966Z,1697901290266,0.646730059484719,543
-0.6548070907592773,-0.020269751548767,0.1874668598175048,2023-10-21T15:14:50.285386Z,1697901290285,0.6814154477749336,544
-0.6586370468139648,-0.0478298664093017,0.1979138851165771,2023-10-21T15:14:50.305637Z,1697901290305,0.6893912977971873,545
-0.6311674118041992,-0.0726945400238037,0.1999027729034423,2023-10-21T15:14:50.325860Z,1697901290325,0.6660464822273061,546
-0.5706663131713867,-0.0905259847640991,0.190732717514038,2023-10-21T15:14:50.350144Z,1697901290350,0.6084685402191496,547
-0.4791126251220703,-0.0970642566680908,0.1687734127044677,2023-10-21T15:14:50.367129Z,1697901290367,0.5171603642099838,548
-0.3611612319946289,-0.0889005661010742,0.133624792098999,2023-10-21T15:14:50.386844Z,1697901290386,0.3952168154475089,549
-0.2242507934570312,-0.0645947456359863,0.0866999626159668,2023-10-21T15:14:50.407078Z,1697901290407,0.2489533752482498,550
-0.0795001983642578,-0.0260274410247802,0.0319292545318603,2023-10-21T15:14:50.427268Z,1697901290427,0.089538743129525,551
0.0592536926269531,0.0215559005737304,-0.0245678424835205,2023-10-21T15:14:50.449868Z,1697901290449,0.0676700511583156,552
0.1785268783569336,0.0708892345428466,-0.0759568214416503,2023-10-21T15:14:50.467766Z,1697901290467,0.2065588744001593,553
0.2699174880981445,0.1152775287628173,-0.1171679496765136,2023-10-21T15:14:50.488047Z,1697901290488,0.3160264030904256,554
0.330453872680664,0.1499247550964355,-0.1456077098846435,2023-10-21T15:14:50.508314Z,1697901290508,0.3909971858443806,555
0.3608503341674804,0.1719241142272949,-0.1606624126434326,2023-10-21T15:14:50.533014Z,1697901290532,0.4307937738153035,556
0.3645906448364258,0.1804728507995605,-0.1634242534637451,2023-10-21T15:14:50.549737Z,1697901290549,0.4384110796936404,557
0.3492593765258789,0.1779217720031738,-0.157233715057373,2023-10-21T15:14:50.569083Z,1697901290569,0.4223277284227714,558
0.3247432708740234,0.169008731842041,-0.1467559337615966,2023-10-21T15:14:50.589330Z,1697901290589,0.3944102527965676,559
-0.0251631736755371,-0.0125691890716552,0.0136857032775878,2023-10-21T15:15:57.740957Z,1697901357740,0.0312804778983064,560
-0.0058283805847167,-0.0028591156005859,0.002964973449707,2023-10-21T15:15:57.758849Z,1697901357758,0.0071369201911807,561
0.0232524871826171,0.0110864639282226,-0.0110783576965332,2023-10-21T15:15:57.779143Z,1697901357779,0.028041359665,562
0.0624094009399414,0.0286650657653808,-0.0279040336608886,2023-10-21T15:15:57.799447Z,1697901357799,0.0741299832427066,563
0.1129426956176757,0.0496325492858886,-0.0475783348083496,2023-10-21T15:15:57.819671Z,1697901357819,0.1322238268434948,564
0.1650304794311523,0.0693559646606445,-0.0660395622253418,2023-10-21T15:15:57.840993Z,1697901357840,0.190804959983223,565
0.2183570861816406,0.0879774093627929,-0.0836670398712158,2023-10-21T15:15:57.861077Z,1697901357861,0.2498399791961576,566
0.2761383056640625,0.1069028377532959,-0.1017234325408935,2023-10-21T15:15:57.880450Z,1697901357880,0.3130946139789511,567
-0.2123169898986816,0.0727946758270263,0.1702589988708496,2023-10-21T15:16:01.954422Z,1697901361954,0.2817191788375486,568
-0.2178049087524414,0.0753304958343505,0.1804847717285156,2023-10-21T15:16:01.973717Z,1697901361973,0.2927258353907335,569
-0.2328858375549316,0.0803492069244384,0.1988625526428222,2023-10-21T15:16:01.993978Z,1697901361993,0.3166040480326609,570
-0.2581634521484375,0.0878491401672363,0.226654052734375,2023-10-21T15:16:02.014232Z,1697901362014,0.3545954019361195,571
-0.2883358001708984,0.0957334041595459,0.2592935562133789,2023-10-21T15:16:02.034423Z,1697901362034,0.399419036384031,572
-0.3201971054077148,0.1027584075927734,0.2934799194335937,2023-10-21T15:16:02.054696Z,1697901362054,0.4463361286667598,573
-0.3501548767089844,0.1077220439910888,0.3246116638183594,2023-10-21T15:16:02.075001Z,1697901362074,0.4894744209165844,574
-0.3703508377075195,0.1085669994354248,0.3440203666687011,2023-10-21T15:16:02.095295Z,1697901362095,0.5170073007607732,575
-0.3804855346679687,0.1056426763534545,0.3511500358581543,2023-10-21T15:16:02.115471Z,1697901362115,0.5284278236825477,576
-0.3838405609130859,0.1002326011657714,0.3502054214477539,2023-10-21T15:16:02.137522Z,1697901362137,0.529172928020631,577
-0.3895092010498047,0.0945696830749511,0.3503270149230957,2023-10-21T15:16:02.156036Z,1697901362155,0.532343742373554,578
-0.3997645378112793,0.0886844396591186,0.3528757095336914,2023-10-21T15:16:02.176327Z,1697901362176,0.5405533108843417,579
-0.4104900360107422,0.0814243555068969,0.3528914451599121,2023-10-21T15:16:02.196537Z,1697901362196,0.5474160825193806,580
-0.4221425056457519,0.0728793144226074,0.3504533767700195,2023-10-21T15:16:02.216723Z,1697901362216,0.5534738104310737,581
-0.4383144378662109,0.0635585784912109,0.3487462997436523,2023-10-21T15:16:02.237513Z,1697901362237,0.5637226453910515,582
-0.4605045318603515,0.0533249378204345,0.3486614227294922,2023-10-21T15:16:02.257335Z,1697901362257,0.5800627212269621,583
-0.4904332160949707,0.0417485833168029,0.3509650230407715,2023-10-21T15:16:02.277638Z,1697901362277,0.6045197524119668,584
-0.530397891998291,0.0280334949493408,0.3564767837524414,2023-10-21T15:16:02.297923Z,1697901362297,0.6396745250748933,585
-0.5808048248291016,0.0109888017177581,0.3645625114440918,2023-10-21T15:16:02.320893Z,1697901362320,0.6858285668141705,586
-0.6379551887512207,-0.0103896707296371,0.3721308708190918,2023-10-21T15:16:02.338477Z,1697901362338,0.7386312700725928,587
-0.696113109588623,-0.0362865328788757,0.375643253326416,2023-10-21T15:16:02.358917Z,1697901362358,0.7918320703148907,588
-0.7459392547607422,-0.0652506351470947,0.369974136352539,2023-10-21T15:16:02.378957Z,1697901362378,0.8352028967561822,589
-0.7738218307495117,-0.0934726595878601,0.350346565246582,2023-10-21T15:16:02.399175Z,1697901362399,0.8545642630107062,590
-0.7779083251953125,-0.1180990934371948,0.3201615810394287,2023-10-21T15:16:02.420783Z,1697901362420,0.8494658299499339,591
-0.7644023895263672,-0.1383213996887207,0.2864069938659668,2023-10-21T15:16:02.439724Z,1697901362439,0.827932840791333,592
-0.7428522109985352,-0.1553152799606323,0.2545771598815918,2023-10-21T15:16:02.460030Z,1697901362459,0.8004759671020981,593
-0.7088413238525391,-0.1670186519622802,0.2228662967681884,2023-10-21T15:16:02.480237Z,1697901362480,0.7615908604621537,594
-0.6485280990600586,-0.167717695236206,0.1870803833007812,2023-10-21T15:16:02.500434Z,1697901362500,0.6954976566328354,595
-0.5594406127929688,-0.1550295352935791,0.1480798721313476,2023-10-21T15:16:02.520777Z,1697901362520,0.5991123472154047,596
-0.446929931640625,-0.1302809715270996,0.1086978912353515,2023-10-21T15:16:02.541069Z,1697901362541,0.4780530586633151,597
-0.315861701965332,-0.0955061912536621,0.0707268714904785,2023-10-21T15:16:02.561316Z,1697901362561,0.3374793885366156,598
-0.1753559112548828,-0.0544972419738769,0.0363256931304931,2023-10-21T15:16:02.581555Z,1697901362581,0.1871876090348941,599
-0.0373697280883789,-0.0118930339813232,0.0071967840194702,2023-10-21T15:16:02.604079Z,1697901362604,0.0398714752034983,600
0.095219612121582,0.0309562683105468,-0.0170987844467163,2023-10-21T15:16:02.622194Z,1697901362622,0.1015747680767933,601
0.2289180755615234,0.07574462890625,-0.0382546186447143,2023-10-21T15:16:02.642429Z,1697901362642,0.244139611645856,602
0.3719205856323242,0.1245172023773193,-0.0577458143234252,2023-10-21T15:16:02.662659Z,1697901362662,0.3964391942995052,603
0.5184383392333984,0.1747894287109375,-0.0751751661300659,2023-10-21T15:16:02.682882Z,1697901362682,0.5522508140137624,604
0.6524877548217773,0.2213902473449707,-0.0895309448242187,2023-10-21T15:16:02.703907Z,1697901362703,0.6948163080217307,605
0.7665510177612305,0.2619490623474121,-0.1012266874313354,2023-10-21T15:16:02.723600Z,1697901362723,0.8163728415030647,606
0.8601503372192383,0.2960658073425293,-0.1113185882568359,2023-10-21T15:16:02.743747Z,1697901362743,0.916463525181034,607
0.9327840805053712,0.3233048915863037,-0.1207165718078613,2023-10-21T15:16:02.763940Z,1697901362763,0.9945776412512624,608
0.984294891357422,0.3433446884155273,-0.130196213722229,2023-10-21T15:16:02.787324Z,1697901362787,1.0505584525779987,609
1.0155601501464844,0.3561468124389648,-0.1402485370635986,2023-10-21T15:16:02.804499Z,1697901362804,1.0852984026176693,610
1.0296497344970703,0.362398624420166,-0.1509826183319091,2023-10-21T15:16:02.824770Z,1697901362824,1.1019560289638943,611
1.0301647186279297,0.3629813194274902,-0.1621452569961547,2023-10-21T15:16:02.845010Z,1697901362844,1.1042127829931296,612
1.0201940536499023,0.3586738109588623,-0.173213243484497,2023-10-21T15:16:02.865239Z,1697901362865,1.0951920550701568,613
1.0030813217163086,0.3505539894104004,-0.1837618350982666,2023-10-21T15:16:02.887162Z,1697901362887,1.0783453294313312,614
0.9815149307250975,0.3396925926208496,-0.1933919191360473,2023-10-21T15:16:02.905841Z,1697901362905,1.0564861812181412,615
0.9570140838623048,0.3269991874694824,-0.2016713619232177,2023-10-21T15:16:02.926094Z,1697901362926,1.031249612623672,616
0.9304265975952148,0.3133206367492676,-0.2082190513610839,2023-10-21T15:16:02.946301Z,1697901362946,1.003602833931473,617
0.9005632400512695,0.2989351749420166,-0.2124130725860595,2023-10-21T15:16:02.966516Z,1697901362966,0.9723660327030688,618
0.8661317825317383,0.2840187549591064,-0.2138037681579589,2023-10-21T15:16:02.987119Z,1697901362987,0.9362494161059164,619
0.825709342956543,0.2685391902923584,-0.2119684219360351,2023-10-21T15:16:03.007125Z,1697901363007,0.8937783996420222,620
0.7779865264892578,0.2522351741790771,-0.2065427303314209,2023-10-21T15:16:03.027435Z,1697901363027,0.8435315749542088,621
0.7218952178955078,0.2347238063812255,-0.1972997188568115,2023-10-21T15:16:03.047607Z,1697901363047,0.7843182708336397,622
0.6570215225219727,0.2156958580017089,-0.1842603683471679,2023-10-21T15:16:03.070171Z,1697901363070,0.7156492629491198,623
0.5839748382568359,0.1949732303619384,-0.1677775382995605,2023-10-21T15:16:03.088212Z,1697901363088,0.6381147817068084,624
0.5054750442504883,0.1728303432464599,-0.1487846374511718,2023-10-21T15:16:03.108475Z,1697901363108,0.5545378402311234,625
0.4256362915039062,0.1498677730560302,-0.1284878253936767,2023-10-21T15:16:03.128702Z,1697901363128,0.4691862352204803,626
0.3475675582885742,0.1264951229095459,-0.1077570915222168,2023-10-21T15:16:03.148957Z,1697901363148,0.3852477312949551,627
0.2738161087036133,0.103179931640625,-0.0872802734375,2023-10-21T15:16:03.170349Z,1697901363170,0.305350955148789,628
0.2057952880859375,0.0803065299987793,-0.0674619674682617,2023-10-21T15:16:03.189513Z,1697901363189,0.2309804243080085,629
0.1451015472412109,0.0585811138153076,-0.0488913059234619,2023-10-21T15:16:03.209802Z,1697901363209,0.1639407383859696,630
0.0944471359252929,0.0393829345703125,-0.0326666831970214,2023-10-21T15:16:03.230004Z,1697901363229,0.1074168944391655,631
0.0559902191162109,0.0240638256072998,-0.0198419094085693,2023-10-21T15:16:03.250261Z,1697901363250,0.064091135959021,632
0.0305366516113281,0.0134952068328857,-0.0110604763031005,2023-10-21T15:16:03.270557Z,1697901363270,0.0351701838941089,633
0.0173873901367187,0.0078802108764648,-0.0064175128936767,2023-10-21T15:16:03.290840Z,1697901363290,0.0201396010626954,634
0.0150432586669921,0.0069718360900878,-0.0056362152099609,2023-10-21T15:16:03.311082Z,1697901363311,0.0175120830195062,635
0.0217752456665039,0.010293960571289,-0.008254051208496,2023-10-21T15:16:03.331346Z,1697901363331,0.0254608780177024,636
0.0360097885131835,0.0173192024230957,-0.0137672424316406,2023-10-21T15:16:03.353422Z,1697901363353,0.0422634192358821,637
-0.9259004592895508,-0.1586440801620483,0.1207746267318725,2023-10-21T15:16:07.424613Z,1697901367424,0.9471251845164328,638
-0.7818021774291992,-0.1542685031890869,0.0864799618721008,2023-10-21T15:16:07.444803Z,1697901367444,0.8015561112702208,639
-0.6212749481201172,-0.1368751525878906,0.0579530000686645,2023-10-21T15:16:07.467276Z,1697901367467,0.6388082018685822,640
-0.4516763687133789,-0.1086921691894531,0.035547912120819,2023-10-21T15:16:07.485395Z,1697901367485,0.4659283032327639,641
-0.2838115692138672,-0.0734665393829345,0.0192192196846008,2023-10-21T15:16:07.505691Z,1697901367505,0.2937953669373071,642
-0.1361207962036132,-0.0376677513122558,0.008280873298645,2023-10-21T15:16:07.525915Z,1697901367525,0.1414789861096543,643
-0.0125494003295898,-0.0037038326263427,0.0007189512252807,2023-10-21T15:16:07.546215Z,1697901367546,0.0131043014167334,644
-0.4495925903320312,0.1464071273803711,0.2496633529663086,2023-10-21T15:16:11.619189Z,1697901371619,0.5346964877793919,645
-0.5566587448120117,0.1823995113372802,0.3225221633911133,2023-10-21T15:16:11.639448Z,1697901371639,0.6686995482204597,646
-0.6672530174255371,0.2180936336517334,0.4013171195983886,2023-10-21T15:16:11.659620Z,1697901371659,0.8086079722496236,647
-0.7762699127197266,0.2509026527404785,0.4808378219604492,2023-10-21T15:16:11.680932Z,1697901371680,0.9469699728997588,648
-0.8773002624511719,0.2772877216339111,0.5553832054138184,2023-10-21T15:16:11.700218Z,1697901371700,1.0747068139365024,649
-0.9754691123962402,0.2977433204650879,0.6268157958984375,2023-10-21T15:16:11.720530Z,1697901371720,1.1971170018458832,650
-1.0741066932678225,0.3128306865692138,0.6977500915527344,2023-10-21T15:16:11.740749Z,1697901371740,1.318492858245334,651
-1.188249588012695,0.3253005743026733,0.7768855094909668,2023-10-21T15:16:11.760921Z,1697901371760,1.4564712980045391,652
-1.3157014846801758,0.3335694074630737,0.8597030639648438,2023-10-21T15:16:11.781274Z,1697901371781,1.6066823906968748,653
-1.4496617317199707,0.3334939479827881,0.9389824867248536,2023-10-21T15:16:11.801577Z,1697901371801,1.7590979108993563,654
-1.5862936973571775,0.322576642036438,1.009904861450195,2023-10-21T15:16:11.821852Z,1697901371821,1.907954719966736,655
-1.718177318572998,0.2996766567230224,1.0651440620422363,2023-10-21T15:16:11.842111Z,1697901371842,2.043641668577743,656
-1.839415073394776,0.2647587060928345,1.1000688076019287,2023-10-21T15:16:11.864156Z,1697901371864,2.159559299056775,657
-1.9473605155944824,0.2193183898925781,1.114222764968872,2023-10-21T15:16:11.882754Z,1697901371882,2.2542861184455623,658
-2.036616802215576,0.1650869846343994,1.1066150665283203,2023-10-21T15:16:11.903026Z,1697901371902,2.3237165526436216,659
-2.0987682342529297,0.1047904789447784,1.0754845142364502,2023-10-21T15:16:11.923278Z,1697901371923,2.360609261599439,660
-2.126297950744629,0.0418146848678588,1.021714448928833,2023-10-21T15:16:11.943386Z,1697901371943,2.3594049797271675,661
-2.1178994178771973,-0.0203012600541114,0.9478316307067872,2023-10-21T15:16:11.964048Z,1697901371964,2.32040834457486,662
-2.063164710998535,-0.0753644406795501,0.8521237373352051,2023-10-21T15:16:11.983912Z,1697901371983,2.2334823230459486,663
-1.9499316215515137,-0.1188112497329711,0.7386233806610107,2023-10-21T15:16:12.004209Z,1697901372004,2.0885195570663746,664
-1.7842679023742676,-0.1481926441192627,0.618776798248291,2023-10-21T15:16:12.024414Z,1697901372024,1.8943224998042263,665
-1.580759048461914,-0.1633272171020507,0.505103349685669,2023-10-21T15:16:12.047446Z,1697901372047,1.6675144206285593,666
-1.3611078262329102,-0.1674085855484008,0.40303635597229,2023-10-21T15:16:12.064953Z,1697901372064,1.4293629536906352,667
-1.1238470077514648,-0.1584359407424926,0.3088290691375732,2023-10-21T15:16:12.085280Z,1697901372085,1.176226780045098,668
-0.865203857421875,-0.1361745595932006,0.2209117412567138,2023-10-21T15:16:12.105473Z,1697901372105,0.9032846854691868,669
-0.5942697525024414,-0.1027114391326904,0.1415038108825683,2023-10-21T15:16:12.125710Z,1697901372125,0.61945904381348,670
-0.320744514465332,-0.0600906610488891,0.0716414451599121,2023-10-21T15:16:12.147176Z,1697901372147,0.3340964348350558,671
-0.049560546875,-0.0099532604217529,0.0105040073394775,2023-10-21T15:16:12.166272Z,1697901372166,0.0516299270749059,672
0.2045373916625976,0.0437989234924316,-0.0418180227279663,2023-10-21T15:16:12.186597Z,1697901372186,0.2133134719423774,673
0.4276399612426758,0.097156286239624,-0.0855475664138794,2023-10-21T15:16:12.206802Z,1697901372206,0.4468038345032975,674
0.6211299896240234,0.1488206386566162,-0.1230652332305908,2023-10-21T15:16:12.227039Z,1697901372227,0.6504576067128451,675
0.7924537658691406,0.1990058422088623,-0.1564148664474487,2023-10-21T15:16:12.247325Z,1697901372247,0.8318965721285396,676
0.9540567398071288,0.248737096786499,-0.1891932487487793,2023-10-21T15:16:12.267645Z,1697901372267,1.003936497723487,677
1.102130889892578,0.2965795993804931,-0.2220838069915771,2023-10-21T15:16:12.287895Z,1697901372287,1.1627438129493408,678
1.2294940948486328,0.3394606113433838,-0.2542557716369629,2023-10-21T15:16:12.308125Z,1697901372308,1.3005903403193453,679
1.337320327758789,0.376333475112915,-0.2860491275787353,2023-10-21T15:16:12.330573Z,1697901372330,1.4184063758020808,680
1.4256792068481443,0.4068310260772705,-0.317385196685791,2023-10-21T15:16:12.348649Z,1697901372348,1.5161814032936551,681
1.4935235977172852,0.4303560256958008,-0.3476119041442871,2023-10-21T15:16:12.368951Z,1697901372368,1.5926873772633112,682
1.5433721542358398,0.447476863861084,-0.3766984939575195,2023-10-21T15:16:12.389196Z,1697901372389,1.6504953515570384,683
1.576674461364746,0.4587128162384033,-0.4041523933410644,2023-10-21T15:16:12.409455Z,1697901372409,1.691052619507888,684
1.5937976837158203,0.4644820690155029,-0.4290878772735595,2023-10-21T15:16:12.430684Z,1697901372430,1.7146577079633023,685
1.5954265594482422,0.4652121067047119,-0.4507002830505371,2023-10-21T15:16:12.450076Z,1697901372450,1.72189981008168,686
1.5824432373046875,0.461235761642456,-0.4683094024658203,2023-10-21T15:16:12.470308Z,1697901372470,1.7135281507892215,687
1.5547704696655271,0.4526638984680176,-0.481119155883789,2023-10-21T15:16:12.490562Z,1697901372490,1.6892872640491188,688
1.510777473449707,0.4395270347595215,-0.4879467487335205,2023-10-21T15:16:12.514027Z,1697901372513,1.6473386470811615,689
1.448835372924805,0.4219632148742676,-0.4874560832977295,2023-10-21T15:16:12.531066Z,1697901372531,1.585809044522432,690
1.370309829711914,0.4004504680633545,-0.4791648387908935,2023-10-21T15:16:12.551329Z,1697901372551,1.5058912807738671,691
1.277252197265625,0.3754353523254394,-0.4630403518676758,2023-10-21T15:16:12.571583Z,1697901372571,1.4095145429023903,692
1.170427322387695,0.3469383716583252,-0.438788890838623,2023-10-21T15:16:12.591830Z,1697901372591,1.2972286003029492,693
1.0513219833374023,0.3150806427001953,-0.4064970016479492,2023-10-21T15:16:12.613745Z,1697901372613,1.1703817908706673,694
0.922419548034668,0.2800989151000976,-0.3667993545532226,2023-10-21T15:16:12.632369Z,1697901372632,1.0314334643288403,695
0.7875080108642578,0.2427308559417724,-0.3211655616760254,2023-10-21T15:16:12.652652Z,1697901372652,0.8844401922166826,696
0.6520528793334961,0.2044360637664795,-0.2719612121582031,2023-10-21T15:16:12.672879Z,1697901372672,0.7354794100000313,697
0.5226726531982422,0.1671783924102783,-0.2222647666931152,2023-10-21T15:16:12.693074Z,1697901372693,0.5920616047366354,698
0.4067497253417969,0.1331715583801269,-0.1756594181060791,2023-10-21T15:16:12.713657Z,1697901372713,0.4626405021140984,699
0.3106451034545898,0.1044280529022216,-0.13558030128479,2023-10-21T15:16:12.733698Z,1697901372733,0.3546654996327334,700
0.2380800247192382,0.0823726654052734,-0.1044421195983886,2023-10-21T15:16:12.753987Z,1697901372753,0.2727187388546784,701
0.1900711059570312,0.0677824020385742,-0.0833091735839843,2023-10-21T15:16:12.774171Z,1697901372774,0.2183160501408321,702
0.1657218933105468,0.0609538555145263,-0.0721356868743896,2023-10-21T15:16:12.797019Z,1697901372796,0.1907424329963262,703
0.1622371673583984,0.0615434646606445,-0.0697124004364013,2023-10-21T15:16:12.814738Z,1697901372814,0.1869981692143485,704
0.1750097274780273,0.0684390068054199,-0.073817491531372,2023-10-21T15:16:12.835022Z,1697901372834,0.2018943397434159,705
0.1981334686279297,0.0797853469848632,-0.0816056728363037,2023-10-21T15:16:12.855268Z,1697901372855,0.2286527035114513,706
0.2255811691284179,0.0933918952941894,-0.0903193950653076,2023-10-21T15:16:12.875493Z,1697901372875,0.2603200013386367,707
0.2512073516845703,0.1067359447479248,-0.0974376201629638,2023-10-21T15:16:12.897348Z,1697901372897,0.2898133628123959,708
0.2702569961547851,0.1176350116729736,-0.1013481616973877,2023-10-21T15:16:12.916068Z,1697901372916,0.3116862040921093,709
0.279057502746582,0.1241946220397949,-0.1011068820953369,2023-10-21T15:16:12.936339Z,1697901372936,0.3217452339814942,710
0.2749710083007812,0.1249139308929443,-0.0963008403778076,2023-10-21T15:16:12.956596Z,1697901372956,0.3169958949175013,711
0.2577486038208008,0.1193780899047851,-0.087376594543457,2023-10-21T15:16:12.976756Z,1697901372976,0.2971870461424905,712
0.2290182113647461,0.1080784797668457,-0.0753188133239746,2023-10-21T15:16:12.997113Z,1697901372997,0.2642029949980728,713
0.1925992965698242,0.0925793647766113,-0.0616216659545898,2023-10-21T15:16:13.017467Z,1697901373017,0.2224020178340363,714
0.1538639068603515,0.0752983093261718,-0.0480365753173828,2023-10-21T15:16:13.037644Z,1697901373037,0.1779085433303678,715
0.1185274124145507,0.0590176582336425,-0.0362110137939453,2023-10-21T15:16:13.057898Z,1697901373057,0.137270058632818,716
0.0905017852783203,0.0458106994628906,-0.0271134376525878,2023-10-21T15:16:13.079886Z,1697901373079,0.1049968181669484,717
0.071751594543457,0.0368866920471191,-0.021101951599121,2023-10-21T15:16:13.098434Z,1697901373098,0.0833919164607655,718
0.0624275207519531,0.0325541496276855,-0.0180220603942871,2023-10-21T15:16:13.118746Z,1697901373118,0.0726757364329567,719
0.062108039855957,0.032806396484375,-0.0175831317901611,2023-10-21T15:16:13.139032Z,1697901373138,0.0724074221926822,720
0.0705547332763671,0.0376820564270019,-0.0195674896240234,2023-10-21T15:16:13.159214Z,1697901373159,0.0823455792040673,721
0.0858697891235351,0.0462832450866699,-0.0233187675476074,2023-10-21T15:16:13.179897Z,1697901373179,0.1002971803183543,722
0.1042680740356445,0.0566043853759765,-0.0277349948883056,2023-10-21T15:16:13.199745Z,1697901373199,0.1218405418912319,723
0.1198654174804687,0.0654177665710449,-0.0312845706939697,2023-10-21T15:16:13.220028Z,1697901373219,0.1400925653074307,724
0.1268196105957031,0.0694513320922851,-0.0325722694396972,2023-10-21T15:16:13.240342Z,1697901373240,0.1482148909438281,725
0.1215801239013671,0.0666680335998535,-0.0308623313903808,2023-10-21T15:16:13.263201Z,1697901373263,0.1420522324034109,726
0.1039495468139648,0.0569415092468261,-0.0262215137481689,2023-10-21T15:16:13.280800Z,1697901373280,0.1213895034234033,727
0.0765743255615234,0.0417909622192382,-0.0193097591400146,2023-10-21T15:16:13.301118Z,1697901373301,0.0893475162299285,728
0.0432643890380859,0.0234575271606445,-0.0109679698944091,2023-10-21T15:16:13.321348Z,1697901373321,0.0504218137608702,729
0.0088090896606445,0.0047292709350585,-0.0022530555725097,2023-10-21T15:16:13.341624Z,1697901373341,0.0102490157400249,730
-0.0216732025146484,-0.0114779472351074,0.0055956840515136,2023-10-21T15:16:13.363196Z,1697901373363,0.0251551716348196,731
-0.042891502380371,-0.0222992897033691,0.0111503601074218,2023-10-21T15:16:13.382160Z,1697901373382,0.0496111865232564,732
-0.0489044189453125,-0.0248074531555175,0.0127177238464355,2023-10-21T15:16:13.402472Z,1697901373402,0.0562920280703762,733
-0.034193992614746,-0.0168046951293945,0.0088145732879638,2023-10-21T15:16:13.422684Z,1697901373422,0.0391065673714541,734
0.0068521499633789,0.0032377243041992,-0.001732587814331,2023-10-21T15:16:13.442902Z,1697901373442,0.0077741030559804,735
0.0786151885986328,0.0354406833648681,-0.0192263126373291,2023-10-21T15:16:13.463178Z,1697901373463,0.0883518025475188,736
0.1822128295898437,0.077700138092041,-0.0425047874450683,2023-10-21T15:16:13.483470Z,1697901373483,0.202596850129537,737
0.3148059844970703,0.1258149147033691,-0.069007396697998,2023-10-21T15:16:13.503725Z,1697901373503,0.3459685266552734,738
0.4709177017211914,0.1745975017547607,-0.0956256389617919,2023-10-21T15:16:13.523982Z,1697901373523,0.511265129106439,739
0.6452474594116211,0.2192640304565429,-0.1198582649230957,2023-10-21T15:16:13.547192Z,1697901373547,0.6919443638036041,740
0.8344354629516602,0.2558882236480713,-0.1404060125350952,2023-10-21T15:16:13.564455Z,1697901373564,0.8840108444974655,741
1.0371780395507812,0.2813420295715332,-0.1572694778442382,2023-10-21T15:16:13.584867Z,1697901373584,1.086105571291866,742
1.251206398010254,0.2929840087890625,-0.1711927652359008,2023-10-21T15:16:13.605174Z,1697901373605,1.2964042744055644,743
1.4747896194458008,0.2895368337631225,-0.1837300062179565,2023-10-21T15:16:13.625265Z,1697901373625,1.5141310098256076,744
1.7038249969482422,0.2706668376922607,-0.1966112852096557,2023-10-21T15:16:13.646400Z,1697901373646,1.736357150681794,745
1.9310274124145508,0.2369744777679443,-0.2114186286926269,2023-10-21T15:16:13.665867Z,1697901373665,1.9569674517395776,746
2.14749526977539,0.190095841884613,-0.2293415069580078,2023-10-21T15:16:13.686126Z,1697901373686,2.168056708119801,747
2.344943046569824,0.132546067237854,-0.2510393857955932,2023-10-21T15:16:13.706321Z,1697901373706,2.3620641661091724,748
2.5183162689208984,0.067657470703125,-0.276727557182312,2023-10-21T15:16:13.730051Z,1697901373730,2.534378129750513,749
2.662195205688477,-0.0005479443352669,-0.3060243129730224,2023-10-21T15:16:13.747149Z,1697901373747,2.679726570671776,750
2.767971992492676,-0.0673837661743164,-0.3372894525527954,2023-10-21T15:16:13.767164Z,1697901373767,2.7892604213251717,751
2.825802803039551,-0.1282050311565399,-0.3676903247833252,2023-10-21T15:16:13.787427Z,1697901373787,2.852506649706412,752
2.8304147720336914,-0.1800180077552795,-0.3940492868423462,2023-10-21T15:16:13.807667Z,1697901373807,2.863377220228532,753
2.7811336517333984,-0.2220519185066223,-0.4135216474533081,2023-10-21T15:16:13.829510Z,1697901373829,2.82046301096627,754
2.6819143295288086,-0.2553315162658691,-0.4243335723876953,2023-10-21T15:16:13.848163Z,1697901373848,2.727254596620178,755
2.538808822631836,-0.2810766696929931,-0.4257910251617431,2023-10-21T15:16:13.868511Z,1697901373868,2.589566050369683,756
2.3584423065185547,-0.2996582984924316,-0.4181087017059326,2023-10-21T15:16:13.888712Z,1697901373888,2.413888998167513,757
2.146416664123535,-0.309951901435852,-0.4020843505859375,2023-10-21T15:16:13.908904Z,1697901373908,2.205639703627277,758
1.905826568603516,-0.3101378679275512,-0.3781030178070068,2023-10-21T15:16:13.929378Z,1697901373929,1.9675676097131876,759
0.2804164886474609,0.1006526947021484,-0.1424775123596191,2023-10-21T15:13:22.809690Z,1697901202809,0.3302487147353655,760
0.3593997955322265,0.1317393779754638,-0.1794805526733398,2023-10-21T15:13:22.826926Z,1697901202826,0.4227726877719229,761
0.4436836242675781,0.1664423942565918,-0.2167153358459472,2023-10-21T15:13:22.847223Z,1697901202847,0.5210794237349061,762
0.523808479309082,0.201169729232788,-0.2489998340606689,2023-10-21T15:13:22.867515Z,1697901202867,0.6138774310218017,763
0.5906801223754883,0.2319819927215576,-0.2720165252685547,2023-10-21T15:13:22.887779Z,1697901202887,0.69044307653547,764
0.6379070281982422,0.2555665969848633,-0.2834792137145996,2023-10-21T15:13:22.909587Z,1697901202909,0.7433707868401772,765
0.6613388061523438,0.2693357467651367,-0.2827606201171875,2023-10-21T15:13:22.928296Z,1697901202928,0.7680262556043235,766
0.6570844650268555,0.2709085941314697,-0.2697997093200683,2023-10-21T15:13:22.948572Z,1697901202948,0.7602258504570281,767
0.6220722198486328,0.2584602832794189,-0.2451350688934326,2023-10-21T15:13:22.968831Z,1697901202968,0.716845008869889,768
0.5574150085449219,0.2323064804077148,-0.2109091281890869,2023-10-21T15:13:22.989038Z,1697901202988,0.6396565116873556,769
0.4679031372070312,0.1947274208068847,-0.170264720916748,2023-10-21T15:13:23.009715Z,1697901203009,0.5346421133909501,770
0.3620119094848633,0.1499018669128418,-0.1270632743835449,2023-10-21T15:13:23.029649Z,1697901203029,0.4119080819914805,771
0.2517166137695312,0.1034796237945556,-0.085599660873413,2023-10-21T15:13:23.049925Z,1697901203049,0.2853008729918389,772
0.1518201828002929,0.0619347095489501,-0.0503356456756591,2023-10-21T15:13:23.070163Z,1697901203070,0.171519542262719,773
0.0767126083374023,0.0310933589935302,-0.0249900817871093,2023-10-21T15:13:23.092749Z,1697901203092,0.0864645906666691,774
0.0367774963378906,0.0148522853851318,-0.0118777751922607,2023-10-21T15:13:23.110743Z,1697901203110,0.0414035766759689,775
0.0345973968505859,0.013972520828247,-0.0111784934997558,2023-10-21T15:13:23.130949Z,1697901203130,0.0389508655110102,776
0.0688333511352539,0.0279202461242675,-0.0224385261535644,2023-10-21T15:13:23.151211Z,1697901203151,0.077595475564578,777
0.134922981262207,0.0552105903625488,-0.0447125434875488,2023-10-21T15:13:23.171426Z,1697901203171,0.1524848573006151,778
0.2245349884033203,0.0930790901184082,-0.0760917663574218,2023-10-21T15:13:23.192665Z,1697901203192,0.2546951804450614,779
0.3272809982299804,0.1379261016845703,-0.1138577461242675,2023-10-21T15:13:23.211975Z,1697901203211,0.372961187901386,780
0.4305696487426758,0.1848750114440918,-0.154029369354248,2023-10-21T15:13:23.232255Z,1697901203232,0.4932484555459972,781
0.5218677520751953,0.2284474372863769,-0.1919701099395752,2023-10-21T15:13:23.252506Z,1697901203252,0.6011544771262568,782
0.5887622833251953,0.2624964714050293,-0.2224073410034179,2023-10-21T15:13:23.272701Z,1697901203272,0.6819167464570727,783
0.6213274002075195,0.2814621925354004,-0.2405200004577636,2023-10-21T15:13:23.293013Z,1697901203292,0.7232693652406913,784
0.6148805618286133,0.2820773124694824,-0.2433524131774902,2023-10-21T15:13:23.313271Z,1697901203313,0.7189340112444152,785
0.573211669921875,0.2654132843017578,-0.2314844131469726,2023-10-21T15:13:23.333560Z,1697901203333,0.6727561694614689,786
0.5035467147827148,0.234715461730957,-0.20711350440979,2023-10-21T15:13:23.353805Z,1697901203353,0.5929136915715012,787
0.4143972396850586,0.1941604614257812,-0.1732144355773925,2023-10-21T15:13:23.376028Z,1697901203375,0.4893123723472183,788
0.3147230148315429,0.148127794265747,-0.1333289146423339,2023-10-21T15:13:23.394387Z,1697901203394,0.3725171391740168,789
0.2152013778686523,0.1017487049102783,-0.0921156406402587,2023-10-21T15:13:23.414635Z,1697901203414,0.2552444382117868,790
0.1284055709838867,0.0610456466674804,-0.0553810596466064,2023-10-21T15:13:23.434904Z,1697901203434,0.1525831688107499,791
0.0645952224731445,0.0309538841247558,-0.0280055999755859,2023-10-21T15:13:23.455135Z,1697901203455,0.0769090328814267,792
0.031111717224121,0.0150928497314453,-0.0135307312011718,2023-10-21T15:13:23.475825Z,1697901203475,0.037132381400713,793
0.0301055908203125,0.0148730278015136,-0.0131077766418457,2023-10-21T15:13:23.495702Z,1697901203495,0.0360467385919613,794
0.0595331192016601,0.0301661491394042,-0.0258839130401611,2023-10-21T15:13:23.515953Z,1697901203515,0.0715832787042509,795
0.1138477325439453,0.0595655441284179,-0.0492422580718994,2023-10-21T15:13:23.536268Z,1697901203536,0.1376014543263687,796
0.184488296508789,0.1002273559570312,-0.0790295600891113,2023-10-21T15:13:23.559190Z,1697901203559,0.224337080748437,797
0.2608251571655273,0.14776611328125,-0.1100733280181884,2023-10-21T15:13:23.576803Z,1697901203576,0.3193442098827986,798
0.3330211639404297,0.1974220275878906,-0.1376545429229736,2023-10-21T15:13:23.597012Z,1697901203596,0.4108860253117465,799
0.3934626579284668,0.244877815246582,-0.1583380699157714,2023-10-21T15:13:23.617321Z,1697901203617,0.489743761541405,800
0.4405727386474609,0.2888040542602539,-0.1714818477630615,2023-10-21T15:13:23.637544Z,1697901203637,0.5540019349322864,801
0.4753928184509277,0.3292398452758789,-0.1776204109191894,2023-10-21T15:13:23.659084Z,1697901203659,0.6049348873449961,802
0.499575138092041,0.3666000366210937,-0.1776151657104492,2023-10-21T15:13:23.678082Z,1697901203678,0.6446068976830914,803
0.514988899230957,0.4016556739807129,-0.1725468635559082,2023-10-21T15:13:23.698339Z,1697901203698,0.6755096349386844,804
0.5245137214660645,0.4364352226257324,-0.1639842987060547,2023-10-21T15:13:23.718673Z,1697901203718,0.701770046223597,805
0.5331664085388184,0.4755687713623047,-0.1541230678558349,2023-10-21T15:13:23.738805Z,1697901203738,0.7308802881009505,806
0.5479331016540527,0.5268893241882324,-0.1454492807388305,2023-10-21T15:13:23.759130Z,1697901203759,0.7739499577486945,807
0.5773282051086426,0.6019129753112793,-0.1405642032623291,2023-10-21T15:13:23.779409Z,1697901203779,0.8457927532799137,808
0.6265945434570312,0.7114262580871582,-0.141172170639038,2023-10-21T15:13:23.799676Z,1697901203799,0.9584767208174432,809
0.6969060897827148,0.8619804382324219,-0.1485623121261596,2023-10-21T15:13:23.819936Z,1697901203819,1.118373432470506,810
0.7830920219421387,1.0501785278320312,-0.16352379322052,2023-10-21T15:13:23.842262Z,1697901203842,1.3201697186718482,811
0.8791747093200684,1.266465187072754,-0.1876213550567627,2023-10-21T15:13:23.860420Z,1697901203860,1.553088539796939,812
0.9818906784057616,1.498605728149414,-0.2212280035018921,2023-10-21T15:13:23.880695Z,1697901203880,1.805234129501156,813
1.089820384979248,1.7350225448608398,-0.2640810012817383,2023-10-21T15:13:23.900976Z,1697901203900,2.065853450254801,814
1.1986923217773438,1.9636821746826167,-0.3162633180618286,2023-10-21T15:13:23.921233Z,1697901203921,2.322269030884597,815
1.3026175498962402,2.172676086425781,-0.378068208694458,2023-10-21T15:13:23.942139Z,1697901203942,2.56130229146221,816
1.3947124481201172,2.347874641418457,-0.4492409229278564,2023-10-21T15:13:23.961732Z,1697901203961,2.7675902065858904,817
1.4707098007202148,2.473224639892578,-0.5251481533050537,2023-10-21T15:13:23.982022Z,1697901203981,2.924997097473085,818
1.527942180633545,2.5370330810546875,-0.5980057716369629,2023-10-21T15:13:24.002269Z,1697901204002,3.0213829721894165,819
1.5602030754089355,2.5353403091430664,-0.6592509746551514,2023-10-21T15:13:24.025518Z,1697901204025,3.0490647692800703,820
1.560117244720459,2.469785690307617,-0.7016487121582031,2023-10-21T15:13:24.042775Z,1697901204042,3.004349861217181,821
1.5221962928771973,2.345133781433105,-0.7204644680023193,2023-10-21T15:13:24.063058Z,1697901204063,2.887179082863008,822
1.4424991607666016,2.167465209960937,-0.7159793376922607,2023-10-21T15:13:24.083354Z,1697901204083,2.700247336301919,823
1.3209309577941897,1.9409942626953125,-0.6887862682342529,2023-10-21T15:13:24.103597Z,1697901204103,2.4467823455271343,824
1.163285732269287,1.6693115234375,-0.6371779441833496,2023-10-21T15:13:24.125360Z,1697901204125,2.132095305031236,825
0.9748005867004396,1.3566761016845703,-0.5581412315368652,2023-10-21T15:13:24.144128Z,1697901204144,1.761342630794773,826
0.7574596405029297,1.010535717010498,-0.4489109516143799,2023-10-21T15:13:24.164403Z,1697901204164,1.3403165987273593,827
0.509099006652832,0.6427688598632812,-0.3094871044158935,2023-10-21T15:13:24.184642Z,1697901204184,0.8764222005315572,828
0.2277579307556152,0.2684164047241211,-0.1412019729614257,2023-10-21T15:13:24.204878Z,1697901204204,0.3792875406802891,829
-0.0858793258666992,-0.0927906036376953,0.0540449619293212,2023-10-21T15:13:24.225238Z,1697901204225,0.1374998641625087,830
-0.4292263984680176,-0.4151391983032226,0.2730016708374023,2023-10-21T15:13:24.245466Z,1697901204245,0.6565864508118341,831
-0.7987766265869141,-0.669896125793457,0.5110409259796143,2023-10-21T15:13:24.265709Z,1697901204265,1.1610201318498985,832
-1.1873698234558103,-0.8264241218566895,0.7592806816101074,2023-10-21T15:13:24.285976Z,1697901204285,1.633808764912954,833
-1.578162670135498,-0.855288028717041,1.0002822875976562,2023-10-21T15:13:24.308677Z,1697901204308,2.0549159789046088,834
-1.9452996253967283,-0.7427544593811035,1.2110052108764648,2023-10-21T15:13:24.326487Z,1697901204326,2.408818889055198,835
-2.2580814361572266,-0.4986408948898315,1.3687424659729004,2023-10-21T15:13:24.346774Z,1697901204346,2.687197509029061,836
-2.48935604095459,-0.1548611223697662,1.4577288627624512,2023-10-21T15:13:24.367028Z,1697901204366,2.888918292923744,837
-2.61966323852539,0.2433581948280334,1.4782931804656982,2023-10-21T15:13:24.387278Z,1697901204387,3.017815339228476,838
-2.645026206970215,0.6508111953735352,1.4409244060516355,2023-10-21T15:13:24.408621Z,1697901204408,3.08155512550693,839
-2.5728869438171387,1.029630184173584,1.3530795574188232,2023-10-21T15:13:24.427811Z,1697901204427,3.083943876034508,840
-2.421297550201416,1.350492000579834,1.221968650817871,2023-10-21T15:13:24.448100Z,1697901204448,3.029804920093561,841
-2.2170777320861816,1.594970703125,1.0590951442718506,2023-10-21T15:13:24.468311Z,1697901204468,2.9293425437390685,842
-1.9923243522644043,1.764091968536377,0.8879015445709229,2023-10-21T15:13:24.488551Z,1697901204488,2.805306748099352,843
-1.769859790802002,1.872440814971924,0.7279156446456909,2023-10-21T15:13:24.508908Z,1697901204508,2.6773680117590075,844
-1.5534753799438477,1.9238438606262207,0.5848804712295532,2023-10-21T15:13:24.529154Z,1697901204529,2.54097345948095,845
-1.3431358337402344,1.9142084121704104,0.4603091478347778,2023-10-21T15:13:24.549332Z,1697901204549,2.3832944057924146,846
-1.140923023223877,1.8409781455993648,0.3547803163528442,2023-10-21T15:13:24.569563Z,1697901204569,2.194715232181208,847
-0.9513092041015624,1.7062740325927734,0.2646467685699463,2023-10-21T15:13:24.591673Z,1697901204591,1.9713949853398909,848
-0.7791476249694824,1.5227351188659668,0.1882116198539734,2023-10-21T15:13:24.610159Z,1697901204610,1.720818664929978,849
-0.6288466453552246,1.3164963722229004,0.1273696422576904,2023-10-21T15:13:24.630464Z,1697901204630,1.4645251200370135,850
-0.5027782917022705,1.1135869026184082,0.0828937292098999,2023-10-21T15:13:24.650651Z,1697901204650,1.2246359339136828,851
-0.401010513305664,0.9320621490478516,0.0533535480499267,2023-10-21T15:13:24.670860Z,1697901204670,1.016068837509983,852
-0.3194670677185058,0.7728071212768555,0.0344061553478241,2023-10-21T15:13:24.691406Z,1697901204691,0.8369431507448397,853
-0.2537715435028076,0.6325836181640625,0.0221052765846252,2023-10-21T15:13:24.711497Z,1697901204711,0.681946239460426,854
-0.2021312713623047,0.5141916275024414,0.0140812993049621,2023-10-21T15:13:24.731791Z,1697901204731,0.5526738311574622,855
-0.1631700992584228,0.4197406768798828,0.0087837427854537,2023-10-21T15:13:24.751962Z,1697901204751,0.4504263216741521,856
-0.1361072063446045,0.3507204055786133,0.0052966177463531,2023-10-21T15:13:24.774945Z,1697901204774,0.3762419815327772,857
-0.1208562850952148,0.3088665008544922,0.0030514299869537,2023-10-21T15:13:24.792532Z,1697901204792,0.331683687000249,858
-0.1179337501525878,0.2957315444946289,0.0015717595815658,2023-10-21T15:13:24.812865Z,1697901204812,0.3183833950796019,859
-0.1279075145721435,0.3110189437866211,0.0004985891282558,2023-10-21T15:13:24.833109Z,1697901204833,0.3362935685815107,860
-0.1513504981994629,0.3525228500366211,-0.0003675930202007,2023-10-21T15:13:24.853346Z,1697901204853,0.383639763616594,861
-0.1880304813385009,0.4148359298706054,-0.0010989531874656,2023-10-21T15:13:24.875116Z,1697901204875,0.4554618736207306,862
-0.23722505569458,0.4912214279174804,-0.0017405208200216,2023-10-21T15:13:24.893904Z,1697901204893,0.5455064139928236,863
-0.2986516952514648,0.5762624740600586,-0.0022528991103172,2023-10-21T15:13:24.914139Z,1697901204914,0.6490580479747515,864
-0.3736872673034668,0.6677765846252441,-0.0023838467895984,2023-10-21T15:13:24.934347Z,1697901204934,0.7652276938558907,865
-0.4655671119689941,0.7655239105224609,-0.0014003012329339,2023-10-21T15:13:24.954607Z,1697901204954,0.8959807777917413,866
-0.5780839920043945,0.8678827285766602,0.0019545909017324,2023-10-21T15:13:24.974893Z,1697901204974,1.0427872998838252,867
-0.7139840126037598,0.9696364402770996,0.0093236565589904,2023-10-21T15:13:24.995199Z,1697901204995,1.2041822649161718,868
-0.8744778633117676,1.062950611114502,0.0226512849330902,2023-10-21T15:13:25.015447Z,1697901205015,1.376622176125362,869
-1.0591468811035156,1.138598918914795,0.0437944829463958,2023-10-21T15:13:25.035681Z,1697901205035,1.5556727067869345,870
-1.2641468048095703,1.1850934028625488,0.0742574334144592,2023-10-21T15:13:25.058102Z,1697901205058,1.7343666521343992,871
-1.4800968170166016,1.1886897087097168,0.1147876679897308,2023-10-21T15:13:25.076241Z,1697901205076,1.9018007309015283,872
-1.6891536712646484,1.1357831954956057,0.1646071076393127,2023-10-21T15:13:25.096536Z,1697901205096,2.04214081106138,873
-1.866529941558838,1.0194876194000244,0.2204920649528503,2023-10-21T15:13:25.116853Z,1697901205116,2.138201529218595,874
-1.9863581657409668,0.8457543849945068,0.2765101790428161,2023-10-21T15:13:25.137212Z,1697901205137,2.1765516583480267,875
-2.030727863311768,0.6344540119171143,0.3252776861190796,2023-10-21T15:13:25.158059Z,1697901205158,2.152253033719661,876
-1.993886947631836,0.4126901626586914,0.3600507974624634,2023-10-21T15:13:25.177727Z,1697901205177,2.0677366628865514,877
-1.8812198638916016,0.206569492816925,0.376565933227539,2023-10-21T15:13:25.197817Z,1697901205197,1.929627174801004,878
-1.7061748504638672,0.0356488972902298,0.3736485242843628,2023-10-21T15:13:25.218035Z,1697901205217,1.7469735784874627,879
-1.4866304397583008,-0.0892573595046997,0.3529001474380493,2023-10-21T15:13:25.241179Z,1697901205241,1.530547436280074,880
-1.2428321838378906,-0.1658865213394165,0.317756175994873,2023-10-21T15:13:25.258765Z,1697901205258,1.2934910755502869,881
-0.9948892593383788,-0.1989773511886596,0.272761583328247,2023-10-21T15:13:25.278877Z,1697901205278,1.0506167264862365,882
-0.7579965591430664,-0.1974508762359619,0.2221026420593261,2023-10-21T15:13:25.299114Z,1697901205299,0.8141714904175965,883
-0.5416784286499023,-0.171177864074707,0.1692440509796142,2023-10-21T15:13:25.319352Z,1697901205319,0.5927570581661568,884
-0.3485059738159179,-0.1281149387359619,0.1159279346466064,2023-10-21T15:13:25.341216Z,1697901205341,0.3889847520715026,885
-0.1771469116210937,-0.0736908912658691,0.0626380443572998,2023-10-21T15:13:25.359912Z,1697901205359,0.2018288887978051,886
-0.0247039794921875,-0.0114073753356933,0.0092694759368896,2023-10-21T15:13:25.380178Z,1697901205380,0.0287460953686649,887
0.1114969253540039,0.0563640594482421,-0.0442941188812255,2023-10-21T15:13:25.400391Z,1697901205400,0.1325535383471351,888
0.2332744598388672,0.1277871131896972,-0.0978696346282959,2023-10-21T15:13:25.420614Z,1697901205420,0.2834166284690224,889
0.3417525291442871,0.2011857032775879,-0.1508898735046386,2023-10-21T15:13:25.440967Z,1697901205440,0.4243091235244186,890
0.4359598159790039,0.2737293243408203,-0.2016103267669677,2023-10-21T15:13:25.461249Z,1697901205461,0.5528430410266665,891
0.5142912864685059,0.3419117927551269,-0.2476716041564941,2023-10-21T15:13:25.481513Z,1697901205481,0.6653874246391396,892
0.5753278732299805,0.4021501541137695,-0.2866811752319336,2023-10-21T15:13:25.501739Z,1697901205501,0.7582301790363027,893
0.6186909675598145,0.4513568878173828,-0.3167064189910888,2023-10-21T15:13:25.524370Z,1697901205524,0.8287366948255954,894
0.6437702178955078,0.4862575531005859,-0.3358159065246582,2023-10-21T15:13:25.542340Z,1697901205542,0.8738757488748482,895
0.6487851142883301,0.5030403137207031,-0.3418285846710205,2023-10-21T15:13:25.562633Z,1697901205562,0.8892797439774157,896
0.6315603256225586,0.4982452392578125,-0.3330330848693847,2023-10-21T15:13:25.582822Z,1697901205582,0.8706479190586548,897
0.5917806625366211,0.4709086418151855,-0.3095738887786865,2023-10-21T15:13:25.602995Z,1697901205602,0.8171874289916993,898
0.5323214530944824,0.4236369132995605,-0.2739944458007812,2023-10-21T15:13:25.624167Z,1697901205624,0.7334216523012378,899
0.4594964981079101,0.3626213073730469,-0.2309956550598144,2023-10-21T15:13:25.643634Z,1697901205643,0.6292775516343191,900
0.3830246925354004,0.2972016334533691,-0.186906099319458,2023-10-21T15:13:25.663910Z,1697901205663,0.5195869667168374,901
0.3126211166381836,0.2366862297058105,-0.1474378108978271,2023-10-21T15:13:25.684125Z,1697901205684,0.4189155547157444,902
0.2547111511230469,0.1871199607849121,-0.1158294677734375,2023-10-21T15:13:25.704310Z,1697901205704,0.3366127089627669,903
0.2107386589050293,0.1498589515686035,-0.0923502445220947,2023-10-21T15:13:25.724640Z,1697901205724,0.2745852424760333,904
0.1790771484375,0.1233396530151367,-0.0756449699401855,2023-10-21T15:13:25.744956Z,1697901205744,0.2302247957446206,905
0.1581888198852539,0.1058287620544433,-0.0644631385803222,2023-10-21T15:13:25.765187Z,1697901205765,0.2009450816772859,906
0.1490631103515625,0.0972476005554199,-0.0586316585540771,2023-10-21T15:13:25.785378Z,1697901205785,0.1873888418937223,907
0.1506471633911132,0.0962653160095214,-0.0571870803833007,2023-10-21T15:13:25.807550Z,1697901205807,0.187701734320618,908
0.1589512825012207,0.0999255180358886,-0.0581381320953369,2023-10-21T15:13:25.825983Z,1697901205825,0.1965468436965051,909
0.1663503646850586,0.1032958030700683,-0.0584397315979003,2023-10-21T15:13:25.846304Z,1697901205846,0.2043469329155124,910
0.1651725769042968,0.1017041206359863,-0.055499792098999,2023-10-21T15:13:25.866601Z,1697901205866,0.2017571194247608,911
0.1524209976196289,0.0933685302734375,-0.0487604141235351,2023-10-21T15:13:25.886755Z,1697901205886,0.1852766065813042,912
0.1311187744140625,0.0800518989562988,-0.0397844314575195,2023-10-21T15:13:25.907669Z,1697901205907,0.1586922824738284,913
0.1090583801269531,0.0663428306579589,-0.0313189029693603,2023-10-21T15:13:25.927323Z,1697901205927,0.1314381038315366,914
0.0947122573852539,0.0572919845581054,-0.0257582664489746,2023-10-21T15:13:25.947612Z,1697901205947,0.1136497755566333,915
0.0939550399780273,0.0563702583312988,-0.0242908000946044,2023-10-21T15:13:25.967753Z,1697901205967,0.1122283321218225,916
0.1065511703491211,0.0632810592651367,-0.026369571685791,2023-10-21T15:13:25.991092Z,1697901205991,0.1267004288681661,917
0.129425048828125,0.0759873390197753,-0.0309569835662841,2023-10-21T15:13:26.008326Z,1697901206008,0.1532424673091372,918
0.1583518981933593,0.091834545135498,-0.0370688438415527,2023-10-21T15:13:26.028642Z,1697901206028,0.1867699293929118,919
0.5715126991271973,0.9054479598999025,-0.0431343913078308,2023-10-21T15:20:46.974526Z,1697901646974,1.071598501801886,920
0.6368093490600586,1.0181589126586914,-0.0505751371383667,2023-10-21T15:20:46.994768Z,1697901646994,1.2019698677476025,921
0.7083206176757812,1.139460563659668,-0.0575522780418396,2023-10-21T15:20:47.015025Z,1697901647014,1.342907568773076,922
0.7864012718200684,1.2685174942016602,-0.0636637806892395,2023-10-21T15:20:47.038894Z,1697901647038,1.493859655519061,923
0.8709850311279297,1.4031152725219729,-0.0684117376804351,2023-10-21T15:20:47.055572Z,1697901647055,1.6528846173540934,924
0.9607033729553224,1.5395622253417969,-0.0711565315723419,2023-10-21T15:20:47.075864Z,1697901647075,1.8161129008111043,925
1.053447723388672,1.673788070678711,-0.0713963210582733,2023-10-21T15:20:47.096088Z,1697901647096,1.9789936953208804,926
1.1467108726501465,1.8016939163208008,-0.0687243342399597,2023-10-21T15:20:47.116279Z,1697901647116,2.136766208006428,927
1.2378044128417969,1.9186935424804688,-0.0629010498523712,2023-10-21T15:20:47.138727Z,1697901647138,2.284185022383127,928
1.3249173164367676,2.021512985229492,-0.0538499355316162,2023-10-21T15:20:47.156906Z,1697901647156,2.417606349346853,929
1.4052495956420898,2.1063241958618164,-0.0412596762180328,2023-10-21T15:20:47.177172Z,1697901647177,2.532396178524759,930
1.473834991455078,2.1675291061401367,-0.0248395130038261,2023-10-21T15:20:47.197399Z,1697901647197,2.621257142938921,931
1.5245437622070312,2.1982526779174805,-0.0045036450028419,2023-10-21T15:20:47.221960Z,1697901647221,2.67517640571123,932
1.5522699356079102,2.1930932998657227,0.0189732387661933,2023-10-21T15:20:47.238620Z,1697901647238,2.6869239212708256,933
1.5546469688415527,2.1501951217651367,0.0440446883440017,2023-10-21T15:20:47.258233Z,1697901647258,2.6537155450353263,934
1.5315666198730469,2.070690155029297,0.0690256059169769,2023-10-21T15:20:47.278478Z,1697901647278,2.576474056441634,935
1.4824776649475098,1.9553251266479488,0.092328667640686,2023-10-21T15:20:47.298660Z,1697901647298,2.4555164346502227,936
1.4062042236328125,1.804269790649414,0.1123979091644287,2023-10-21T15:20:47.321898Z,1697901647321,2.2902910483162127,937
1.3016729354858398,1.6189680099487305,0.1274486780166626,2023-10-21T15:20:47.339282Z,1697901647339,2.081262360622002,938
1.1676230430603027,1.4020700454711914,0.1353737711906433,2023-10-21T15:20:47.359560Z,1697901647359,1.8296092591095416,939
1.0033316612243652,1.157888412475586,0.1340026259422302,2023-10-21T15:20:47.379773Z,1697901647379,1.5379651172636817,940
0.8085169792175293,0.8920297622680664,0.1215217113494873,2023-10-21T15:20:47.399992Z,1697901647399,1.210034846103355,941
0.5841231346130371,0.6121716499328613,0.0968192815780639,2023-10-21T15:20:47.421968Z,1697901647421,0.851661868734872,942
0.3310914039611816,0.3270821571350097,0.0594943761825561,2023-10-21T15:20:47.440610Z,1697901647440,0.469194880716349,943
0.0487761497497558,0.045027732849121,0.0093756914138793,2023-10-21T15:20:47.460858Z,1697901647460,0.0670411299086665,944
-0.2647342681884765,-0.2261614799499511,-0.05386483669281,2023-10-21T15:20:47.481113Z,1697901647481,0.3523275016208406,945
-0.6110544204711914,-0.4776611328125,-0.1305633783340454,2023-10-21T15:20:47.505158Z,1697901647505,0.7865077611435907,946
-0.9896321296691896,-0.6981019973754883,-0.2205481529235839,2023-10-21T15:20:47.521854Z,1697901647521,1.2309994470231196,947
-1.3978357315063477,-0.8741774559020996,-0.3229598999023437,2023-10-21T15:20:47.541898Z,1697901647541,1.6800101349778476,948
-1.8311281204223635,-0.9911777973175048,-0.4364713430404663,2023-10-21T15:20:47.562150Z,1697901647562,2.127432925521336,949
-2.281240463256836,-1.0321612358093262,-0.5586063861846924,2023-10-21T15:20:47.582343Z,1697901647582,2.565434848635611,950
-2.7342004776000977,-0.9788007736206056,-0.6847364902496338,2023-10-21T15:20:47.605158Z,1697901647605,2.9837505370302466,951
-3.1690149307250977,-0.8146141767501831,-0.8070288896560669,2023-10-21T15:20:47.622947Z,1697901647622,3.3700960693814768,952
-3.5580406188964844,-0.5304499864578247,-0.9146682024002076,2023-10-21T15:20:47.643242Z,1697901647643,3.711825447718738,953
-3.868098258972168,-0.1287662088871002,-0.99481463432312,2023-10-21T15:20:47.663523Z,1697901647663,3.9960506796433535,954
-4.0641398429870605,0.3710786700248718,-1.0340498685836792,2023-10-21T15:20:47.688390Z,1697901647688,4.210010828183253,955
-4.116627216339111,0.9281772375106812,-1.021813988685608,2023-10-21T15:20:47.705001Z,1697901647704,4.341916218677008,956
-4.015310287475586,1.4837199449539185,-0.9552274942398072,2023-10-21T15:20:47.725552Z,1697901647725,4.385954986717601,957
-3.773960590362549,1.976276397705078,-0.8413263559341431,2023-10-21T15:20:47.744567Z,1697901647744,4.342381486572227,958
-3.425713539123535,2.3581862449646,-0.6949887871742249,2023-10-21T15:20:47.764843Z,1697901647764,4.216582150554218,959
-3.012561321258545,2.60451340675354,-0.5332901477813721,2023-10-21T15:20:47.788183Z,1697901647788,4.017886780637633,960
-2.5741782188415527,2.712184429168701,-0.3715757727622986,2023-10-21T15:20:47.805440Z,1697901647805,3.75771292611441,961
-2.1410813331604004,2.6946282386779785,-0.2211247384548187,2023-10-21T15:20:47.825646Z,1697901647825,3.4487891744560746,962
-1.7316818237304688,2.571200370788574,-0.0893473178148269,2023-10-21T15:20:47.845807Z,1697901647845,3.1012539767943044,963
-1.3549890518188477,2.358372688293457,0.0191884599626064,2023-10-21T15:20:47.866102Z,1697901647866,2.7199789088213877,964
-1.015514850616455,2.06822156906128,0.1006241142749786,2023-10-21T15:20:47.888150Z,1697901647888,2.3062818741269435,965
-0.7155470848083496,1.709108829498291,0.1505064368247985,2023-10-21T15:20:47.906685Z,1697901647906,1.858954762540617,966
-0.4566159248352051,1.288191795349121,0.1637161970138549,2023-10-21T15:20:47.926952Z,1697901647926,1.376495258830404,967
-0.2406387329101562,0.812164306640625,0.1348810195922851,2023-10-21T15:20:47.947139Z,1697901647947,0.857735827748793,968
-0.0697197914123535,0.2868785858154297,0.0588760375976562,2023-10-21T15:20:47.971673Z,1697901647971,0.3010424556723579,969
0.0545693635940551,-0.2806940078735351,-0.0686128139495849,2023-10-21T15:20:47.988213Z,1697901647988,0.2940657405024405,970
0.1325427293777465,-0.8814897537231445,-0.2498362064361572,2023-10-21T15:20:48.008009Z,1697901648007,0.9257482871041148,971
0.1665340662002563,-1.503448486328125,-0.4842627048492431,2023-10-21T15:20:48.028229Z,1697901648028,1.5882699120601091,972
0.1607894301414489,-2.1320877075195312,-0.7694540023803711,2023-10-21T15:20:48.048407Z,1697901648048,2.272379962765971,973
0.1214333772659301,-2.750223159790039,-1.101718187332153,2023-10-21T15:20:48.071358Z,1697901648071,2.9651739338625926,974
0.0573514699935913,-3.338648796081543,-1.475358009338379,2023-10-21T15:20:48.089027Z,1697901648088,3.6505542360586927,975
-0.019226498901844,-3.878259658813477,-1.8810830116271973,2023-10-21T15:20:48.109305Z,1697901648109,4.310422361680175,976
-0.0913046449422836,-4.350737571716309,-2.303584575653076,2023-10-21T15:20:48.129505Z,1697901648129,4.923794863041993,977
-0.1402974128723144,-4.744152069091797,-2.7236576080322266,2023-10-21T15:20:48.154818Z,1697901648154,5.472200013204787,978
-0.1517823338508606,-5.05463981628418,-3.119971752166748,2023-10-21T15:20:48.171499Z,1697901648171,5.941939522037651,979
