GYR_X,GYR_Y,GYR_Z,DATE,UNIX_TIMESTAMP
-0.0061192950233817,0.0025275349617004,0.1424731463193893,2023-10-20T12:14:44.002622Z,1697804084002
-0.0876655504107475,-0.0011972533538937,0.1253125220537185,2023-10-20T12:14:44.018303Z,1697804084018
-0.1661521643400192,-0.0050550699234008,0.1102803349494934,2023-10-20T12:14:44.023115Z,1697804084023
-0.2367901057004928,-0.00957802683115,0.0965784415602684,2023-10-20T12:14:44.035214Z,1697804084035
-0.2967858016490936,-0.0152982370927929,0.0834086537361145,2023-10-20T12:14:44.043823Z,1697804084043
-0.3442768454551697,-0.0219496451318264,0.0695737227797508,2023-10-20T12:14:44.054626Z,1697804084054
-0.3768687546253204,-0.0283349957317113,0.0529452040791511,2023-10-20T12:14:44.063598Z,1697804084063
-0.3928321301937103,-0.0325918979942798,0.0324588678777217,2023-10-20T12:14:44.074763Z,1697804084074
-0.3949605822563171,-0.0349864028394222,0.0078486613929271,2023-10-20T12:14:44.084902Z,1697804084084
-0.3900385499000549,-0.0367157682776451,-0.0202202796936035,2023-10-20T12:14:44.095012Z,1697804084094
-0.3839192390441894,-0.0389772467315197,-0.0505506992340087,2023-10-20T12:14:44.104192Z,1697804084104
-0.3793962895870209,-0.0423029512166976,-0.0818123146891594,2023-10-20T12:14:44.118642Z,1697804084118
-0.3759375512599945,-0.046692881733179,-0.113206960260868,2023-10-20T12:14:44.124463Z,1697804084124
-0.3718136847019195,-0.0516149215400218,-0.1439364552497863,2023-10-20T12:14:44.135783Z,1697804084135
-0.3636989593505859,-0.0558718256652355,-0.1733356863260269,2023-10-20T12:14:44.144914Z,1697804084144
-0.3485337495803833,-0.0578672476112842,-0.2011385709047317,2023-10-20T12:14:44.155778Z,1697804084155
-0.3267171382904053,-0.0572021044790744,-0.2274781465530395,2023-10-20T12:14:44.167906Z,1697804084167
-0.3019739091396332,-0.0549406260251998,-0.2522213757038116,2023-10-20T12:14:44.176118Z,1697804084176
-0.2797582149505615,-0.0522800646722316,-0.2748361527919769,2023-10-20T12:14:44.185176Z,1697804084185
-0.2651250958442688,-0.0502846427261829,-0.2942582666873932,2023-10-20T12:14:44.196488Z,1697804084196
-0.2603361010551452,-0.0490873865783214,-0.3090243935585022,2023-10-20T12:14:44.205436Z,1697804084205
-0.2635287642478943,-0.0462937951087951,-0.3174051642417907,2023-10-20T12:14:44.218377Z,1697804084218
-0.2708453238010406,-0.0401745028793811,-0.3186024129390716,2023-10-20T12:14:44.225950Z,1697804084225
-0.2820196747779846,-0.0305964741855859,-0.3123500943183899,2023-10-20T12:14:44.236703Z,1697804084236
-0.2994463741779327,-0.0194221101701259,-0.3003775775432586,2023-10-20T12:14:44.245950Z,1697804084245
-0.3251208066940307,-0.008779858238995,-0.2857444584369659,2023-10-20T12:14:44.257281Z,1697804084257
-0.3567815124988556,0.0009311970788985492,-0.2728407382965088,2023-10-20T12:14:44.267764Z,1697804084267
-0.3903045952320099,0.0099771115928888,-0.2648590505123138,2023-10-20T12:14:44.277335Z,1697804084277
-0.4193047285079956,0.019289081916213,-0.2616663873195648,2023-10-20T12:14:44.286942Z,1697804084286
-0.4379286766052246,0.0297983065247535,-0.2606021463871002,2023-10-20T12:14:44.297252Z,1697804084297
-0.4423186182975769,0.0417708382010459,-0.2564782798290252,2023-10-20T12:14:44.306796Z,1697804084306
-0.4310111999511719,0.0554727390408515,-0.2453039139509201,2023-10-20T12:14:44.318446Z,1697804084318
-0.3905706405639648,0.058000274002552,-0.2201615869998932,2023-10-20T12:14:44.327264Z,1697804084327
-0.3493319153785705,0.0747618228197097,-0.1928908228874206,2023-10-20T12:14:44.338595Z,1697804084338
-0.3140794634819031,0.088995836675167,-0.1696108877658844,2023-10-20T12:14:44.351346Z,1697804084351
-0.2488956749439239,0.1032298430800437,-0.145532801747322,2023-10-20T12:14:44.358462Z,1697804084358
-0.1771934926509857,0.1291703283786773,-0.1322299838066101,2023-10-20T12:14:44.367646Z,1697804084367
-0.1185280829668045,0.1380832195281982,-0.1336932927370071,2023-10-20T12:14:44.378613Z,1697804084378
-0.0693076699972152,0.145532801747322,-0.1472621709108352,2023-10-20T12:14:44.387672Z,1697804084387
-0.0311285872012376,0.1499227285385131,-0.1690787822008133,2023-10-20T12:14:44.401993Z,1697804084401
-0.0035917600616812,0.1500557512044906,-0.1938220113515854,2023-10-20T12:14:44.408590Z,1697804084408
0.0162294339388608,0.1463309675455093,-0.2157716602087021,2023-10-20T12:14:44.419815Z,1697804084419
0.0316606983542442,0.1410098373889923,-0.231468990445137,2023-10-20T12:14:44.428778Z,1697804084428
0.0450965426862239,0.136353850364685,-0.2393176406621933,2023-10-20T12:14:44.440103Z,1697804084440
0.0536103434860706,0.1323630064725875,-0.2406479269266128,2023-10-20T12:14:44.451069Z,1697804084451
0.0518809780478477,0.1210556179285049,-0.2222900390625,2023-10-20T12:14:44.459942Z,1697804084459
0.0355185158550739,0.1154684349894523,-0.214308351278305,2023-10-20T12:14:44.469519Z,1697804084469
0.0050550699234008,0.1156014651060104,-0.2148404717445373,2023-10-20T12:14:44.480161Z,1697804084480
-0.0332570374011993,0.1090830862522125,-0.1932899057865142,2023-10-20T12:14:44.489364Z,1697804084489
-0.0726333707571029,0.105092242360115,-0.1652209609746933,2023-10-20T12:14:44.501221Z,1697804084501
-0.1068216040730476,0.1029637902975082,-0.1314318180084228,2023-10-20T12:14:44.509914Z,1697804084509
-0.1310327351093292,0.1007023081183433,-0.0944499894976615,2023-10-20T12:14:44.520469Z,1697804084520
-0.1427392065525055,0.0971105545759201,-0.0581333041191101,2023-10-20T12:14:44.529849Z,1697804084529
-0.1344914585351944,0.0879316106438636,-0.0376469679176807,2023-10-20T12:14:44.541026Z,1697804084540
-0.1261106878519058,0.0832756236195564,-0.0122385900467634,2023-10-20T12:14:44.551144Z,1697804084551
-0.1187941431999206,0.079417809844017,0.00957802683115,2023-10-20T12:14:44.561290Z,1697804084561
-0.1015004813671112,0.0678443610668182,0.0082477452233433,2023-10-20T12:14:44.570890Z,1697804084570
-0.0866013243794441,0.0578672476112842,0.0070504918694496,2023-10-20T12:14:44.585040Z,1697804084585
-0.0739636495709419,0.0494864732027053,0.0059862667694687,2023-10-20T12:14:44.590729Z,1697804084590
-0.0631883740425109,0.0423029512166976,0.0050550699234008,2023-10-20T12:14:44.602159Z,1697804084602
-0.0804820284247398,0.058000274002552,0.0102431681007146,2023-10-20T12:14:44.611219Z,1697804084611
-0.0952481552958488,0.0715691447257995,0.0147661250084638,2023-10-20T12:14:44.622086Z,1697804084622
-0.0734315365552902,0.0747618228197097,0.0214175321161746,2023-10-20T12:14:44.635005Z,1697804084634
-0.0549406260251998,0.0775554105639457,0.0271377433091402,2023-10-20T12:14:44.642368Z,1697804084642
-0.0238120388239622,0.0790187194943428,0.0263395737856626,2023-10-20T12:14:44.650841Z,1697804084650
0.0026605629827827,0.0802159756422042,0.0258074607700109,2023-10-20T12:14:44.662554Z,1697804084662
0.0254083778709173,0.0715691447257995,0.008912886492908,2023-10-20T12:14:44.671407Z,1697804084671
0.059463582932949,0.0654498487710952,-0.0175597164779901,2023-10-20T12:14:44.684821Z,1697804084684
0.0827435106039047,0.0586654134094715,-0.0405735857784748,2023-10-20T12:14:44.691874Z,1697804084691
0.106422521173954,0.0530782341957092,-0.0615920349955558,2023-10-20T12:14:44.703153Z,1697804084703
0.127840057015419,0.0480231642723083,-0.0784866064786911,2023-10-20T12:14:44.712120Z,1697804084712
0.1432713270187378,0.0427020378410816,-0.0904591456055641,2023-10-20T12:14:44.722990Z,1697804084722
0.1379501968622207,0.0369818247854709,-0.0881976634263992,2023-10-20T12:14:44.734003Z,1697804084733
0.1318309009075164,0.0286010522395372,-0.0909912586212158,2023-10-20T12:14:44.743280Z,1697804084743
0.1266427934169769,0.0215505603700876,-0.0935187935829162,2023-10-20T12:14:44.752625Z,1697804084752
0.1081518903374672,0.0183578841388225,-0.0798168927431106,2023-10-20T12:14:44.763475Z,1697804084763
0.067445270717144,0.0071835201233625,-0.0756930187344551,2023-10-20T12:14:44.773193Z,1697804084773
0.0325918979942798,-0.0022614786867052,-0.0722342878580093,2023-10-20T12:14:44.784601Z,1697804084784
-0.0117064770311117,-0.0074495766311883,-0.0564039349555969,2023-10-20T12:14:44.793515Z,1697804084793
-0.0715691447257995,-0.0135688716545701,-0.0383121073246002,2023-10-20T12:14:44.804765Z,1697804084804
-0.1052252650260925,-0.014367040246725,-0.0215505603700876,2023-10-20T12:14:44.817544Z,1697804084817
-0.1330281496047973,-0.0139679564163088,-0.0035917600616812,2023-10-20T12:14:44.824413Z,1697804084824
-0.1541796326637268,-0.0135688716545701,0.0154312653467059,2023-10-20T12:14:44.833881Z,1697804084833
-0.1676154732704162,-0.0138349281623959,0.0343212634325027,2023-10-20T12:14:44.844557Z,1697804084844
-0.1721384227275848,-0.014500068500638,0.0516149215400218,2023-10-20T12:14:44.853946Z,1697804084853
-0.1595007479190826,-0.013701899908483,0.0554727390408515,2023-10-20T12:14:44.867984Z,1697804084867
-0.1452667415142059,-0.013701899908483,0.0695737227797508,2023-10-20T12:14:44.874214Z,1697804084874
-0.133161187171936,-0.0135688716545701,0.0816792845726013,2023-10-20T12:14:44.885859Z,1697804084885
-0.1137390732765197,-0.0115734487771987,0.0697067528963089,2023-10-20T12:14:44.894604Z,1697804084894
-0.0862022414803505,-0.0154312653467059,0.0764911845326423,2023-10-20T12:14:44.905662Z,1697804084905
-0.0626562610268592,-0.0186239406466484,0.0820783674716949,2023-10-20T12:14:44.917358Z,1697804084917
-0.0534773170948028,-0.0158303491771221,0.0701058357954025,2023-10-20T12:14:44.926263Z,1697804084926
-0.0457616858184337,-0.0135688716545701,0.0598626695573329,2023-10-20T12:14:44.935372Z,1697804084935
-0.0280689392238855,-0.0222157016396522,0.0384451374411582,2023-10-20T12:14:44.946449Z,1697804084946
-0.0130367586389184,-0.0295322500169277,0.0202202796936035,2023-10-20T12:14:44.955309Z,1697804084955
-0.0255414061248302,-0.0287340804934501,0.0017293660202994,2023-10-20T12:14:44.967882Z,1697804084967
-0.0361836589872837,-0.0279359128326177,-0.0141009837388992,2023-10-20T12:14:44.975752Z,1697804084975
-0.0534773170948028,-0.0259404890239238,-0.0305964741855859,2023-10-20T12:14:44.987029Z,1697804084986
-0.0800829455256462,-0.0255414061248302,-0.0541424565017223,2023-10-20T12:14:44.995691Z,1697804084995
-0.0802159756422042,-0.0230138711631298,-0.0557387955486774,2023-10-20T12:14:45.007588Z,1697804085007
